time,seconds_elapsed,z,y,x
1772788932202604800,0.070604736328125,0.12731880444586277,0.1288189798757434,-0.38314617111142724
1772788932222637800,0.090637939453125,0.04867079966664314,0.08449059332758188,-0.195374414067436
1772788932242670800,0.1106708984375,0.0291354935914278,0.247869576061517,-0.3272196646954864
1772788932262702800,0.130702880859375,-0.18142215055525301,0.29595431946851314,-0.41458822461217637
1772788932282735900,0.15073583984375,-0.20199322941899298,0.39646344292201097,-0.688510452753678
1772788932302767900,0.170767822265625,-0.23911329202353954,0.35282333089895546,-0.17831333435233682
1772788932322801000,0.19080078125,-0.15412264021933078,0.3717915046107024,-0.8500655079960823
1772788932342833700,0.210833740234375,-0.22145956191122532,0.2839838226243853,-0.15927476228550075
1772788932362866000,0.230865966796875,-0.2393886018335819,0.10974398478865623,-0.740808795267716
1772788932382898700,0.250898681640625,0.12949264135360716,-0.11357340688370167,-0.7298718792550265
1772788932402932000,0.270931884765625,0.4147895924031734,-0.24123371824361384,-0.011394340923987329
1772788932422964000,0.2909638671875,0.06821545809209346,-0.6603025954011827,0.1143809238743037
1772788932442997000,0.3109970703125,0.041351416563987727,-0.2261330336149782,0.2500567473748699
1772788932463029000,0.331029052734375,-0.11131225701868533,0.34013146097771824,-0.88410148698017
1772788932483061800,0.351061767578125,0.5750047042787074,0.1000819110173732,-1.2190905435681343
1772788932503094800,0.3710947265625,0.41199499324858185,-1.5261286401741205,0.31071554300971327
1772788932523126800,0.391126708984375,-0.668392013028264,-1.1178456531859933,0.28843168714502826
1772788932543160000,0.41116015625,-0.16775661329627037,0.219596982909739,-0.2146011839164421
1772788932563192800,0.43119287109375,0.8137363035082816,0.3948427829176187,-0.22871092127896844
1772788932583224800,0.451224853515625,4.835615737864375,-1.2271497852526605,0.7872836192600429
1772788932603257900,0.4712578125,-0.4517594328820705,-0.5506257575646043,2.5371067407906054
1772788932623289900,0.491289794921875,-1.6152297960370778,0.08817549238540232,2.102185045462847
1772788932643323000,0.511322998046875,-1.8533324497133492,0.23326135112494228,1.3121519813641904
1772788932663356000,0.53135595703125,-0.7054103688240051,1.620795759601146,-0.5607124134235084
1772788932683387600,0.5513876953125,-1.0026321509450673,1.1869550644431262,0.9848926422454416
1772788932703421000,0.5714208984375,-0.4120020075112581,1.0703957736164331,-0.36452655510902404
1772788932723453700,0.59145361328125,0.027630349725484848,0.009871478738263249,-1.0886962771996855
1772788932743486000,0.61148583984375,1.3002028926342726,-0.2538354987286031,-0.7627503587670624
1772788932763518700,0.631518798828125,0.25516718572378155,0.4493436769772321,2.401555676180869
1772788932783551000,0.651551025390625,-1.3415332664102315,0.6625329117365181,3.0474969340786338
1772788932803583700,0.671583740234375,1.1188649132311344,0.21538871756494044,-0.3420436512745917
1772788932823617000,0.691616943359375,0.14936054038405416,0.7322649118714034,-0.2517427642330527
1772788932843649000,0.71164892578125,-0.6298807883262634,0.2681466404147446,-0.8167895535990596
1772788932863681800,0.731681884765625,-0.007591770303249359,0.03808554663583636,-0.14114917687773704
1772788932883714800,0.75171484375,0.01385842948257923,0.05836670264229178,-0.38833223197981714
1772788932903746800,0.771746826171875,0.11215279949605464,-0.423986752076447,-0.053791795942187304
1772788932923779800,0.79177978515625,0.6456517734318972,-0.2587986740939319,0.03142886522561312
1772788932943811800,0.811811767578125,1.3608616517364978,-0.29080650825127957,0.2000504247881472
1772788932963844900,0.831844970703125,0.8627718448340892,-0.34540143726989625,-0.03773848676383495
1772788932983878000,0.8518779296875,-0.40438860989809033,-0.09058321111425757,-0.3341406230650842
1772788933003910000,0.871909912109375,-0.5393827712774276,-0.2700996741786599,-0.4694445810459554
1772788933023943000,0.89194287109375,0.038108489120006556,0.5136676075235009,0.9672314594790339
1772788933043976200,0.91197607421875,0.7534516384154558,-0.12380217462703585,0.5915194204237312
1772788933064008000,0.932008056640625,-0.053119011247158045,0.045021921770274635,0.5747188730746507
1772788933084041200,0.952041259765625,-0.18571371026933192,0.06419453201293945,-0.42860484033115204
1772788933104073000,0.972072998046875,0.14784487512409686,0.2404315350152552,-0.5258351613096892
1772788933124106000,0.99210595703125,1.1678344035834074,0.41841231294497844,-0.7024379288844764
1772788933144139000,1.012138916015625,-2.8666403084516525,-0.3282539761792868,1.3257071901164947
1772788933164171000,1.0321708984375,0.03271978181898594,0.051411842003092165,0.6123093296699226
1772788933184204000,1.0522041015625,0.0038736265629529952,-0.8699946356944739,0.7476270969804376
1772788933204237000,1.072237060546875,0.24902853683829307,-0.46981677535921335,-0.5574568456936627
1772788933224268800,1.092268798828125,-0.09328618646264075,-0.3169868783641606,-0.4742950167518109
1772788933244302000,1.112302001953125,-0.006391746863722801,-0.16242416622713207,0.022552571537159383
1772788933264334000,1.132333984375,-0.08987491671442985,-0.0844394476622343,-0.024053514152020214
1772788933284367000,1.1523671875,-0.25698504880070683,0.12984006655178965,-0.26642547917794435
1772788933304400000,1.17239990234375,-0.6688537853211164,0.09481098487712443,-0.3510972742913291
1772788933324432100,1.19243212890625,-0.6117588561803102,0.18127229375578463,-0.14305460864026098
1772788933344465000,1.21246484375,-0.7046703641116618,0.06229746621996164,-0.39145058319605885
1772788933364498200,1.232498291015625,-0.44292263095378875,0.005370440991967916,-1.0751885608509182
1772788933384530200,1.2525302734375,-0.4222767332881689,0.10273315617851912,-0.5863488128527998
1772788933404563000,1.27256298828125,-0.08817278897166252,0.13110109946355222,-0.2901211198030039
1772788933424595200,1.29259521484375,-0.11018296072781085,0.09380005426891147,-0.7607228715274482
1772788933444628000,1.3126279296875,0.4512415464878082,-0.07050868359580635,-0.9693114806234836
1772788933464661200,1.3326611328125,0.6049310559868812,-0.07281615682058036,-0.6497071132373065
1772788933484693000,1.35269287109375,0.22001520832180976,0.03226005535274744,-0.3001012465475127
1772788933504726000,1.37272607421875,0.15572364567518232,0.004000394747778773,-0.22915574243701994
1772788933524759000,1.392759033203125,0.1452384920179844,-0.04992781399041414,-0.1531022659293376
1772788933544791000,1.412791015625,-0.09066694387495518,-0.021595380410179495,0.12008654250423423
1772788933564824000,1.432823974609375,-0.4307248281598091,-0.14188355556689203,0.3321465997036546
1772788933584856000,1.45285595703125,-1.0062181927382945,-0.2590938576482236,-0.1652836290451698
1772788933604888800,1.472888916015625,-1.3109335454851387,-0.1937660838216543,-0.5993852584280074
1772788933624922000,1.492922119140625,-1.0135755697637796,-0.1119661543501541,-0.2501204602608457
1772788933644953900,1.512953857421875,-0.31851123838722706,-0.24240601342599838,0.14288656773013061
1772788933664987100,1.532987060546875,-1.083421259406209,-0.0732842857889831,-0.6743078129433095
1772788933685020000,1.55302001953125,-1.198510696876049,0.3123461398862302,-0.03842381128002889
1772788933705052200,1.57305224609375,0.12954466380178928,0.2952196850510314,0.8166296137969941
1772788933725085000,1.5930849609375,-0.17772329603731632,-0.006047573068551719,-0.37448352017365394
1772788933745117000,1.613116943359375,-0.6546428891390562,-0.11117120458018034,-0.9638548226527869
1772788933765150000,1.63314990234375,-0.10162088408768176,-0.005866846206784248,0.2790400460792705
1772788933785183000,1.653182861328125,-1.042267995762825,-0.018938216964900494,0.08871407450782134
1772788933805215200,1.67321533203125,-2.0170967785030602,0.21297022171374408,-0.07509774668542668
1772788933825248000,1.693248046875,-1.3352818048000334,0.1119641450561583,0.35855095129813996
1772788933845281000,1.713281005859375,-0.4655781148761511,-0.10869904231298715,0.32251667463630435
1772788933865313000,1.73331298828125,-0.9105307903528213,-0.01968793935365975,-0.29404198304116724
1772788933885346000,1.753345947265625,-0.6612082390040159,0.10323770816717297,0.2496809728650376
1772788933905378000,1.7733779296875,-0.8741378729790449,-0.06424976933151483,0.7282489542283117
1772788933925411000,1.7934111328125,-1.6909072605729103,0.1409967079960741,-0.0499387189769186
1772788933945444000,1.813444091796875,-1.2259984232604504,0.6035246963202953,0.35617855961099265
1772788933965476000,1.83347607421875,0.18687690882980823,0.5323840349638834,0.9313970527708529
1772788933985508900,1.8535087890625,-0.31170389645993707,0.476451427600719,0.03757612439253134
1772788934005542100,1.873542236328125,-0.5981079319685697,0.4155205735588446,0.34227833681330083
1772788934025573600,1.89357373046875,0.2007248169183731,0.5232746997045353,1.1148865841846913
1772788934045606700,1.913606689453125,0.4901461544215679,0.5355622631411999,0.055248935947939753
1772788934065638700,1.933638671875,0.9084048842400312,0.3621731969159096,-0.21653259037043898
1772788934085671700,1.953671630859375,0.513167549046874,0.22935711022801697,0.5008760035548359
1772788934105704400,1.973704345703125,-0.055880292654037475,0.2655328411871567,0.7471238966986536
1772788934125736700,1.99373681640625,0.33820494989454747,0.22655041877683252,0.03049368500104174
1772788934145769500,2.01376953125,1.7571271609336137,-0.2033150891399011,-0.4076009595407173
1772788934165801500,2.033801513671875,1.5172095667898653,0.15930698405466973,0.21307355422405524
1772788934185834800,2.053834716796875,-1.8739964675575493,0.13628065752591936,0.9474944202866404
1772788934205867500,2.073867431640625,-1.602110786744952,0.5484938601024448,0.5944990207564086
1772788934225899800,2.093899658203125,0.43796939246058464,0.2949652718985453,0.4128976411767304
1772788934245932500,2.1139326171875,0.9808137023687362,0.1988177411880344,-0.09177896023746579
1772788934265965800,2.1339658203125,0.374875515165925,-0.133407111383602,-0.6942686509542166
1772788934285997600,2.15399755859375,1.024367597413063,-0.4574395243450999,-0.41999713445100934
1772788934306030600,2.174030517578125,1.529364699485898,-0.661014908389002,0.5193018140181899
1772788934326062600,2.1940625,1.8966566276550292,-0.6265428760752082,0.7840555240590125
1772788934346095600,2.214095703125,1.738099804380536,-0.22361695914082227,0.6838837428011
1772788934366128600,2.234128662109375,0.9671212771028279,-0.07943111798092722,0.5033457912018522
1772788934386160600,2.25416064453125,-0.11211655913889408,0.006299100144207477,0.5705197408843785
1772788934406193400,2.274193359375,-0.6398392877608537,-0.07225501580648123,0.04995853792224079
1772788934426226700,2.294226806640625,-0.6003787995100021,-0.16869433253780006,-0.22903701142817734
1772788934446258400,2.314258544921875,-0.22319676096737384,-0.15690532974041999,-0.06795976629797369
1772788934466291700,2.334291748046875,0.18207798411548137,-0.21968509958460924,0.2363714459694922
1772788934486323700,2.35432373046875,-0.3656353931337595,-0.18901012146621943,-0.08644881472326815
1772788934506356700,2.374356689453125,-0.7818342678129673,-0.12282346578799187,-0.20284274065410718
1772788934526389500,2.394389404296875,-0.3169920659959316,0.20173019456863403,0.2040943664167076
1772788934546421500,2.41442138671875,0.7562415613949298,0.2336178364124149,0.16783128596767782
1772788934566454500,2.43445458984375,1.440836521205306,0.33210619462803004,0.6452890775993466
1772788934586487600,2.454487548828125,1.6230530370086431,0.6006465105354786,1.0668685493383556
1772788934606519800,2.474519775390625,2.0078589945584535,0.8029678028650581,1.1504313602965324
1772788934626552600,2.494552490234375,1.9143267243802546,0.8590019709065556,0.8833703962266445
1772788934646584600,2.51458447265625,1.1170850440770388,0.7066897411100566,-0.2929353369735181
1772788934666617600,2.53461767578125,0.8981108692407608,0.8142848773017525,0.08964712670738809
1772788934686650600,2.554650634765625,1.8554753069609402,1.006635249106586,0.8381273059863596
1772788934706682600,2.5746826171875,1.819878508400917,0.8997139205232262,1.2047747257068753
1772788934726715600,2.594715576171875,1.1975690321117638,0.3747868139691651,0.806180481301248
1772788934746748700,2.614748779296875,0.07967325617372989,0.19460180399343371,0.8724499929573386
1772788934766780700,2.63478076171875,-0.27364216909110545,0.5328891714744269,1.3963525057040154
1772788934786813400,2.6548134765625,-0.9813350958943367,-0.06177548817247152,-0.07051399909174069
1772788934806845700,2.674845703125,-0.19338848268091677,-0.20116759224981068,-1.0000286173831672
1772788934826878500,2.69487841796875,-0.165437230437994,-0.12031243281513451,-0.8731866366688161
1772788934846911700,2.714911865234375,-0.410892584964633,0.23733985261023044,-0.29141490420689803
1772788934866943500,2.734943603515625,-0.6724123545855283,0.14009075386598704,0.2456389126663096
1772788934886976800,2.754976806640625,-0.7046534129768609,-0.251923089236021,-0.2275194647383876
1772788934907009500,2.775009521484375,0.10456921249926089,-0.2686353007145226,-0.1943216353451833
1772788934927041500,2.79504150390625,0.27888299235403535,-0.22229557434394953,0.24481700182417407
1772788934947074600,2.815074462890625,-0.09451426695287227,-0.3643210956647992,0.6028940702665597
1772788934967106600,2.8351064453125,-0.4720604626327753,-0.621581308145076,0.17255321818934752
1772788934987139600,2.8551396484375,0.07879062812030314,-0.5686839768245816,0.21036193891149013
1772788935007172600,2.875172607421875,0.3028565731376409,-0.373717285041511,0.02744397857422009
1772788935027204900,2.895204833984375,0.3019739450842142,-0.05468348408490419,-0.028684023496881126
1772788935047238000,2.91523779296875,0.07443827812969685,0.05175386037379503,-0.17357574790380895
1772788935067270700,2.935270751953125,0.003596563187241554,0.24472389844693243,-0.11032014070879667
1772788935087303000,2.955302978515625,-0.05473521427214145,0.40103053164184094,0.09335768079627305
1772788935107335700,2.975335693359375,-0.10080196892023086,0.41151970388703046,0.06826021054927259
1772788935127368000,2.995367919921875,-0.2120230405241251,0.061974444810673594,-0.25362090612985194
1772788935147401000,3.01540087890625,-0.3839724293351173,-0.13428301743529736,-0.6974430432066321
1772788935167434000,3.03543408203125,-0.41411388509869573,-0.23800547691211102,-0.722021165754646
1772788935187466000,3.055466064453125,-0.3875029415488243,-0.2552336750887334,-0.7666398404862731
1772788935207498800,3.075498779296875,-0.46203298961520195,-0.11577749279923737,-0.5631951336173341
1772788935227532000,3.095531982421875,-0.21374270392358302,-0.04287672643512487,-0.5293905157037079
1772788935247563800,3.115563720703125,0.01235270109474659,0.10119155275970697,-0.3097677042329684
1772788935267597000,3.13559716796875,0.3763409115433693,0.15687807640731333,-0.10829937547091394
1772788935287628800,3.15562890625,0.07331190444827079,0.09967091906368732,-0.28549872069936244
1772788935307661800,3.175661865234375,-0.1134095215588808,-0.011995412089675665,-0.23122034681662915
1772788935327694800,3.19569482421875,-0.2572878311395645,0.001422580149024725,-0.14101740372423083
1772788935347726800,3.215726806640625,-0.16380992149710655,-0.023269378037005663,-0.06989873500391841
1772788935367760000,3.235759765625,0.2940653639167547,-0.028457740460336205,-0.2440291941810399
1772788935387793000,3.25579296875,0.21863982831537723,-0.05638838830664754,-0.18929105729945003
1772788935407824600,3.27582470703125,0.03415419853627682,0.07720569701641798,0.04361214630389586
1772788935427858000,3.29585791015625,-0.14292261629104613,0.021768910346180198,-0.007707432572171092
1772788935447890000,3.315889892578125,-0.04493687383532524,0.1623743357360363,0.053967755297292024
1772788935467923000,3.3359228515625,0.020875614768266677,0.15660875794664025,0.13845111516648903
1772788935487955700,3.355955810546875,0.012796353209018707,0.07559606986269354,-0.024298300959635526
1772788935507988000,3.375988037109375,-0.049369887846708295,0.03650368427187204,0.004824853740027174
1772788935528020700,3.396020751953125,-0.165192900288105,-0.036297348044812675,0.08740691003254614
1772788935548052700,3.416052734375,0.03587386193573475,0.09479045354574918,0.18497330369818954
1772788935568086000,3.4360859375,0.1411427471369505,0.1747853428892791,0.3496115292456001
1772788935588118800,3.456118896484375,0.3505325165480375,0.17733575802445412,0.6133161686249077
1772788935608151000,3.476151123046875,0.319615400236845,0.09170651605576276,0.5416868104360998
1772788935628183800,3.496183837890625,0.31937282365262504,0.008883125288039445,0.348948169966042
1772788935648217000,3.516217041015625,0.06335223596990108,-0.13179434242472052,0.09082553197015077
1772788935668248800,3.536248779296875,-0.41649581179916856,-0.19972075444236398,-0.29532584883924573
1772788935688281900,3.55628173828125,-0.3078478055536747,-0.05254734883904457,-0.16658070138469339
1772788935708313900,3.57631396484375,-0.26789456534981726,0.013823942691087722,0.04454272341858596
1772788935728347000,3.596346923828125,-0.18013561787605284,0.1071872860431671,0.10307433429900556
1772788935748380000,3.6163798828125,-0.3868792566925287,0.01372778884023428,0.026527393452264368
1772788935768412000,3.636411865234375,-0.15549100596308707,0.03530409922376275,0.18053676428915932
1772788935788444700,3.656444580078125,0.16607494381964205,0.03448854505717754,0.19787015813961623
1772788935808478000,3.67647802734375,-0.09501344864666461,0.015117635763436554,0.09530950898379087
1772788935828509700,3.696509765625,-0.3809755856066942,-0.01914396867007017,0.02103352701002732
1772788935848543000,3.71654296875,-0.4013789066880941,0.060130205183476206,0.08802364455824717
1772788935868575000,3.736574951171875,0.014055997881293296,0.10403671305775641,0.2206933633117005
1772788935888608000,3.75660791015625,0.48896600472629065,0.11509542881920932,0.20597621637424454
1772788935908640800,3.776640869140625,0.2918178772509098,-0.019692834724485873,0.09239379506702534
1772788935928672800,3.7966728515625,0.038842064091563225,-0.07065349889397621,0.06819042411553673
1772788935948705800,3.816705810546875,0.23235504993498324,-0.11021773978024721,0.18273774493215605
1772788935968738800,3.83673876953125,0.4461123669058084,-0.07406243055462837,0.376999996506609
1772788935988771000,3.85677099609375,0.4920803373545408,0.013252864804863929,0.31702209580801427
1772788936008803800,3.876803955078125,0.17526479696929453,0.04388254247680306,0.16541268051862715
1772788936028837000,3.896837158203125,0.04196224193871021,0.0640666678495705,0.08018742537409998
1772788936048869000,3.916869140625,0.07680734534859657,0.11546747700199485,0.11141991864424199
1772788936068902000,3.93690185546875,0.16168343086242676,0.13566957642287014,0.1308513533530291
1772788936088934100,3.95693408203125,-0.06928337958455086,0.07148936519622802,0.06950341554339974
1772788936108967200,3.97696728515625,-0.18731939190030097,-0.009954261650890112,0.006189036499010398
1772788936129000200,3.997000244140625,-0.1892261023044586,-0.06894450301900505,-0.0043764341190923005
1772788936149031200,4.01703125,-0.061277183261513705,0.022845453536510466,0.15071398255331442
1772788936169064000,4.03706396484375,-0.16903262458145618,-0.04159472380056977,0.1599885365780443
1772788936189096200,4.05709619140625,-0.11301789189279078,-0.07987184748575091,0.01180933319935575
1772788936209129200,4.077129150390625,-0.16888474054336547,-0.06558584024086594,0.09093157702735624
1772788936229162200,4.097162353515625,-0.12754501441717148,-0.014799655855447054,0.10467709332052617
1772788936249194200,4.1171943359375,0.06145546243786811,0.09513035302460193,0.0895687733747065
1772788936269227000,4.13722705078125,0.2074257758617401,0.12678045978546143,0.047843792524281885
1772788936289260000,4.157260009765625,0.2291413485854864,0.16908859255239367,0.03756002492439001
1772788936309292000,4.1772919921875,-0.023742694637179373,0.1518140710160136,-0.01917571551520377
1772788936329325300,4.1973251953125,-0.15803952140212058,0.05801730468273163,-0.044362909872271115
1772788936349357000,4.217357177734375,-0.07328326287567614,0.03026815088316798,-0.030116558784339574
1772788936369390000,4.23739013671875,0.10359832164049149,0.0948506593003869,-0.054763253056537356
1772788936389423000,4.257423095703125,0.05300035330355167,0.14890826657190917,-0.0667885305615142
1772788936409455000,4.277455078125,-0.22880291041135786,0.08990838059261441,-0.1106459933959879
1772788936429488000,4.297488037109375,-0.03958206880390644,0.04735708671957254,0.09172363158734514
1772788936449521200,4.317521240234375,-0.01926116530895233,-0.012602584202587603,0.03737988258451223
1772788936469553200,4.33755322265625,0.0017436287969350814,-0.06405220093280077,0.0851500253506936
1772788936489586200,4.357586181640625,-0.015269465324282645,-0.016552052480727435,0.019216832976881412
1772788936509619000,4.377618896484375,-0.047046413335204124,-0.03377908161357045,0.033700518218334766
1772788936529651200,4.397651123046875,0.22702596386671064,-0.07501505510434509,0.040897188256774096
1772788936549685000,4.41768505859375,0.1871913816064596,-0.043074294833838934,-0.042326636538002636
1772788936569717200,4.43771728515625,0.030502690291404722,-0.026403292148560284,0.15105052103130145
1772788936589750000,4.45775,-0.04757832825481891,-0.0017320844896137712,0.1567008932095021
1772788936609783300,4.477783203125,-0.13733926320075987,0.007022007591277361,0.09987697216295637
1772788936629815000,4.49781494140625,-0.03372983564436435,0.006656535279750824,0.11129810062916949
1772788936649848300,4.517848388671875,0.11892916176319121,0.023762568381428716,0.10344203510023653
1772788936669881000,4.537881103515625,0.04362988288998604,0.01721037025898695,0.09329894547951408
1772788936689913000,4.5579130859375,-0.06646072337925434,0.06758402832075953,0.026004264627303927
1772788936709946000,4.577946044921875,-0.036435002949833865,0.09222820184230804,0.03865561074190773
1772788936729978000,4.59797802734375,-0.10237024115025997,0.055228258486092086,0.07606769682927988
1772788936750011100,4.61801123046875,-0.04370879334509373,0.10914295015558599,0.08318606833396479
1772788936770044200,4.638044189453125,-0.21973288424909113,0.005945026009529828,-0.06978251561257057
1772788936790076000,4.658075927734375,-0.10728080954551696,-0.004434036924690008,-0.031267993841785933
1772788936810109200,4.678109130859375,-0.07823825493454933,-0.06863339124321938,0.07331592303626239
1772788936830142000,4.698141845703125,-0.04335924925506115,-0.04016995169445872,0.1510143811388407
1772788936850174200,4.71817431640625,-0.005575754305720329,-0.02193491456285119,0.13516823017145507
1772788936870207000,4.73820703125,-0.075333181142807,0.025707564969360826,0.11487113681035116
1772788936890240300,4.758240234375,-0.2827998735368252,0.018489596414566038,0.00602938895788975
1772788936910272000,4.77827197265625,-0.229970200625062,0.034631460659205915,0.026737319009052588
1772788936930305000,4.798304931640625,-0.07451660406291484,0.09604600656479596,0.11945768828247673
1772788936950337300,4.818337158203125,0.04997019182741642,0.10185688480064273,0.15903426806051282
1772788936970370000,4.8383701171875,0.23162732018232343,0.20007818957790732,0.15392956533264368
1772788936990403000,4.858403076171875,0.11408639790713787,-0.06481850913017988,0.13238469126699492
1772788937010435000,4.87843505859375,-0.03826689455211162,0.005955547403544187,0.08409974911278113
1772788937030467800,4.8984677734375,0.021389409509301183,0.025205899057537316,0.16863096671169622
1772788937050500900,4.9185009765625,0.11336743598282337,0.02475435589775443,0.19018570458423345
1772788937070532900,4.938532958984375,0.05004325706362724,-0.03793605516254902,0.07159659756352194
1772788937090566000,4.95856591796875,0.055500353425741195,-0.05466054160073399,-0.008561784379184246
1772788937110598000,4.978597900390625,0.11769582057595253,-0.01869534811973572,0.012874359481828286
1772788937130631000,4.998630859375,-0.04913257195949554,0.05274243301972747,0.09505599088044836
1772788937150664000,5.018663818359375,-0.046695700201392173,0.05627455266863107,0.12648723985939286
1772788937170695700,5.03869580078125,-0.08525134856700897,0.10980024502053856,0.12728037213161586
1772788937190729000,5.05872900390625,0.10857494100928305,0.04177943271771073,0.0875502731591463
1772788937210761700,5.07876171875,0.17141864293515682,0.011748305460810661,0.005952414731541648
1772788937230794000,5.0987939453125,0.12922259224057198,-0.013017594744265079,0.03517928553400561
1772788937250826800,5.11882666015625,0.008543956461548805,-0.009202858761698006,0.15758706492688507
1772788937270858800,5.138858642578125,-0.015232055923342704,0.015862608911842106,0.1429077383823227
1772788937290891800,5.158891845703125,0.0218722245901823,0.038069764544814824,0.1559114415985532
1772788937310924800,5.1789248046875,0.027621581897139546,0.05580021315515041,0.18187654325924812
1772788937330957000,5.19895703125,0.07372340785861015,0.04728782087564468,0.00348122971188277
1772788937350989800,5.21898974609375,-0.12996435051858424,0.006152092888951301,-0.09992391657722181
1772788937371022800,5.23902294921875,-0.1541302390038967,-0.009192775759100914,-0.013428714562114327
1772788937391054800,5.259054931640625,0.038349896660447115,-0.029573300486803053,0.010935399909038097
1772788937411088000,5.279087890625,0.023296119913458823,0.0021203531548380852,0.03593811367782764
1772788937431121000,5.299120849609375,0.00196457807123661,0.00866246827468276,-0.057004949302412566
1772788937451153000,5.31915283203125,-0.02976210105717182,-0.009140899441391228,-0.00882604307224974
1772788937471186000,5.33918603515625,-0.13320260178744792,0.06742708419337869,0.030530400282237677
1772788937491218000,5.359218017578125,-0.2071247470885515,0.0687834672383964,0.08057204991066828
1772788937511251000,5.3792509765625,0.07219079146385192,0.08059168619289994,0.04382702203043736
1772788937531284000,5.399283935546875,0.09350070599615573,0.03170987412407994,-0.06318161037703976
1772788937551315700,5.419315673828125,-0.173419461363554,0.016468611980974674,-0.06767825507600791
1772788937571349000,5.439348876953125,-0.30269056892096996,0.032037644773721695,-0.005888994106510653
1772788937591381800,5.4593818359375,-0.04876315412521362,0.044697804382443425,0.0470964675885858
1772788937611414000,5.4794140625,0.12832944279313085,0.022659867836534977,0.10501922128908335
1772788937631446800,5.49944677734375,-0.0896463686555624,0.04800502923429012,0.03447110073203221
1772788937651478800,5.519478759765625,-0.26850831333398817,0.06366802392080426,0.03907217848643195
1772788937671511800,5.53951171875,-0.13327157537043094,0.06541355241388082,-0.04228387967508752
1772788937691544800,5.559544921875,-0.04962883104383945,0.054974429855495686,-0.0192527856396744
1772788937711576800,5.579576904296875,0.06661679072380065,0.04003215065896511,0.1337311191735789
1772788937731609900,5.59960986328125,0.022151041531562804,0.04931786539852619,0.1549203847345896
1772788937751643000,5.619642822265625,0.06003039807081222,0.05441562692895531,0.11637814383981748
1772788937771675000,5.6396748046875,0.018560323563218115,0.058916445479542015,0.018211185898561962
1772788937791707600,5.659707763671875,-0.08678454948365688,0.04134747104123235,-0.029967044478165915
1772788937811740000,5.679739990234375,-0.22485329600274562,0.05163651760444045,0.017619731944589875
1772788937831773000,5.69977294921875,0.04252104486525059,0.07741933976709842,0.14033979672361163
1772788937851806000,5.719805908203125,0.1300619656741619,0.003769581666588783,0.13974251581705174
1772788937871838000,5.739837890625,0.060222705772519106,-0.03879822494983673,0.15941356796799228
1772788937891871000,5.75987109375,0.09551730651557445,-0.04438742325901985,0.11096148908594622
1772788937911903700,5.77990380859375,0.038970074385404584,-0.042048751178383824,0.12075587486685253
1772788937931935700,5.799935791015625,0.08918225827515125,-0.008796762178838253,0.14845695174098944
1772788937951969000,5.819968994140625,-0.04200666560232639,-0.015914046838134525,0.11611699041929095
1772788937972000800,5.840000732421875,-0.034032617983222005,-0.01713598984852433,0.11244710626751184
1772788937992034000,5.860033935546875,-0.02279869178533554,0.017855244033783673,0.1320403348087333
1772788938012066800,5.88006689453125,0.08977905512452125,0.06334726753383875,0.10926733458708039
1772788938032099000,5.90009912109375,-0.010155483311414719,0.027401217144727704,0.0832220803622622
1772788938052131800,5.9201318359375,-0.01332476099729538,0.022057664159685374,-0.0025153803544119
1772788938072165000,5.9401650390625,0.057491819503903384,0.15849822495505214,0.07993243683287873
1772788938092196900,5.96019677734375,0.00218026664853096,0.01891030604466796,-0.023702070365846154
1772788938112230100,5.980230224609375,-0.08621113350987433,-0.01883124945908785,-0.02866439178122673
1772788938132263000,6.000262939453125,0.09220131383538245,-0.03164280023723841,0.0706866979106795
1772788938152295000,6.020294921875,-0.007152794364094734,-0.14569588039666415,-0.025753678266564384
1772788938172328000,6.040327880859375,0.03847615338861942,-0.14932254646122456,-0.04339535261490382
1772788938192360000,6.06035986328125,-0.0019289222359657287,-0.12717150492966176,-0.00450518876502756
1772788938212393000,6.08039306640625,0.004427168792486191,-0.04200155103579163,0.04932647339666728
1772788938232426000,6.100426025390625,-0.15257248816788196,-0.003736994571238756,0.015991491421940736
1772788938252458000,6.1204580078125,-0.18350772465765475,0.008908990381658077,0.03457240111546125
1772788938272491000,6.140490966796875,-0.05054711493253707,0.1087790852792561,0.08984969094162806
1772788938292524000,6.16052392578125,-0.06888005948066711,0.09933744932562112,0.0807431595607195
1772788938312556000,6.18055615234375,-0.104337741830945,0.09614698272123932,0.0634830547087593
1772788938332588800,6.2005888671875,-0.05772562825977802,0.0615282354131341,0.10207748701507224
1772788938352621000,6.22062109375,-0.06040507660210132,0.044119273842126126,0.18744959415122867
1772788938372654000,6.240654052734375,-0.06588438479602336,0.0480973836928606,0.18196729028262196
1772788938392687000,6.26068701171875,-0.046263738524913785,0.008576981948316097,0.0862564522226341
1772788938412719000,6.280718994140625,0.07159983983337878,-0.006172989546507596,0.08148992280741221
1772788938432751900,6.300751953125,-0.027165070301294326,0.0014244798451662063,0.11808746850835158
1772788938452785000,6.320784912109375,0.06419336296916008,-0.013088614153861998,0.11369825710607692
1772788938472817000,6.34081689453125,-0.042487142595648765,0.006242986042797565,0.0628231477616122
1772788938492850200,6.36085009765625,-0.05878361288011074,0.03708426063880324,0.002348289292352274
1772788938512883000,6.380883056640625,-0.10489245310425757,0.013398849146813153,0.015159127684449776
1772788938532915000,6.4009150390625,0.05335924974381923,0.018597148442268372,0.026565962763829155
1772788938552948000,6.420947998046875,0.10322072049975395,0.016847966687381265,0.10082390675740316
1772788938572980000,6.44097998046875,-0.040402153015136714,0.023091683382540938,0.1253382342210505
1772788938593013000,6.461012939453125,-0.01184065991938114,0.007214753684401512,0.0829930665125139
1772788938613046000,6.4810458984375,-0.05933832415342331,-0.007851590283215045,0.01240110681373626
1772788938633078000,6.501078125,-0.0005079495221376419,0.03715805652737617,0.04538336179407779
1772788938653111000,6.521111083984375,-0.012752514067292213,0.09578574819341301,0.05776125669558532
1772788938673144000,6.54114404296875,-0.1119324347436428,0.07679039421379566,0.1137771310285665
1772788938693176000,6.561176025390625,-0.1394990715831518,0.00110167763158679,0.047839627805817866
1772788938713208800,6.581208740234375,0.01917407154738903,-0.044225364565104244,-0.06634900663308799
1772788938733241000,6.601240966796875,0.2205675815075636,-0.0420377913929522,-0.16236366821154952
1772788938753273900,6.62127392578125,0.17058511472046375,-0.05411094489395618,-0.07782414857516996
1772788938773307100,6.64130712890625,0.04388181182444095,-0.03812105634063482,0.06668769140238873
1772788938793339100,6.661339111328125,0.055364744347333905,-0.032116847489774225,0.15534491202328354
1772788938813372000,6.681371826171875,0.021499884146451948,-0.028736557401716708,-0.007662613899621647
1772788938833405000,6.701405029296875,0.01727086827456951,0.014601941326260566,-0.02555822875970043
1772788938853437000,6.72143701171875,-0.041242110970616336,0.08100815803930163,0.07478300448071677
1772788938873470000,6.741469970703125,-0.02319382858276367,0.13131444995328784,0.1966370726807043
1772788938893503000,6.7615029296875,0.04421849643290043,0.12356135160848497,0.16237199764847754
1772788938913535000,6.781534912109375,0.03850421043932438,0.015945903281122446,0.133545560873067
1772788938933568000,6.801568115234375,0.03154255473315715,-0.009101298083364963,0.008783372974302619
1772788938953600000,6.82160009765625,-0.050963879039883614,-0.01510389949902892,0.13041580234682187
1772788938973633000,6.841633056640625,-0.10671616140007972,0.06902940482348204,0.22912784978309644
1772788938993666000,6.861666015625,-0.06216331844627857,0.03234115776494145,0.11438167279297486
1772788939013698000,6.881697998046875,-0.057496495679020876,0.031087650572508573,0.03651337911540176
1772788939033730800,6.901730712890625,-0.042696985954046245,0.06774257988333701,0.03041835930908564
1772788939053763800,6.921763916015625,0.04034486986994743,0.09149243491366506,0.10231148756719194
1772788939073795800,6.9417958984375,-0.0065688569962978356,0.05682911781147122,-0.025669810791837517
1772788939093828900,6.961828857421875,-0.24309388609230517,0.01786298894882202,-0.08369946121620014
1772788939113862000,6.98186181640625,-0.044779637446999546,0.015816139421612023,0.0212607324951794
1772788939133894000,7.001893798828125,0.015379939961433409,-0.012847791135311126,0.04065085794604383
1772788939153927000,7.021927001953125,-0.08857260194420814,-0.0068066112749278545,0.024000612637714948
1772788939173958700,7.041958740234375,-0.05044716168940067,0.03868541222512722,0.011126938142476138
1772788939193992000,7.061991943359375,0.025188801792263984,0.025246669459342955,-0.05915879830147605
1772788939214024700,7.082024658203125,0.05718319194614887,-0.010309066437929868,-0.10213075157226995
1772788939234057000,7.102056884765625,-0.023229484418034553,-0.011142886913567782,0.025094328441843387
1772788939254089700,7.12208984375,0.017521628165245055,0.03344707318022847,0.01943355360063724
1772788939274123000,7.142123046875,0.011954641687870025,0.04842573886439204,0.09992076563891023
1772788939294155000,7.162155029296875,0.06392097576856613,0.10416194687262177,0.15773290313836186
1772788939314187800,7.182187744140625,0.12724164755642414,0.05196209629699588,0.07558253909426275
1772788939334220000,7.202219970703125,0.03428805404901504,-0.01605199400410056,0.04455576556324958
1772788939354252800,7.222252685546875,-0.031011808857321736,-0.03342880687117576,0.13065790400700644
1772788939374285800,7.242285888671875,0.18194763573408126,-0.06383475878983735,0.10627189736445433
1772788939394317800,7.26231787109375,0.07913198890388011,-0.02549918291568756,0.058412094420287754
1772788939414350800,7.282350830078125,-0.03156944274008274,-0.024368571450561285,0.06479068954149261
1772788939434384000,7.3023837890625,-0.00239420166015625,0.0352855406537652,0.12453823381662368
1772788939454416000,7.322415771484375,-0.0631727877497673,0.053199675267934794,0.07432052436838857
1772788939474449000,7.342448974609375,0.0009580313771963119,0.06366583196371793,0.011119186377571895
1772788939494482000,7.36248193359375,-0.04282441172599792,0.06430544504150748,0.00478374541150406
1772788939514514000,7.382513916015625,-0.24068565590679644,0.06466594891697168,-0.08253076449669897
1772788939534547000,7.402546875,-0.20927403407692907,0.11672551423907279,0.07288782468414864
1772788939554578700,7.42257861328125,-0.07319850720167159,0.065482233735919,0.08807202287777327
1772788939574612000,7.442612060546875,0.07601707175374031,0.05771262264773249,-0.01579087711619213
1772788939594644700,7.462644775390625,-0.08894961856305598,0.009225216723978519,-0.16035515966704114
1772788939614677000,7.482677001953125,-0.09326105202138424,-0.011170067181438207,-0.11445517642060295
1772788939634709800,7.502709716796875,0.07676759786009787,0.007309153969585895,0.05707972243851982
1772788939654743000,7.522742919921875,0.2092161664098501,-0.03262684283852577,0.0450309909927193
1772788939674774800,7.54277490234375,0.1057324110597372,-0.08699979966953396,-0.012504959913855418
1772788939694807800,7.562807861328125,-0.01900280663371086,-0.1364874686770141,-0.029209262080537153
1772788939714840800,7.5828408203125,0.06631693099439144,-0.11346329757273196,0.06069226864618249
1772788939734872800,7.602872802734375,0.06647475190460682,-0.06871712400391697,0.1057093315782491
1772788939754905900,7.62290576171875,0.14126315864622593,-0.05624123492091894,0.09034330141115933
1772788939774937900,7.642937744140625,-0.0764011026352644,-0.033975919359922405,-0.003639187619416043
1772788939794970600,7.662970703125,-0.13518413099348545,0.01782309532985091,0.09240111072380096
1772788939815004000,7.68300390625,-0.07305646838247776,0.06745470285266637,0.20068117870604618
1772788939835036000,7.703035888671875,-0.009800678524374962,0.08818667136654257,0.1601216249058023
1772788939855069000,7.72306884765625,0.03756546828448772,0.06044526248201727,0.09339151913379319
1772788939875101700,7.743101806640625,0.07188391747176646,0.04805047581121325,0.019237108579929916
1772788939895134000,7.763134033203125,-0.0208136554479599,0.020117489877343176,0.07935911219064146
1772788939915167000,7.7831669921875,-0.17222411409914493,-0.002400777531415224,0.12216567773269489
1772788939935200000,7.803199951171875,-0.17517185798883436,-0.03703282271251082,0.05691180939255282
1772788939955232000,7.82323193359375,-0.04754676407277584,-0.025441315248608588,0.10214655192960054
1772788939975264800,7.8432646484375,0.04047872538268566,-0.0018517653465270996,0.09993565268078819
1772788939995297000,7.863297119140625,-0.09245265824794768,0.006356091028451919,0.0352035066598095
1772788940015329800,7.883329833984375,-0.12401625576913355,0.059374710641056296,0.08220034523224458
1772788940035363000,7.903363037109375,0.07326338913142681,0.05565598237887025,0.11775304892221465
1772788940055395000,7.92339501953125,0.12759995947480202,0.027396102578192947,0.15041764822155237
1772788940075428000,7.943427978515625,0.06302315014600754,0.013142244037240743,0.1302584380943328
1772788940095461000,7.963461181640625,-0.06263035143613815,-0.011776947033405304,0.12719128734236582
1772788940115493000,7.9834931640625,0.1409323192566633,-0.05380158668383956,0.1593232228034176
1772788940135525000,8.003525146484375,0.3127051824569702,-0.049248745685070754,0.1033665769775398
1772788940155558100,8.02355810546875,0.06039981590509414,-0.0919835794314742,0.10981200852356851
1772788940175590100,8.043590087890625,-0.09724632226526736,-0.0436411349363625,0.11125753115676343
1772788940195623200,8.063623046875,-0.11227788718044757,-0.0502225591532886,0.10255394542040303
1772788940215655200,8.0836552734375,-0.04377425979673862,-0.020839812802523373,0.08600536353839561
1772788940235688200,8.103688232421876,0.014186930784583092,0.05383855769336223,0.0677872136095073
1772788940255721200,8.12372119140625,-0.1313864922761917,0.07794760142490267,0.06373982878169045
1772788940275753000,8.1437529296875,-0.2892734534651041,0.08471241938471794,0.07343023359831422
1772788940295786200,8.1637861328125,-0.14662147080898283,0.11085209216102956,-0.033939797733770684
1772788940315819000,8.183819091796876,-0.04541150560975075,0.08429667819067835,-0.09881944420034997
1772788940335851300,8.203851318359375,-0.12824644068479538,0.09360548154488206,0.01684633185272105
1772788940355884000,8.223884033203126,-0.06754910313785076,0.06739654292464256,0.054771162368357176
1772788940375917300,8.243917236328125,-0.010562895068526267,0.03891366802304983,0.04703006498860195
1772788940395949000,8.263948974609375,0.15083119745850562,0.001153700079768896,-0.08243458324638195
1772788940415982000,8.283982177734375,-0.040301030728220937,-0.015608780281245708,-0.006317613048432394
1772788940436014000,8.30401416015625,-0.018935586616396903,0.02639481658115983,0.09993237387831322
1772788940456047000,8.324047119140625,-0.11038754338920116,0.05989478899240493,0.11532279870114288
1772788940476080000,8.344080078125,0.1235135669440031,0.054325756688416,0.009393074971018359
1772788940496112000,8.364112060546875,0.16313713680207728,-0.01863192749470472,-0.1166065731676761
1772788940516145200,8.384145263671876,0.10688099657297134,0.00556874004304409,-0.08112044104104861
1772788940536178200,8.40417822265625,0.05096913973689079,0.014367694178968667,0.08807350244880653
1772788940556210000,8.4242099609375,-0.06411445251405239,0.004229892654716968,0.1362174104308244
1772788940576243200,8.4442431640625,-0.05545008454322815,0.00833572053834796,0.1317465029613115
1772788940596276000,8.46427587890625,0.06293196473121643,0.015515402909368276,0.02966473249676637
1772788940616308200,8.48430810546875,-0.05418985534906387,0.03925824367702007,-0.014024872090667485
1772788940636341000,8.504341064453126,0.010516717839241027,0.04409282422661781,0.01244705571415834
1772788940656374300,8.524374267578125,0.1212742635846138,0.06550766043812035,0.134616286243964
1772788940676406300,8.54440625,-0.11325345421433448,0.05623173644021153,0.05898222245844081
1772788940696439000,8.56443896484375,-0.2518582073062658,0.061761167386174196,0.02927242697724141
1772788940716472000,8.58447216796875,-0.1398532918483019,0.037176322836428875,0.06161690007727593
1772788940736504000,8.604504150390625,0.05683247881233692,0.03581146422401071,0.006143425525305792
1772788940756537000,8.624537109375,0.01173661502301693,0.04850479544997215,0.043929057632805774
1772788940776569000,8.644569091796875,-0.14975684622526167,0.029814269635826347,0.06311815321939065
1772788940796602000,8.66460205078125,0.06254793384969234,0.0035810733571648595,0.0478739136679098
1772788940816635100,8.68463525390625,-0.09668810386061667,0.0024245967984199523,-0.06211792666828259
1772788940836667100,8.704667236328126,0.032790508967638014,0.04531725145503878,-0.04819832331668585
1772788940856700200,8.7247001953125,0.15632044252455235,0.03779357795193791,0.0017437657942529767
1772788940876733200,8.744733154296876,-0.09129588942825793,0.014769845239073038,-0.0005328921671491116
1772788940896765200,8.76476513671875,-0.02512625795006752,0.03327288565710187,0.11168729174300096
1772788940916798200,8.784798095703126,0.04488368234336376,-0.0006653320409357547,-0.0012492511424235999
1772788940936831000,8.8048310546875,0.0016267244189977644,-0.01314370534196496,0.04870127700329758
1772788940956863200,8.82486328125,0.08215221350789069,0.036380350153148173,0.13034857319635337
1772788940976896000,8.84489599609375,-0.03329962753355503,0.02855316365882754,0.02009491271935403
1772788940996929300,8.86492919921875,-0.10806582244336604,0.03388298037946224,-0.022184414078202097
1772788941016961000,8.8849609375,-0.03568973754048347,0.05308949289172887,0.060222943234536794
1772788941036993800,8.904993896484376,-0.01991466078162193,0.06492182337418198,0.21094474376812575
1772788941057026600,8.925026611328125,-0.15707213767468928,0.09891557065173982,0.1208070205322001
1772788941077058600,8.94505859375,-0.09758183782994746,0.06698153238296509,-0.05343591344291344
1772788941097091600,8.965091552734375,-0.007528057417273521,0.05032441209256649,-0.02249706022394821
1772788941117123600,8.98512353515625,0.030124504628777502,0.04171893470212817,0.09017118711411021
1772788941137156600,9.005156494140625,-0.016051555612683295,0.019502865110337733,0.1080756131850183
1772788941157189600,9.025189697265626,-0.01431552560031414,0.052730158060044045,0.22463167087500913
1772788941177221600,9.0452216796875,0.030178280642628667,0.013768559242039917,0.17196560929343102
1772788941197254700,9.065254638671876,0.16709025834202765,0.01705254934877157,0.05597747855135239
1772788941217287400,9.085287353515625,0.09698504098057746,0.035839082883298394,0.07468938508024439
1772788941237319700,9.105319580078126,-0.1452817466378212,0.04979220491200685,0.09432410554247908
1772788941257352700,9.125352783203125,-0.12634206836819648,0.04666603571549058,0.08109580892329103
1772788941277385700,9.1453857421875,0.011722001975774764,0.06707169488444924,-0.01291374164414592
1772788941297417700,9.165417724609375,0.06863572933077812,0.010776099427789449,0.013824609411368146
1772788941317450800,9.18545068359375,0.0549509028494358,-0.0639605771265924,-0.15458222055509685
1772788941337483500,9.2054833984375,-0.08730594300925731,-0.09113485364764928,-0.1347084123736713
1772788941357515500,9.225515625,-0.17952186989188193,-0.06229205939248204,-0.031177749141911043
1772788941377548800,9.245548828125,-0.10635492687225341,0.026099048504978416,0.0785418409910053
1772788941397581600,9.26558154296875,-0.0781827253550291,0.05026829799115658,0.06009723449563607
1772788941417613800,9.28561376953125,-0.14136778806447983,0.01055076623931527,0.01583091686563566
1772788941437646600,9.305646484375,0.1698112077385187,-0.05494798023998737,-0.011218545965664089
1772788941457678600,9.3256787109375,0.1440314543157816,-0.12831395296305417,0.048944136715307826
1772788941477711600,9.345711669921876,0.10142039307951926,-0.10461202872768044,0.1630837443807162
1772788941497744600,9.36574462890625,0.20460838035345078,-0.07016688442081212,0.2932910185433924
1772788941517776600,9.385776611328126,0.20658231077492237,0.02666223534569144,0.3228910243740305
1772788941537809700,9.4058095703125,0.07202712533473968,0.06651201517507434,0.1683333537383005
1772788941557842700,9.4258427734375,-0.04952829327881336,0.08041749866977334,0.06886351020466536
1772788941577874700,9.445874755859375,-0.0894891322672367,0.08779431104809045,0.031520799559075385
1772788941597907500,9.465907470703126,-0.1446183142930269,0.11170753994658589,0.04422428685287014
1772788941617940700,9.485940673828125,-0.17586100929677487,0.08703867037519812,0.028506347108725457
1772788941637972500,9.505972412109376,-0.11532032361626625,0.06957914766073227,-0.038209994999412446
1772788941658005800,9.526005859375,-0.12259528305530547,0.026844898436218498,-0.04434405904132872
1772788941678037800,9.546037841796876,-0.17272914101183415,0.011789075862616299,-0.04351599245304241
1772788941698070800,9.56607080078125,-0.07785948475003242,-0.025401129368692633,-0.013037212760187685
1772788941718103600,9.586103515625,-0.00016775778234004974,-0.0015196107827126978,-0.09726130063869058
1772788941738135600,9.606135498046875,0.029911738660931584,-0.05501008569076657,-0.08241787870675325
1772788941758168600,9.62616845703125,0.02369534836411476,-0.09047010612860322,-0.0518891497917939
1772788941778201600,9.64620166015625,0.04031622829735279,-0.1493397898569703,0.09956426208512857
1772788941798233900,9.66623388671875,0.12103811674118041,-0.16539646003618835,0.18519589694030583
1772788941818266600,9.6862666015625,0.3517126662433147,-0.09048661887198686,0.14611772253792732
1772788941838299600,9.706299560546874,0.317670111387968,-0.028071225360780952,0.009996767352055758
1772788941858331600,9.72633154296875,-0.01566401759982109,0.04082943851649761,-0.003035623102542013
1772788941878364700,9.74636474609375,0.03424363038539886,0.11046776901856065,0.08219780621528625
1772788941898397700,9.766397705078125,0.06338380015194416,0.15346622213721275,0.15255851444145663
1772788941918429700,9.7864296875,0.0780652364552021,0.16529782196730375,0.0827646097851917
1772788941938462700,9.806462646484375,-0.2715659473389387,0.1184402092024684,0.007322954166075214
1772788941958494700,9.82649462890625,-0.25156477731764315,0.07703450516797601,-0.023698006112081928
1772788941978527500,9.846527587890625,-0.05456394935846329,0.12259513692483305,0.1280795048863627
1772788941998560800,9.866560791015624,-0.14015373609960077,0.08618767956905067,0.1650510441320017
1772788942018592500,9.886592529296875,-0.06725918028056621,0.02393237199038267,0.03921238610814325
1772788942038626600,9.90662646484375,0.03354103507399559,-0.026790684030950068,0.008030015590041876
1772788942058659600,9.92665966796875,0.1553589040160179,-0.07743994416370988,-0.037521519544906914
1772788942078691600,9.946691650390624,-0.029964345631003378,-0.06877499167099595,0.10218817171477712
1772788942098724600,9.966724609375,-0.04651975911259651,-0.033022125766426325,0.19872536846315486
1772788942118757400,9.98675732421875,0.03135024703145027,-0.015485373097285628,0.08836053922926075
1772788942138789400,10.006789306640625,0.01586275504231453,0.01608845355696976,0.031223917238041757
1772788942158822700,10.02682275390625,0.0012736731976270674,0.06152633571699261,0.015612460942519828
1772788942178855400,10.04685546875,0.0005792611926794052,0.06631283934116364,0.10020300751323812
1772788942198887700,10.0668876953125,-0.10290157154798507,0.057000090464204546,0.11266815600651316
1772788942218920400,10.08692041015625,-0.051659460088610644,0.026490312844887374,0.08315457721715792
1772788942238952400,10.106952392578124,-0.11075754574537276,0.011298004410043357,-0.027220289353560655
1772788942258985500,10.1269853515625,0.022679449319839475,-0.010771204056963324,-0.06534535514903254
1772788942279018500,10.1470185546875,0.06520166322886943,0.007980112033709883,-0.003847222613217309
1772788942299050500,10.167050537109375,0.06643383537232875,-0.00674677084647119,0.14407110133958048
1772788942319083500,10.18708349609375,-0.09855682034194468,0.007597323261201381,0.05713292306363582
1772788942339116500,10.207116455078125,-0.16444412774741649,-0.031120456863567233,-0.022334636203851548
1772788942359148500,10.2271484375,-0.008299626311659812,-0.007210808161646127,0.012696180770173668
1772788942379181300,10.247181396484375,0.03458148403763771,0.009625468087941407,0.08078048676326871
1772788942399214600,10.267214599609375,0.048284430697560304,0.050601986924931404,0.09297891061175614
1772788942419246300,10.287246337890625,-0.14677695363163948,0.011453341102227567,0.06384073187289759
1772788942439279600,10.307279541015625,0.028953122761845588,0.030792247822508213,0.09768173627415672
1772788942459312400,10.3273125,0.06712240215837956,-0.008073197144642472,0.08548807993233204
1772788942479344600,10.3473447265625,0.044321372285485265,0.01084616898931563,0.11469466599859296
1772788942499377400,10.36737744140625,0.07859598233103751,0.02140760275311768,0.0947541401233524
1772788942519409400,10.387409423828124,0.010662263789772987,0.00767623371630907,0.062169748187065124
1772788942539442400,10.4074423828125,0.024467501780390737,0.0025529724184423686,0.03198823440773412
1772788942559475500,10.427475341796875,-0.07395721661448479,-0.009352569430693984,0.021740908094402402
1772788942579507700,10.4475078125,-0.04780687631368637,0.0029351036038249728,0.011928794860560447
1772788942599540500,10.46754052734375,-0.036924832293391226,0.08636318226642906,0.15127205482749267
1772788942619573500,10.487573486328126,0.09011749329864978,0.06354227864928544,0.05415454657366499
1772788942639605500,10.50760546875,-0.12254033799767493,0.05028144973367452,-0.017530980515480042
1772788942659638500,10.527638427734376,-0.13276888654530047,0.03675634385868907,-0.050246360153984274
1772788942679671600,10.547671630859375,-0.09044424103498458,0.06325739729329943,0.051915444143675264
1772788942699703600,10.56770361328125,0.08043956437110901,0.07556509020254015,0.08939973695073276
1772788942719736600,10.587736572265625,0.11217267324030399,0.005777560488134622,-0.0042575843792408705
1772788942739768600,10.6077685546875,-0.11350362958312034,-0.03710165016502142,0.008508117963187395
1772788942759801300,10.62780126953125,-0.002503507253527641,-0.027238939255103466,0.11673291209423914
1772788942779834600,10.647834716796876,0.13588614178299904,-0.0028507863212376833,0.04864970207968727
1772788942799866400,10.667866455078125,-0.10537643722891807,-0.039731998668611046,0.019092293281760066
1772788942819899600,10.687899658203126,0.09237900848984718,0.00833045984134078,0.13640662199314682
1772788942839932400,10.707932373046875,0.04686988772451877,0.019402911867201326,0.0735259125251323
1772788942859964400,10.72796435546875,0.0014110358417034148,0.0628277737043798,0.03190592641914263
1772788942879997400,10.74799755859375,-0.1059019224077463,0.06282696998678147,0.07606246353173628
1772788942900030500,10.768030517578126,-0.01331248603761196,0.04855513739772141,0.036791214242670685
1772788942920062500,10.7880625,-0.038621114817261694,0.07999956551864743,0.06002555749891326
1772788942940095500,10.808095458984376,-0.015295768809318542,-0.003202595433592796,0.05324176084399223
1772788942960128500,10.82812841796875,0.08908347407579421,0.004262114423885941,0.08132000046744942
1772788942980160500,10.848160400390626,-0.024821137523651123,-0.004470715673267841,0.0004966792094521224
1772788943000193500,10.868193603515625,-0.039305589950084686,-0.06580050590485334,-0.013041888935305177
1772788943020226600,10.8882265625,-0.054283378851413724,-0.036284050171822305,0.058300030614249404
1772788943040257500,10.908257568359375,0.20758593485951424,0.035202684675902124,0.12352242610389366
1772788943060290600,10.92829052734375,-0.010847557228803635,0.039782559812068935,0.02579816586226225
1772788943080322600,10.948322509765624,-0.16637597259283066,0.0527453556291759,0.04474334229091182
1772788943100355600,10.96835546875,-0.16348375828266143,0.05320245174691081,0.029331016163527963
1772788943120388600,10.988388671875,0.058581952828168866,0.01961450879126787,0.04691222902890294
1772788943140420400,11.00842041015625,-0.014372808745503425,0.028444223391637203,0.057958505433890965
1772788943160453600,11.02845361328125,0.042781157106161115,-0.04402962279729545,-0.043126134618930514
1772788943180486400,11.048486328125,-0.014487959557771681,-0.018057050216197967,0.03771070370776579
1772788943200518700,11.0685185546875,-0.020635960793495178,0.012930427917465567,0.06617416152283549
1772788943220551400,11.088551513671876,-0.03252572055160999,0.021757000712677835,0.08630865733390673
1772788943240584700,11.108584716796875,0.003505377772450447,0.023395561699941753,0.05735745253451168
1772788943260616400,11.128616455078125,0.07350655023753642,-0.023239494355395435,-0.03958289078781381
1772788943280649500,11.1486494140625,-0.032414076870679855,-0.0027246757235378023,-0.033429500990919764
1772788943300682500,11.1686826171875,-0.14326046994328498,0.04873604692257941,0.10959964441452175
1772788943320714500,11.188714599609375,-0.14507424136698246,0.0810451290488243,0.18572014001011847
1772788943340747500,11.20874755859375,-0.09691197574436664,0.052033700228482485,0.12903097865860907
1772788943360780500,11.228780517578125,0.087384853464365,0.028819048053398726,0.025721666559949515
1772788943380812500,11.2488125,0.19980302589833734,-0.004177431815117597,-0.12152073089266195
1772788943400845600,11.268845458984375,-0.13649521359205244,-0.013614610789343715,0.02553514927821234
1772788943420877600,11.288877685546876,-0.15128186383545397,0.0027675650171935556,0.18797752701546996
1772788943440910600,11.30891064453125,-0.09336042074263096,0.008287278286740184,0.1167934101098217
1772788943460943400,11.328943359375,0.000834112736582756,-0.03532031970620155,-0.02073905584178865
1772788943480975600,11.3489755859375,-0.06931961994171142,-0.0022721096504479646,0.027327750049717724
1772788943501008400,11.36900830078125,0.1960410430163145,0.032312443127110596,0.09206871869796887
1772788943521041700,11.389041748046875,0.0874894828826189,0.08318952066637575,0.12601128377756105
1772788943541073700,11.40907373046875,-0.010381693282723425,0.08527217215932906,0.12889796339608728
1772788943561106400,11.4291064453125,0.06922726548314094,0.06621719694696367,0.10767037511868402
1772788943581139500,11.449139404296876,-0.030500936725735662,0.015109525522217154,0.0011631163620855658
1772788943601171500,11.46917138671875,-0.13761983370780945,-0.014350743044167755,0.052587123727006836
1772788943621204700,11.489204833984376,-0.062057519984245295,0.022470044352859257,0.04442816626136191
1772788943641237500,11.509237548828125,0.0337760128736496,0.009140607180446386,0.03498281311383471
1772788943661269500,11.52926953125,-0.11464110918045044,-0.0038932080462574957,0.0035003180048428476
1772788943681302500,11.549302490234375,-0.04060439758896828,-0.008718217049911619,0.05886865168190561
1772788943701335600,11.56933544921875,0.058066989043354986,-0.00134578858576715,0.0815280080617871
1772788943721367600,11.589367431640625,0.06120470254719257,-0.016640972873196005,-0.04281014573862776
1772788943741400600,11.609400634765626,-0.15224690947532654,0.023330898965895176,-0.0010470705006737262
1772788943761433600,11.62943359375,-0.04444236831665039,0.045030835729092354,0.08005457450835965
1772788943781465600,11.649465576171876,0.01855973904132843,0.059119786031916734,0.09638550418484955
1772788943801498400,11.669498291015625,-0.00042728550136089324,0.03554024606719613,0.04768951527802273
1772788943821530600,11.689530517578126,0.15679039812386034,0.019208339143171906,0.07981742301792837
1772788943841563400,11.7095634765625,0.0673819298774004,0.02113514248728752,0.033007074327766894
1772788943861596700,11.7295966796875,-0.13552432273328305,0.012655629564076662,0.021385948043735697
1772788943881628400,11.74962841796875,-0.10698211885988712,0.03248991858586669,0.09866300239646807
1772788943901661700,11.76966162109375,0.06788169609308242,-0.008536138481274247,-0.057369462632713836
1772788943921694500,11.789694580078125,0.04865326400995254,0.00790792358033359,-0.007813450229912996
1772788943941726500,11.8097265625,0.03197510093152523,0.006722513188049197,0.01979548224820755
1772788943961759500,11.829759521484375,-0.08906886102855205,-0.04608947793655097,0.03963052018866874
1772788943981792500,11.84979248046875,-0.06557166558504104,-0.0298288096178323,0.02476233827481046
1772788944001824500,11.869824462890625,-0.009462824872136115,-0.017331585485860706,-0.04330236796867102
1772788944021857500,11.889857421875,0.027546763095259663,0.03591185585856437,0.048248199473554264
1772788944041891300,11.909891357421875,0.04787584989666938,0.0856903975713998,0.157247749969922
1772788944061923600,11.929923583984374,-0.04477905292510986,0.07846176149211824,0.07045152831478044
1772788944081956400,11.949956298828125,-0.23795827676951883,0.011850962117686867,0.003525415913481265
1772788944101989600,11.96998974609375,0.10738894609510898,0.020450082832574844,0.09427287767874076
1772788944122021400,11.990021484375,0.28781799395978447,-0.019534794618561863,0.06612521694772877
1772788944142054400,12.010054443359374,0.18704992730915546,-0.07963350868523121,0.10819222530201077
1772788944162087400,12.03008740234375,-0.11051496916115283,-0.06449030008912086,0.04403862808765843
1772788944182119400,12.050119384765624,-0.156457220646739,-0.0330476255338639,0.03453007351080887
1772788944202152400,12.07015234375,-0.04595686453282833,0.040272681416571136,-0.0730849729577545
1772788944222184400,12.090184326171874,0.016922493228316307,0.03860321383439004,-0.0010000804206356407
1772788944242217200,12.11021728515625,-0.039137247645854946,0.05233611724115908,0.06493744106842204
1772788944262250500,12.13025048828125,-0.11542962920963763,0.04845204234942794,0.026022622267901897
1772788944282282200,12.1502822265625,-0.08212240289151668,0.03412007707096636,0.018531773322168738
1772788944302315500,12.1703154296875,-0.1346498779863119,0.020530966049060226,0.015513393615372477
1772788944322348300,12.190348388671875,-0.08469605277180671,0.0488446949288249,0.13193152240570633
1772788944342380500,12.210380615234374,-0.12843933290839193,0.060497723321616646,0.1018654699658975
1772788944362413300,12.230413330078125,-0.18515023116767407,0.04454933582246303,0.03470547574348747
1772788944382446300,12.2504462890625,-0.05220832614302635,0.013316650756075977,0.022948219791240988
1772788944402478300,12.270478271484375,0.1448977157562971,0.07519311508499085,-0.031218848337279632
1772788944422511400,12.290511474609374,-0.061302902224659915,0.06529058362133801,0.11469842885825782
1772788944442544400,12.31054443359375,-0.07578034038841724,0.04108005227670073,0.15407100136363877
1772788944462576400,12.330576416015624,0.008318331012129783,-0.006712357120215892,0.06205969367502257
1772788944482609400,12.350609375,0.1446019476801157,-0.04231017859354615,0.0050005664999596775
1772788944502642400,12.370642333984375,0.026488778474926946,-0.016065657203271983,0.06429117905413731
1772788944522674400,12.39067431640625,-0.03364683353602886,0.016050824960321185,0.15735491840513421
1772788944542707500,12.41070751953125,0.13717910420298576,0.019126944470033047,0.1271032802653499
1772788944562740200,12.430740234375,0.10242693977355956,-0.012857143485546112,-0.007531299687130376
1772788944582772500,12.4507724609375,0.02643383341729641,-0.03693082364276051,-0.027983674941491333
1772788944602805500,12.470805419921875,0.03415361401438713,-0.04806172785758972,0.030907617830485103
1772788944622838500,12.490838623046875,0.004456979408860206,-0.02910860558450222,0.07687682125507854
1772788944642870500,12.51087060546875,-0.027350363740324974,0.011448957188054918,0.09860358209311962
1772788944662903300,12.5309033203125,0.020879121899604797,0.0337834655277431,0.101667928966647
1772788944682936300,12.550936279296875,0.011263152292370796,0.05629888339228928,0.06058615052374079
1772788944702968300,12.57096826171875,0.046748307171463964,0.07637764869444072,0.014251620918093249
1772788944723001600,12.591001708984376,-0.16150398264229296,0.0364702934589237,0.015529741961974649
1772788944743034400,12.611034423828125,-0.15418927571475505,-0.003702653910219669,-0.02692167173316702
1772788944763066400,12.63106640625,-0.03931318873465061,-0.024585063745453953,-0.011507400243869051
1772788944783099400,12.651099365234375,0.007201894202828407,-0.03989887966811657,0.034313836944242934
1772788944803131400,12.67113134765625,0.13335107034742832,-0.03639547465704381,0.01727345295730047
1772788944823164400,12.691164306640625,-0.004226677784323692,-0.049152737964689726,0.0021593151920475066
1772788944843197400,12.711197509765626,-0.22844050683975217,0.005849675876274704,0.046055639599030834
1772788944863229400,12.7312294921875,-0.13186287761628626,0.05376563858762383,0.18705615612054244
1772788944883262500,12.751262451171876,0.006489946541190147,0.08547755853831768,0.14623069052626378
1772788944903295500,12.77129541015625,0.0729021546036005,0.07909713678620756,0.022360702226869762
1772788944923327500,12.791327392578125,0.00418926838338375,0.03693235801272094,-0.042645867688162246
1772788944943360300,12.8113603515625,-0.10347381847798824,0.05579371034912765,0.04781623779707588
1772788944963393500,12.8313935546875,-0.23181962788403032,0.07377345754541456,0.10451706218691542
1772788944983425300,12.85142529296875,-0.19581191043555735,0.050134296347945924,0.06685242611058057
1772788945003458600,12.87145849609375,-0.0435574021756649,0.06937602630406618,0.1159409488657955
1772788945023491300,12.8914912109375,0.2948193971544504,0.029978374156355857,0.08159841555003076
1772788945043522800,12.911522705078125,0.18528817833364009,-0.01651113594844937,0.029823731583915648
1772788945063555800,12.931555908203125,-0.12166764681637286,-0.04602598424628377,0.05685173150207847
1772788945083588900,12.9515888671875,-0.07455635155141353,-0.03438113915994763,0.028645910843042657
1772788945103621000,12.97162109375,0.01872048256099224,-0.048940848779678345,-0.009965175770549103
1772788945123654000,12.99165380859375,0.01553074660897255,-0.006027589726448059,0.08601501728272996
1772788945143687000,13.01168701171875,0.15302315454483031,0.047857729718089104,0.1095719709563069
1772788945163719000,13.031718994140626,0.10540507880151272,0.0014908230796456337,0.020079824748076496
1772788945183752000,13.051751953125,0.08386544716656208,-0.025273265205323695,0.027568280807323754
1772788945203785000,13.071784912109376,-0.11934884847998618,-0.021558044074475764,0.08288127670111134
1772788945223817000,13.09181689453125,-0.2763829922318458,0.043587212792038914,0.184021775127016
1772788945243850000,13.11185009765625,-0.09422668218314648,0.0738641315035522,0.19349524925732983
1772788945263882800,13.1318828125,0.2297434061318636,0.04321501847878098,-0.022355386730935425
1772788945283914800,13.151914794921876,0.30068215170800683,0.01864040306210518,-0.07765275579732843
1772788945303948000,13.171947998046875,-0.13071370758116244,0.009300912308692932,-0.03315827370095067
1772788945323980800,13.191980712890626,-0.27328035004138945,-0.021082243256270883,0.03781459334050305
1772788945344013000,13.212012939453125,0.0010445406168699263,0.013245266020298003,0.12577578538809903
1772788945364045800,13.2320458984375,0.179161804407835,-0.009714753806591033,0.004342650580499321
1772788945384079000,13.2520791015625,0.14096972865760327,-0.05155497680082917,-0.0879868836112786
1772788945404110800,13.27211083984375,0.03377659739553928,-0.03390183121040463,-0.07091718219830655
1772788945424144000,13.292143798828125,-0.21827567117810248,0.012387041755765675,0.07293131676600315
1772788945444177000,13.312177001953126,0.08054010213613509,-0.0023823650918900967,0.07528189848014154
1772788945464209000,13.332208984375,0.16224164926707743,-0.02736789939701557,0.024267513095727188
1772788945484242000,13.352241943359376,-0.06997136184871196,0.011934914074093103,0.02127247773190029
1772788945504275000,13.37227490234375,0.12515022823512553,0.041497693166881795,0.044656632121838624
1772788945524307000,13.392306884765626,0.04035714482963085,0.04907397364005446,0.07293130763284862
1772788945544340000,13.412340087890625,-0.016553075394034385,0.02825578814744949,0.029638986134156584
1772788945564373000,13.432373046875,-0.13548749785423278,0.08331497367694973,0.19886850326089187
1772788945584405000,13.452405029296875,-0.03434884432554245,0.08417860476896166,0.26831633442584424
1772788945604437800,13.472437744140626,-0.0038712884753942488,0.05330854246988892,0.09589551957766525
1772788945624471000,13.492470947265625,-0.13867080406546592,0.008629735048860311,-0.030593638244178146
1772788945644502800,13.512502685546876,0.09354805226922035,0.006795797619968652,-0.026748342726565896
1772788945664536000,13.5325361328125,0.15912497855126856,-0.025815847649425266,0.00999215510901995
1772788945684568800,13.55256884765625,-0.06883622033894062,-0.04127352902218699,0.04620044576404616
1772788945704600800,13.572600830078125,-0.17549509859383106,-0.04763590366095304,0.039675482708401974
1772788945724633900,13.5926337890625,-0.06722410896718502,-0.05021159936785698,0.02628837879830971
1772788945744667000,13.6126669921875,-0.139603116479516,0.01895925975292921,0.009571600742544978
1772788945764699000,13.632698974609376,-0.003448679149150848,0.0874962048843503,0.04402598780179396
1772788945784732000,13.65273193359375,0.17484335668683051,0.0921428616464138,0.010528463075961917
1772788945804765000,13.672764892578124,0.04601356315612793,0.0326877792455256,0.007110727054346353
1772788945824797000,13.692796875,-0.08273381278812884,0.04846095630824566,0.18978727985117583
1772788945844829700,13.71282958984375,-0.05399404051601887,0.0660736237578094,0.2423353228099644
1772788945864862000,13.732862060546875,0.04393558783829212,0.05018792623132467,0.19096425120867788
1772788945884894700,13.752894775390626,0.13540741835534573,0.03435615084916353,0.10891313258823938
1772788945904928000,13.772927978515625,0.1228641631245613,0.012227759540826081,0.07861940887239761
1772788945924960000,13.7929599609375,-0.1729056666225195,0.0421343105699867,0.07039864735007285
1772788945944993000,13.812992919921875,-0.07741875524520873,0.04539871919341385,0.07052692250539548
1772788945965025800,13.83302587890625,0.07550853770971298,-0.0067289429288357495,-0.0006118482880294322
1772788945985057800,13.853057861328125,-0.10384265179038048,-0.06401289183571934,-0.11411122182114049
1772788946005091000,13.873091064453124,-0.19031272849738598,0.009809007961302995,0.004010724345548078
1772788946025123800,13.893123779296875,0.08562778066396713,0.025248423025012016,0.06746876791063695
1772788946045156400,13.91315625,0.1899409725755453,0.030645678958669303,-0.02088778013009578
1772788946065189000,13.933189208984375,-0.03774199389517307,-0.05974829319380223,-0.09352833378859796
1772788946085222100,13.95322216796875,-0.20416823537051676,-0.020287001225352284,-0.029391148852929472
1772788946105254100,13.973254150390625,-0.10335925218760966,0.0018075608786195516,0.10400188833954743
1772788946125287200,13.993287109375,0.11627367881834506,0.06621800066456199,0.17344704349022358
1772788946145320200,14.0133203125,0.1342097330033779,0.05025047007352113,0.0497309123119805
1772788946165352400,14.0333525390625,-0.13509762175381182,0.058364218424260615,-0.021043071156507356
1772788946185385200,14.05338525390625,-0.09738660751879215,0.07125650628842413,-0.018717295090062543
1772788946205418200,14.073418212890624,0.02071954742372036,0.059728054123371836,0.04254670902946964
1772788946225450200,14.0934501953125,-0.037435119903087614,0.050290582888200874,0.1330745001620613
1772788946245483300,14.113483154296874,0.015056114834547041,0.05657835792079568,0.0017804628091398626
1772788946265516300,14.133516357421875,-0.0724924047589302,0.03975910587124526,-0.0050405514504760504
1772788946285548300,14.15354833984375,-0.1466536195129156,0.04287321930378675,-0.04537858972083777
1772788946305581300,14.173581298828125,-0.13570669356286524,0.061929582755640145,0.07619747895509936
1772788946325614300,14.1936142578125,0.14514847564697264,0.05251907259263098,0.011518789287563412
1772788946345646000,14.21364599609375,-0.028783611413836476,-0.001331686995178461,-0.04503810572009533
1772788946365679400,14.233679443359375,-0.3078717709511518,-0.017574673526734114,0.029368699559103695
1772788946385712000,14.253712158203125,0.1307587157666683,0.0629722967416048,0.14813653328074142
1772788946405744400,14.273744384765624,0.17589666513204574,0.013838482673093675,-0.06001518223537132
1772788946425777200,14.293777099609375,-0.08303425703942775,0.016459624956920743,0.0014930150367319583
1772788946445810400,14.313810546875,-0.08313070315122603,0.01900463326461613,0.09003239056477323
1772788946465842200,14.33384228515625,-0.013401917886734008,-0.005649988585710525,0.13826624185256658
1772788946485875200,14.353875244140625,0.29083938760757444,0.05300407963059842,0.1490408982419409
1772788946505908200,14.373908203125,0.19078852931559084,-0.003344341991841793,0.043438945161458103
1772788946525940200,14.393940185546874,-0.02034486889243126,-0.019632409774139523,0.02636296013817191
1772788946545973200,14.41397314453125,-0.025886720928549763,-0.00044613633230328555,0.006834887521341443
1772788946566006300,14.43400634765625,-0.006734861212968826,-0.009084346948564052,0.020277393146790564
1772788946586038300,14.454038330078125,0.021582301732897758,0.0270643133405596,0.11212171023804694
1772788946606071300,14.4740712890625,0.06099135205745697,0.03449650916792452,0.08145887921517714
1772788946626104300,14.494104248046876,-0.13554068934619426,0.005776245313882827,0.022378603209741412
1772788946646136300,14.51413623046875,-0.12190496270358561,0.019518939462304114,-0.03288173091504722
1772788946666169000,14.534169189453126,-0.06551087530851364,-0.00093655019775033,0.03854516350422054
1772788946686202400,14.554202392578125,0.022516952234506605,0.01297331721112132,0.01600040994733572
1772788946706234000,14.574234130859375,-0.13606792809069157,-0.04447729349955916,-0.04821648002788424
1772788946726267400,14.594267333984375,-0.1444359434634447,-0.020647358970344067,-0.03214565345915034
1772788946746300200,14.614300048828126,0.09402794474065303,0.014041530964523553,-0.006409337319340557
1772788946766332200,14.634332275390625,-0.005786766707897186,0.028930034147202965,0.0000944368178024888
1772788946786365200,14.654365234375,-0.11474106242358684,0.06881218187622726,0.07163386996714398
1772788946806398200,14.674398193359375,-0.10969079329669475,0.0825046802073717,0.08660102787660434
1772788946826430200,14.69443017578125,-0.11816343808770179,0.05289068238399922,0.0628237551163882
1772788946846463200,14.714463134765625,-0.13954291072487832,0.021699279176071284,0.09790871343044563
1772788946866496300,14.734496337890626,0.03398994788527489,0.04847279287651181,0.1622744555581361
1772788946886528300,14.7545283203125,0.17409984484314917,0.025750746523961424,0.09994266694346442
1772788946906561000,14.77456103515625,0.06074409929811954,-0.004350596424937248,0.013330131292156874
1772788946926594300,14.79459423828125,-0.10200608401298522,-0.037628012126684186,0.036184060396067794
1772788946946626300,14.814626220703126,-0.0920382322281599,0.004229746524244547,0.13304138334374874
1772788946966659300,14.834659423828125,0.09594400749504566,0.014184300436079501,0.16538182872263713
1772788946986692000,14.854692138671876,0.11607786398530005,0.012395151996985078,0.027124701758287847
1772788947006724400,14.874724365234375,0.013383797708153724,-0.0018918050959706306,-0.017167334834858775
1772788947026757000,14.894757080078126,-0.11794716498851776,-0.0034044016160070896,0.037287217598687854
1772788947046790000,14.914789794921875,-0.0802957719862461,-0.024580679831281302,0.06663830843586474
1772788947066822100,14.934822265625,0.1353606566041708,0.005110840207710862,0.06970655516637489
1772788947086855000,14.95485498046875,0.20577567056715487,0.007474573664367198,0.026760964746121316
1772788947106888000,14.974887939453126,0.06907353622615336,-0.0019108751226216553,-0.017262045647297053
1772788947126920000,14.994919921875,-0.14269640631973743,-0.02514123632349074,-0.05299670004174113
1772788947146953200,15.014953125,-0.1626870549470186,0.004025236928090453,0.06812741448245942
1772788947166986000,15.034986083984375,0.025389292800426483,0.03944967459589243,0.1282164291390218
1772788947187018000,15.05501806640625,0.08406652269661426,0.0442365435462445,0.10408811445143074
1772788947207051000,15.075051025390625,-0.031005963638424873,-0.013246800390258431,0.0011134594009257852
1772788947227084000,15.095083984375,-0.10175707768797874,-0.025375264275074003,-0.054933421991672365
1772788947247116000,15.115115966796875,-0.049095747080445284,-0.005206628732383251,-0.010173439093213528
1772788947267149000,15.135149169921876,0.0041249709755182265,0.03995280181244015,0.132679655625578
1772788947287182000,15.15518212890625,-0.08383855915963649,0.04635748122297227,0.14312277850564567
1772788947307214000,15.175214111328126,-0.10032032288312911,0.013831176149472593,-0.05146258580964058
1772788947327246800,15.195246826171875,0.027018939828872678,-0.014134981401637195,-0.10068851687470451
1772788947347280100,15.215280029296874,0.06893617358207703,-0.03879661751464009,0.023768431866634635
1772788947367312000,15.235311767578125,0.10285013362169265,-0.04243599693030119,0.10637673684526235
1772788947387345200,15.25534521484375,-0.061601592910289764,-0.014895152119174599,0.05509571814760565
1772788947407378000,15.2753779296875,-0.05861585509777069,0.006844678262993693,0.05906314220754429
1772788947427410000,15.295409912109376,-0.03314882088601589,0.009592442601174115,0.13558920466303825
1772788947447443000,15.31544287109375,0.068104398933053,0.07928966368362307,0.11946065655769779
1772788947467476000,15.33547607421875,-0.0638829818457365,0.06950747066400945,0.07561850089021027
1772788947487508000,15.355508056640625,-0.1758247689396143,0.015209697961062193,0.0668651577279903
1772788947507541000,15.375541015625,-0.0953887116998434,0.06316248555146158,0.09037260057087987
1772788947527574000,15.395573974609375,-0.0031038112342357633,0.0479819406196475,0.14420735887195915
1772788947547606000,15.41560595703125,0.04195522767603397,0.051762482071667906,0.03411781204864382
1772788947567638800,15.435638671875,-0.2809159594863653,0.016998992530629038,0.029239757683500647
1772788947587672000,15.455672119140624,-0.10424480285048485,0.03259469413459301,0.08228007767125964
1772788947607703800,15.475703857421875,0.04759118773639202,0.023725451241433618,0.0523163713610731
1772788947627737000,15.495737060546874,0.1263712944626808,-0.018941797161474823,-0.0023147614820860324
1772788947647769900,15.515769775390625,-0.08967033405303955,-0.01569251304194331,0.011693853593524544
1772788947667802000,15.535802001953124,-0.2890513351470232,0.03686206925548613,-0.002477770024072379
1772788947687835000,15.5558349609375,-0.10386252553462981,0.07412504746206104,0.05526974127395078
1772788947707868200,15.5758681640625,0.15381342813968657,0.04366919198706746,0.008274327473621815
1772788947727900000,15.59589990234375,0.11304711798727511,0.0019755378566682336,-0.06547542040264234
1772788947747933000,15.615932861328124,-0.13340250827372074,-0.013660568822920322,0.05409209406301379
1772788947767966000,15.635966064453125,-0.167824417835474,0.003333016880229115,0.11540990159586072
1772788947787998000,15.655998046875,0.12037468439638614,0.016393281722441314,0.033505762831214814
1772788947808031000,15.676031005859375,0.16101239973306655,0.03038680882677436,-0.0384689016639255
1772788947828064000,15.69606396484375,-0.06763736594319343,0.03870762405693531,0.04216054098978638
1772788947848096000,15.716095947265625,-0.09667056820392608,0.025667671350389717,0.09784204140240325
1772788947868129000,15.73612890625,0.06050093819200992,-0.0006404167953878641,0.014786997303273527
1772788947888161800,15.756161865234375,0.12812953630685806,-0.01970145642235875,-0.03175948541946709
1772788947908194000,15.776194091796874,0.1172480768084526,-0.03408288686573505,0.03955178326349705
1772788947928227000,15.79622705078125,0.03570727319717407,-0.024986703348904845,0.06512386701861396
1772788947948260000,15.816260009765625,-0.07096563358306884,0.0071698185641318555,0.07163107522185891
1772788947968292000,15.8362919921875,0.03967033160924911,0.022808847853168845,0.05402050839783624
1772788947988324900,15.856324951171874,0.26508652219176293,-0.015332155296951531,-0.019279011492896823
1772788948008358000,15.87635791015625,0.05035130009949207,-0.026700156203284857,0.04887136374004185
1772788948028390000,15.896389892578124,-0.11813479651510715,-0.026668518956005572,0.09498754702042787
1772788948048422400,15.91642236328125,-0.14885551347136497,0.08239975852817297,0.16562484369827432
1772788948068455400,15.936455322265624,-0.10085282232463359,0.1251770431768149,0.06801021784357726
1772788948088487400,15.9564873046875,-0.07793605711758136,0.06017112171575427,-0.01569676909195259
1772788948108520200,15.976520263671874,0.1272077452868223,0.028470673007145522,0.02248871252071112
1772788948128553500,15.996553466796875,0.01373860249519348,0.0011093494813889265,-0.06816630345443263
1772788948148585200,16.016585205078126,0.12930150269567967,-0.028372400264441964,-0.10920991444457322
1772788948168618500,16.036618408203125,0.04301438134014606,0.0280033477563411,0.026556290753185746
1772788948188651300,16.0566513671875,-0.07572247272133827,0.002117942002043128,0.10220124125890433
1772788948208683300,16.076683349609375,-0.10124211390316486,-0.008994038316607474,0.006256576176732778
1772788948228716300,16.09671630859375,-0.008246434819698334,0.018674159201234577,-0.009450476847216486
1772788948248749300,16.116749267578125,0.028220716834068297,0.008778203608840704,0.008425809974595903
1772788948268781300,16.13678125,-0.020965046617388725,0.016748378770425915,0.058598355973698196
1772788948288814300,16.156814453125,-0.06761983028650283,0.028850904496386647,0.04044705160278827
1772788948308847400,16.176847412109375,-0.012625088295340538,0.05154810866862535,0.13973119983859358
1772788948328880400,16.19688037109375,0.00431260250210762,0.10846906948201358,0.05372253009825945
1772788948348912400,16.216912353515625,-0.22498539794981479,0.07593750371150672,0.04561605173852294
1772788948368945400,16.2369453125,-0.13810907852947713,0.060688642783835525,0.11191544707622378
1772788948388978400,16.256978515625,0.11721066740751265,0.10191263357587158,0.07884842272214591
1772788948409010400,16.277010498046874,0.23562837251722812,0.036081367206573484,-0.06254135797843337
1772788948429043200,16.297043212890625,0.06433540178835391,-0.055321270531788466,-0.0063252574987709516
1772788948449076500,16.317076416015624,-0.03906359788775444,-0.06437799882106483,0.04302077454831451
1772788948469108200,16.337108154296875,-0.06735153473913669,-0.07023965739607811,0.08473897859808056
1772788948489141500,16.3571416015625,-0.016435001972317696,-0.05134316068105399,0.04900755734033882
1772788948509174300,16.37717431640625,0.07218202363550663,-0.037584246050193906,-0.03350556190181524
1772788948529206300,16.397206298828124,0.12947569021880626,-0.054540130091458555,0.008919146449491381
1772788948549242400,16.417242431640624,0.1977490159779787,0.019196648705378173,0.06496975416913628
1772788948569275400,16.437275390625,0.10374036045968532,0.026346374329552055,0.08692085268180817
1772788948589307400,16.457307373046874,-0.02651917361319065,0.005197057186439633,0.10284940296933054
1772788948609340400,16.47734033203125,-0.09945523048639297,-0.034200083504617215,0.13457505918443202
1772788948629373200,16.497373291015624,0.009388006070256232,-0.03336443639807403,0.16957999279852956
1772788948649405400,16.517405517578126,0.09946750544607638,-0.006103139180690049,0.12193378693927079
1772788948669438500,16.5374384765625,0.1039285765081644,-0.013979498578980565,0.04413969557564705
1772788948689471200,16.55747119140625,-0.012770634245872497,0.005571443456783891,0.09758994807116687
1772788948709504300,16.577504150390624,-0.1526315248787403,0.02838087583184242,0.12351879110839217
1772788948729536300,16.597536376953126,-0.11703823345005511,0.0683351389490068,0.12228139480054377
1772788948749569500,16.617569580078126,-0.1006605146229267,0.07372691498994827,0.05275836124122142
1772788948769602300,16.637602294921876,0.15374387003481388,0.0650212651606649,0.1156953674737364
1772788948789634600,16.657634521484376,0.11568214266598224,0.02146707785539329,-0.015580759763158857
1772788948809667300,16.677667236328126,-0.10980477506518363,-0.0007586363475769758,0.002974595363996923
1772788948829700400,16.697700439453126,-0.3046738516926765,0.044968438017368315,0.12125062698069959
1772788948849732400,16.717732421875,-0.021869886502623555,0.0074350453715771436,0.13598463372141123
1772788948869765400,16.737765380859376,0.331402284142375,0.0029670331120491026,-0.03316650267317891
1772788948889798400,16.75779833984375,0.04044716120064258,-0.0656921501595527,-0.06116458973251283
1772788948909830400,16.777830322265626,-0.21689210786521435,-0.02507562374137342,0.02063800662010908
1772788948929863400,16.797863525390625,-0.19170798224806784,0.004825812721252441,0.08089603943433613
1772788948949896400,16.817896484375,-0.01917173345983028,0.060042746095731854,0.08764470997694879
1772788948969928200,16.83792822265625,0.22876608553230762,0.024755524941533803,0.007869454733468591
1772788948989961500,16.85796142578125,0.18483400482535361,0.019814926734194157,-0.026046295404434202
1772788949009994200,16.877994140625,-0.08371522504091262,-0.02013480633832514,-0.05817435840796679
1772788949030026500,16.898026611328124,-0.249114461556077,0.008924918603152036,0.08071673734467476
1772788949050059800,16.918059814453127,0.017540917387604712,0.05901975972354412,0.07403736917860805
1772788949070092800,16.9380927734375,0.09337795639932155,0.04222973376847804,0.010207578824833035
1772788949090124800,16.958124755859377,-0.024186346751451492,-0.003210413413867354,-0.03551620760448277
1772788949110158000,16.978157958984376,-0.011931260812282561,0.0008253449082374572,-0.048792709013260896
1772788949130190800,16.99819091796875,-0.08085282134711742,0.005635886995121836,-0.018915530209057032
1772788949150222800,17.018222900390626,-0.05672492678463459,0.003236863029375672,-0.005228475238010287
1772788949170256000,17.038255859375,0.005877367600798607,0.0019852555330842733,0.01651259725317359
1772788949190289000,17.058288818359376,-0.015808394506573675,0.012769246006384492,0.07153550589289516
1772788949210322000,17.078322021484375,-0.034086393997073174,0.03280241860114038,0.03798102681543678
1772788949230354000,17.09835400390625,-0.0730628981232643,-0.011415858636051416,0.032518231364898384
1772788949250387000,17.118386962890625,0.0787403592377901,-0.03519450136944651,0.06348788158092647
1772788949270419700,17.138419677734376,0.14523966106176375,-0.04373794637434184,0.08335157936029136
1772788949290451700,17.15845166015625,0.03143558722734451,0.002856193148717284,0.15445925176255404
1772788949310485000,17.178485107421874,-0.04198211568295956,0.04843260699659586,0.18512253944315016
1772788949330517800,17.198517822265625,-0.12654840459525585,0.07251593176499009,0.1162340774603188
1772788949350550000,17.218550048828124,-0.0629202742934227,0.09773564015217125,0.10796305618863553
1772788949370582800,17.238582763671875,0.03975625632703304,0.08297419741526245,0.13538060341365635
1772788949390616000,17.258615966796874,0.08012859872579574,0.03502469776049256,0.09531323531083762
1772788949410647800,17.278647705078125,-0.045533086162805554,0.008549436354264616,0.11522395056970416
1772788949430680800,17.298680908203124,-0.11261106465756893,-0.02653356746472418,0.050727513000741596
1772788949450713900,17.3187138671875,-0.05898819554150104,-0.06973828374519944,-0.06438512268159538
1772788949470745900,17.338745849609374,-0.03899462430477142,-0.013220716100931167,-0.008535480894148349
1772788949490779000,17.35877880859375,0.03731529291570186,0.02005830703601241,0.03749360862467438
1772788949510812000,17.37881201171875,0.11043956583738326,-0.01765526448227465,0.04889006844051182
1772788949530844000,17.398843994140623,-0.007856558719277382,-0.03567008299194276,-0.031423385332897305
1772788949550877000,17.418876953125,-0.12510638909339905,-0.02657061153948307,-0.053298897858709095
1772788949570910000,17.438909912109374,-0.09933540349900721,0.02142082756087184,0.017553484608232976
1772788949590942000,17.45894189453125,-0.011848258703947066,0.06357245459184051,0.16981201145611702
1772788949610974700,17.478974609375,0.05461421824097633,0.08020210235342383,0.14965057283919303
1772788949631008000,17.499008056640626,0.023297873479127883,0.053126975357905025,0.10454791398290544
1772788949651039700,17.519039794921873,0.015462942069768905,0.03744198803529143,0.0439233128786087
1772788949671073000,17.539072998046876,-0.16625088490843773,0.027858605523407458,0.07496369024328887
1772788949691105800,17.559105712890624,-0.06456044271588325,0.04888751115724444,0.09331778717730194
1772788949711137800,17.5791376953125,0.05368249034881591,0.0526440872117877,-0.0033468992751091715
1772788949731170800,17.5991708984375,0.19836685561537742,0.006689268505573272,-0.09985548185035585
1772788949751203800,17.619203857421876,-0.08244272088706493,-0.0037875557146966454,-0.12379176283087581
1772788949771235800,17.63923583984375,-0.3015647797614336,0.0217743171736598,0.035176783049665386
1772788949791268900,17.659268798828126,-0.10129764348268508,0.0227106481757015,0.05003047064729035
1772788949811302000,17.679302001953126,0.278529356610775,-0.0021899843249469993,-0.0559911691499874
1772788949831335000,17.6993349609375,0.04552607190012931,-0.03826302209459245,-0.18602241089232266
1772788949851366700,17.71936669921875,-0.17499357881247996,-0.017883081888779996,-0.08619575327765196
1772788949871400000,17.73939990234375,-0.07333586984574794,-0.028308468182757496,0.025525011476688085
1772788949891432700,17.7594326171875,0.08942308129370212,-0.0562085747603327,-0.19817082158662377
1772788949911465000,17.77946484375,0.10300678548812865,-0.023500775640085337,-0.07566851404439658
1772788949931497700,17.799497802734376,0.052528644138574596,0.023765856317058204,0.0362799585185945
1772788949951531000,17.819531005859375,-0.05333177721500396,0.08179061365388333,0.12341456354893743
1772788949971562800,17.839562744140625,-0.05378419715762138,0.08597834766730665,0.25332152132447805
1772788949991595800,17.859595703125,-0.10214052404761313,0.11020210381969808,0.2633683200970292
1772788950011628800,17.87962890625,-0.003113748106360435,0.09612301732376217,0.1724786003168672
1772788950031660800,17.899660888671875,0.030841128465533253,0.03818060450814664,0.05904993566609919
1772788950051693300,17.919693359375,-0.061281274914741515,0.03648322600573301,0.08281170032992959
1772788950071726600,17.9397265625,-0.058609425356984136,0.05968100011125207,0.13219842971358448
1772788950091758600,17.959758544921876,-0.04310147510170936,0.049001492925733324,0.10519023047443479
1772788950111791400,17.979791259765626,0.06037000528872013,-0.018152911806106568,0.04896130704581737
1772788950131824400,17.999824462890626,0.08250175759792328,-0.06307992183454335,0.009030643999949097
1772788950151856400,18.0198564453125,0.11569617119133471,-0.07293802963458001,0.048171654505468904
1772788950171889700,18.0398896484375,0.03920154505372047,-0.07207388708591461,-0.0006365808704867959
1772788950191922400,18.05992236328125,-0.07095745027661324,-0.06977861575558782,0.017378712563216686
1772788950211954700,18.07995458984375,-0.05485621030330658,-0.0304383928835392,-0.020378588498942554
1772788950231987500,18.099987548828125,-0.003417699488997459,0.012291034035384655,0.022404431770741938
1772788950252020500,18.1200205078125,0.013774258330464362,0.029519086081534623,0.00446125372517854
1772788950272052500,18.140052490234375,-0.11070084712207316,0.03528546758852899,0.011697525121644138
1772788950292085500,18.16008544921875,-0.1307154611468315,0.034179186847060915,-0.045359629292041063
1772788950312118500,18.180118408203125,-0.018109072664380072,0.05683401318229735,0.09015691199358553
1772788950332150500,18.200150634765624,0.09031506169736385,0.032325375673919916,0.1278530209204182
1772788950352183600,18.22018359375,0.04968669871091842,-0.017602438316494225,0.0014600260825827717
1772788950372216600,18.240216552734374,-0.17453180651962755,-0.013022636245563626,0.010143500612676142
1772788950392249600,18.26024951171875,-0.0826098941475153,0.029816826919093726,0.06208919376414269
1772788950412281600,18.280281494140624,0.009662731358408927,0.03339629284106195,0.059462863848544656
1772788950432314400,18.300314453125,-0.020644728621840476,0.02314845507107675,0.09547233486268669
1772788950452347400,18.320347412109374,-0.02633914087116718,0.045692587573453784,0.08263374994713812
1772788950472379400,18.34037939453125,-0.12501987985372542,0.047181803217902774,0.029185397147759792
1772788950492412700,18.36041259765625,-0.09086334322988987,0.032627354295179246,0.03591086947787553
1772788950512445400,18.380445556640623,-0.02245440839231014,0.021079905168712137,0.054304056313261385
1772788950532477400,18.4004775390625,-0.015759294667840002,-0.000761047500371933,0.07883176384828984
1772788950552510500,18.420510498046873,0.08171265304684638,-0.02272065811306238,0.1164737679677084
1772788950572543500,18.44054345703125,0.11438742668032645,-0.02532945237196982,-0.0036252047598361965
1772788950592575500,18.460575439453127,-0.027748423147201537,-0.002654460031539202,-0.012073847620747983
1772788950612608500,18.4806083984375,-0.038954876816272736,0.03729351947531104,0.13968030990157276
1772788950632641500,18.5006416015625,-0.0269657483369112,0.09299421777874231,0.1528440716508776
1772788950652673500,18.520673583984376,-0.08368249181509017,0.09211758107468486,0.06962013725824653
1772788950672706600,18.54070654296875,0.005226794737577438,0.05820405942648649,-0.05424545799382031
1772788950692739600,18.560739501953126,0.08173369583487511,-0.0068485507205128665,-0.09136829707734287
1772788950712771300,18.580771240234377,-0.030024551385641095,-0.023475422003120184,-0.030140104056708514
1772788950732804600,18.6008046875,-0.20287819555997846,0.01377754626609385,0.14160967052895576
1772788950752837400,18.62083740234375,-0.09358137001693248,0.01931282243095338,0.16312325440719722
1772788950772870700,18.64087060546875,0.15961013171970842,-0.021172624953463674,-0.031456556950137014
1772788950792902400,18.66090234375,0.17874211769104004,-0.06737579239755868,-0.1394314131744206
1772788950812935700,18.680935791015624,-0.03839490484595299,-0.025964023948460816,-0.036047793730534614
1772788950832968400,18.700968505859375,-0.1391857678502798,0.050122678975388406,0.18760204476658254
1772788950853000400,18.72100048828125,-0.02997077537178993,0.05425634471401572,0.22696327389404175
1772788950873033500,18.741033447265625,0.19283318688571452,0.048620019327476616,0.06744005327280611
1772788950893066500,18.76106640625,0.12040040335953235,0.034135713031515476,-0.019146306757628916
1772788950913098500,18.781098388671875,-0.07661211503744125,0.01236621816344559,0.08230177804641425
1772788950933131500,18.801131591796874,-0.08032908973395823,0.025230814303085207,0.13546966993659734
1772788950953164500,18.82116455078125,0.07240472647547722,0.043755262835323806,0.09743406338971107
1772788950973196500,18.841196533203124,0.03305821999311447,0.024728417738899586,0.13786832857616244
1772788950993229300,18.861229248046875,-0.026821371430158614,0.033997985061258076,0.07493095701746642
1772788951013262600,18.8812626953125,-0.002945405802130699,0.016572803007811308,-0.04100552573576569
1772788951033294300,18.90129443359375,-0.09092822515964508,-0.006790025466307997,-0.05497892336752266
1772788951053327400,18.921327392578124,-0.11475801355838774,0.03256787919290364,0.012572152531705795
1772788951073360400,18.9413603515625,-0.07020984677970409,0.04947999715767801,0.07408902630060911
1772788951093392400,18.961392333984374,-0.005085924962162971,0.028181699997931717,-0.009164682175777853
1772788951113425400,18.98142529296875,-0.10379589003920554,0.009276727715507149,-0.06268971694055944
1772788951133458400,19.00145849609375,-0.11001403390169143,0.022307547267526387,0.05702613822091371
1772788951153490400,19.021490478515624,0.0740261901974678,-0.010737520983070134,0.12067447106055915
1772788951173523500,19.0415234375,0.05026654442548752,-0.03313004312030971,0.034479631098359824
1772788951193556200,19.06155615234375,-0.1120984389603138,-0.026114026878401635,0.07154745205901562
1772788951213589500,19.081589599609377,0.11585399210155009,0.03804945240914821,0.1455323969306424
1772788951233621200,19.101621337890624,0.16658990760445594,0.05161467109881341,0.07561652812883257
1772788951253654500,19.121654541015626,-0.004908814829587936,0.0581514524564147,0.09500153901316225
1772788951273687300,19.141687255859374,-0.11785831766128539,0.07985672298185527,0.07626103657744825
1772788951293719300,19.16171923828125,-0.08998013065457343,0.025429405615106225,0.06985931630898266
1772788951313752300,19.18175244140625,0.12103987030684947,0.017859554882720112,-0.026081805109232664
1772788951333785300,19.201785400390627,0.16335282537937162,0.0014437690675258635,-0.025900749453902243
1772788951353817300,19.2218173828125,-0.01561257967352867,-0.013988193342089653,0.03308894392494112
1772788951373850400,19.241850341796876,-0.15744038646519184,-0.031541897146031256,0.013646978688985109
1772788951393883400,19.26188330078125,-0.03887421279549599,-0.04744374208971858,-0.0481534247290343
1772788951413915400,19.281915283203126,0.11771627884209156,-0.015612287412583827,-0.0722453346626833
1772788951433948400,19.301948486328126,0.036758828076720235,0.004964709735289216,-0.004895042032562196
1772788951453981400,19.3219814453125,0.027661329385638235,0.031210619365051387,0.120675457441248
1772788951474013400,19.342013427734376,0.05453823039531708,0.024828370982035993,0.08479878249391913
1772788951494046500,19.36204638671875,0.019064765954017637,-0.005581745655089616,0.07002674529775976
1772788951514079200,19.382079345703126,-0.030213351956009864,0.00033763445653021333,0.08118990781437606
1772788951534111500,19.402111572265625,0.06042144321501255,0.0022188450932502744,0.07201123364586383
1772788951554144300,19.422144287109376,-0.020540683725476263,0.019079671262204646,0.08150850877687335
1772788951574177500,19.442177490234375,-0.011781038686633109,0.050838279898837206,0.11967322159614413
1772788951594210300,19.462210205078126,0.09118190765976905,0.0285353357411921,0.040763168347254394
1772788951614242300,19.4822421875,0.04230652533173561,0.01631210624501109,-0.03338558878395706
1772788951634275300,19.502275390625,-0.17833645949959753,-0.020900383883342144,0.01027680813614279
1772788951654308400,19.522308349609375,-0.1591015976756811,0.01505954890064895,0.16671682191975415
1772788951674340600,19.542340576171874,0.006544891598820686,0.029093261884897945,0.0552047314800322
1772788951694373400,19.562373291015625,-0.007073883908987045,0.012991583520174026,-0.05992350363023579
1772788951714406400,19.582406494140624,0.015209844091534613,-0.02433737259469926,-0.07658292547557502
1772788951734438400,19.6024384765625,0.12444997101128101,-0.0033151158973574635,-0.017573869809135792
1772788951754471400,19.622471435546874,-0.06907470526993274,-0.0036096418645232913,0.18384342288542538
1772788951774504400,19.64250439453125,-0.165828860104084,0.005577069479972124,0.21454970945753155
1772788951794536400,19.662536376953124,0.11228782405257225,-0.01868424220383167,0.06982775212693959
1772788951814569500,19.682569580078123,0.2105857011973858,-0.016447715323418377,0.05089548997879028
1772788951834602200,19.702602294921874,-0.050208092236518856,0.03704604752026498,0.08153831939324736
1772788951854634500,19.722634521484373,-0.1636497624993324,0.10236300769187509,0.1832583164738491
1772788951874667500,19.74266748046875,-0.01391337454020977,0.1066344014007598,0.15295710357129572
1772788951894700300,19.7627001953125,0.04947276369929313,0.04535824105255305,-0.02905190696120262
1772788951914733300,19.7827333984375,-0.10956512109041214,0.004242094549164176,-0.08644691502712666
1772788951934765300,19.802765380859373,-0.10732289512157439,0.010940496209263802,0.008954583089053631
1772788951954798300,19.82279833984375,-0.04717676171660423,0.010537249170616268,0.0955852206526324
1772788951974831400,19.842831298828123,-0.020310966622829437,0.02225369818843901,0.07639145802408456
1772788951994863600,19.862863525390626,-0.08018821995854378,0.0030005700554698706,-0.03509436546321958
1772788952014896400,19.882896484375,-0.04258008157610893,-0.028741818098723886,-0.08307225096225739
1772788952034929400,19.902929443359376,0.02138181072473526,0.0051225306455045935,-0.025607648258842527
1772788952054962400,19.92296240234375,-0.060336687541007995,0.041357334848120805,0.10362707281094044
1772788952074995200,19.9429951171875,-0.01748129615485668,0.0591296498388052,0.10340630619972943
1772788952095028500,19.963028564453126,0.08099544468820094,0.04851553603969514,0.02689337722044438
1772788952115060200,19.983060302734376,-0.017422843965888023,0.021777166717872023,0.05778612627536058
1772788952135090400,20.00309033203125,0.08491934013366699,0.02182144425101578,0.0628716859113425
1772788952155123500,20.02312353515625,0.06680383772850036,0.02814545964077115,0.07766735971141606
1772788952175155500,20.043155517578125,-0.0608896452486515,0.04079129846319556,0.12544961304049937
1772788952195188200,20.063188232421876,-0.06906652196347714,0.07352583945989609,0.14925324408467858
1772788952215221500,20.083221435546875,0.02584814248383045,0.05819353803247213,0.031189686174876986
1772788952235253200,20.103253173828126,0.05616963098943233,0.019597046199813485,-0.0937421135365963
1772788952255286500,20.12328662109375,-0.02424772154986858,0.018308979150652886,-0.06672481767553835
1772788952275319300,20.1433193359375,-0.23869945052564143,0.0321821678109467,0.07565824837870895
1772788952295351300,20.163351318359375,-0.1290332071483135,0.04534793885424733,0.0679106299266219
1772788952315384300,20.18338427734375,0.08966916500926017,0.008725377443060279,-0.033213812413625414
1772788952335417300,20.203417236328125,0.03240530904233455,0.0031380057647824285,-0.09789444744307547
1772788952355449300,20.223449462890624,-0.005752279916405678,0.0021229835033416745,-0.01271901365648955
1772788952375482400,20.243482421875,0.10366086548268795,-0.031529476055875416,0.028851635148748753
1772788952395515400,20.263515380859374,0.11059271057248114,-0.04199826310016214,0.050990657448954875
1772788952415548400,20.28354833984375,0.03677694825530052,-0.029853724863380192,0.06544511659592389
1772788952435580200,20.303580078125,0.021295886006951332,0.02108187793008983,0.09482895892523228
1772788952455613400,20.323613525390623,0.05642857418656349,0.06148066994436085,0.07231650020275264
1772788952475646200,20.343646240234374,-0.031252631875872613,0.07999547386541962,0.03810911017451435
1772788952495678500,20.363678466796873,-0.037383097454905506,0.10974091604873537,0.0783009083746001
1772788952515711200,20.383711181640624,-0.07993161484897136,0.05852737309671938,0.13722813097648323
1772788952535744500,20.40374462890625,-0.009928688818216323,0.025312062845751642,0.11807360437978058
1772788952555778300,20.4237783203125,-0.07632920644283295,0.044761882594600316,0.06777947782762349
1772788952575811300,20.443811279296874,-0.08247545411288738,0.024620646515488624,-0.030997743799351152
1772788952595844400,20.46384423828125,0.01279752225279808,-0.03570201250016689,-0.09197901285421102
1772788952615877400,20.48387744140625,-0.007668927192687988,-0.047334144235402345,-0.06041494040898979
1772788952635909400,20.503909423828127,-0.06056640464365482,-0.011317366697639226,0.05681384717710316
1772788952655942400,20.5239423828125,-0.1193354044765234,0.006631546968966722,-0.004633870345726609
1772788952675975400,20.543975341796877,0.012394202148914336,0.007314487731829285,-0.05330178393553942
1772788952696007200,20.564007080078124,-0.034195115068554875,0.0016643530156463383,-0.03714176297970116
1772788952716040400,20.58404052734375,-0.024171733704209327,0.02532601830586791,0.11471179979648441
1772788952736073200,20.6040732421875,-0.041644262030720705,0.048661666512116786,0.09773377698864787
1772788952756105500,20.62410546875,0.1470154385626316,-0.0018124562494456766,0.049391076765209437
1772788952776138200,20.64413818359375,-0.019376316121220587,-0.041309184857457874,-0.0005113105230033397
1772788952796171500,20.664171630859375,-0.11413958939909934,-0.00893587838858366,0.03120137661267072
1772788952816203300,20.684203369140626,-0.14892507157623766,0.00947035059146583,0.10870170919410883
1772788952836236500,20.704236572265625,-0.08841244294643402,-0.002434241409599781,0.11673413593694568
1772788952856269300,20.724269287109376,0.0066524436265230176,0.07953669724725186,0.14544997934419662
1772788952876302600,20.744302490234375,-0.1657031878978014,0.12716960523352025,0.16577091937176883
1772788952896334300,20.764334228515626,-0.08074994549453259,0.06542392767742276,0.08671104585602879
1772788952916367400,20.784367431640625,-0.08217208725214004,0.07823014469332992,0.06929927127342671
1772788952936400400,20.804400390625,-0.0397971728593111,0.07298333008103072,0.12403243971895425
1772788952956432400,20.824432373046875,-0.22676935875713825,0.06523395806327462,-0.054804553181305525
1772788952976465400,20.84446533203125,-0.16750526888370512,0.08317921846807003,0.045232861107215284
1772788952996498400,20.86449853515625,0.2097615253329277,-0.12595569939911364,0.2789910558383912
1772788953016530200,20.8845302734375,0.22422493497133253,-0.04696918338052928,0.10771503624431789
1772788953036563500,20.9045634765625,-0.021312252619862554,-0.16592165295407174,-0.08716010479778051
1772788953056595500,20.924595458984374,-0.08889876515865325,-0.09747297062799334,-0.1227932167802006
1772788953076628500,20.94462841796875,0.07110533431470394,-0.0539133034300059,0.02918064790740609
1772788953096660500,20.964660400390624,0.09649053546190262,0.03524382040388882,0.07265855510607361
1772788953116693500,20.984693603515623,0.20167700307667255,0.0682055212199688,0.016425576556846497
1772788953136726300,21.004726318359374,0.09686229138374328,-0.035152634989097716,-0.03513341883197427
1772788953156758500,21.024758544921873,-0.14735796838998794,0.06984656642526388,0.008169935517385601
1772788953176791600,21.04479150390625,0.16913783852159975,0.032628888665139674,0.166414916363731
1772788953196824600,21.064824462890623,0.0077209496408700935,0.053417994193732735,0.10744184532612562
1772788953216856600,21.084856689453126,-0.08871288719773292,-0.028364874545112252,0.07233385319635272
1772788953236889600,21.1048896484375,-0.001743044275045395,-0.0012894552886486053,0.17940942249335348
1772788953256922400,21.12492236328125,0.1219143150538206,0.061706733785197136,0.18533377104103563
1772788953276954400,21.144954345703123,-0.03218435976803303,0.041329862319305535,0.19578736051619053
1772788953296987600,21.164987548828126,-0.04841653264462947,0.040099589871987695,0.06994257414564489
1772788953317020400,21.1850205078125,0.05855915647447109,0.008147431424632668,-0.11662329597361386
1772788953337053400,21.205053466796876,-0.20133388872742652,-0.24922164825759827,-0.2571616474766284
1772788953357085400,21.22508544921875,-0.24850246713757512,-0.032003084916993975,-0.1073559936735779
1772788953377118500,21.245118408203126,-0.2767980027735233,0.03317497824057936,0.0687341482039541
1772788953397151500,21.2651513671875,-0.11380465835630893,-0.3018463731817901,-0.03293590878769755
1772788953417183500,21.28518359375,-0.09917173736989497,-0.24431319875419139,-0.23112243940010666
1772788953437216500,21.305216552734375,-0.15394903721809386,0.2800639457669109,-0.22115429535433648
1772788953457249300,21.325249267578126,-0.18154373110830782,0.039113939835503694,0.14408391515538096
1772788953477281500,21.345281494140625,0.1413642809331417,-0.021595599605888128,0.07269391868039965
1772788953497314600,21.365314453125,0.19080255784094333,0.40575587966330345,-0.003872019127756357
1772788953517347600,21.38534765625,-0.1544230844706297,0.08699008199311792,0.11588248754367232
1772788953537379600,21.405379638671874,-0.1653577354609966,-0.05941891510896384,-0.0210357737660408
1772788953557412400,21.425412353515625,0.14448621234595774,-0.08352927401475607,-0.06652049074247479
1772788953577445600,21.445445556640625,0.25446283684670923,-0.0611245499830693,0.12615750558152794
1772788953597478400,21.465478515625,-0.014488544079661369,0.0860927678272128,0.028650340422987936
1772788953617510700,21.4855107421875,0.042594694623351095,-0.02235124027878046,-0.01581058646366
1772788953637543400,21.50554345703125,0.2370586975812912,-0.07162365910038351,0.023996815528720617
1772788953657576400,21.525576416015625,0.23429858521819114,-0.02537760236263275,0.17724778748005626
1772788953677608400,21.5456083984375,0.12204583247900008,-0.10299071113616227,0.1150865148603916
1772788953697641500,21.565641357421875,0.019561609560251235,-0.019010259287804365,-0.018084376614540813
1772788953717674500,21.585674560546874,0.019527122768759727,0.010476824220269918,0.004831365679204463
1772788953737706500,21.60570654296875,-0.08510054191946982,0.13057692945897578,0.13354630065858364
1772788953757739500,21.625739501953124,0.008846154278516769,0.2662997704390436,0.32495223122015593
1772788953777772500,21.6457724609375,-0.18207506150603292,0.23372962622381746,0.43371443842984736
1772788953797804500,21.665804443359374,0.011071429112553596,-0.010485738179087638,0.1127404631908983
1772788953817837600,21.685837646484377,0.163754976439476,-0.0929300665013492,-0.3051558630559593
1772788953837870600,21.70587060546875,-0.21942776382267473,0.028626228895038363,-0.12129143391512334
1772788953857903400,21.7259033203125,-0.4639940605551004,0.11379713263697921,0.21570962008237837
1772788953877935400,21.745935302734374,-0.330337285259366,0.20712460095807908,0.4948104199055582
1772788953897968600,21.76596875,-0.039620647248625754,0.11994162674136459,0.220529952910915
1772788953918001400,21.78600146484375,0.2716273221373558,-0.042733226311206816,-0.12149250944517552
1772788953938033700,21.80603369140625,0.03208031487166881,-0.07913169664293528,-0.2570562143407762
1772788953958066400,21.82606640625,-0.098761403003335,0.01668590799346566,-0.0902722454689443
1772788953978099700,21.846099609375,-0.13905191233754158,0.039647242994606494,0.2852445632752031
1772788953998131500,21.86613134765625,-0.15066986941695212,0.0035533085674047467,0.1470905496254563
1772788954018164500,21.88616455078125,0.22940146082639692,-0.09644128949269652,-0.12521781357862055
1772788954038197500,21.906197509765626,0.22836334995031354,-0.02360299390554428,-0.2684875628069043
1772788954058230000,21.92622998046875,0.030555297261476516,-0.07886267044320702,-0.17291333847232163
1772788954078263000,21.946262939453124,-0.11280220331549644,-0.06132628310024738,-0.30932861869595946
1772788954098295800,21.9662958984375,-0.28709318681657314,0.05165303034782409,-0.19502770125530658
1772788954118329000,21.9863291015625,-0.21732290049791333,0.12389584425985813,-0.015841127732396126
1772788954138361000,22.006361083984373,0.05218962144255638,0.12621084320396184,0.14485029641799627
1772788954158394000,22.02639404296875,0.15537410158514975,0.0366992068439722,0.024131547824293373
1772788954178427000,22.046427001953123,0.02243921082317829,-0.0008474106095731257,-0.02274685200024396
1772788954198459000,22.066458984375,-0.21548750176429748,0.06104512807130813,0.11008355547394603
1772788954218492000,22.086491943359373,-0.08921148436963558,0.07278159696385264,0.24494912203755229
1772788954238525000,22.10652490234375,0.20705401993989944,0.13210647711381315,0.1565361311018467
1772788954258558000,22.126557861328124,0.23427111268937587,0.058768999832868575,0.0289545475339517
1772788954278590000,22.14658984375,0.13123919275999069,0.025581308241188525,0.12125712978672236
1772788954298623000,22.166623046875,0.026394670450687406,0.05879544944837689,0.12137706637196242
1772788954318656000,22.186656005859376,0.005422025048732757,0.014919044451415538,0.16408417186122387
1772788954338688000,22.20668798828125,0.0788712921410799,0.03463584457337856,0.12375698377843945
1772788954358721000,22.226720947265626,0.051017070531845087,0.05483399847149849,0.11029752701818943
1772788954378753800,22.24675390625,0.037356793969869614,0.10081833553314208,0.108899314125441
1772788954398786000,22.2667861328125,-0.014705401700735091,0.10666764608323573,0.1341678666230291
1772788954418819000,22.286819091796875,0.012094342419505119,0.07613967522010207,0.10347546244580298
1772788954438852000,22.30685205078125,-0.039354689788818356,0.08936945141032338,0.10191862492524087
1772788954458884000,22.326884033203125,-0.09161153124868869,0.10456205210611223,0.01727295063380152
1772788954478916900,22.346916748046876,-0.057628597626090045,0.051811874171346424,0.018004589376598594
1772788954498950000,22.366949951171875,0.05611468593180179,0.006933014133572578,-0.029131621133908627
1772788954518983000,22.38698291015625,-0.04374211109280586,0.00919160671532154,-0.029889526829123495
1772788954539015200,22.40701513671875,-0.03358955039083957,0.02875730792880058,0.054912397469952696
1772788954559048000,22.4270478515625,-0.10501929435431957,0.022886223938316106,0.1412629029178992
1772788954579081000,22.4470810546875,0.04786766659021377,0.05018251940384507,0.1248920887555927
1772788954599113000,22.467113037109375,0.15862813494503497,0.008941285216063261,0.044360973643511534
1772788954619146000,22.48714599609375,0.15718378135561942,0.05826178096309304,0.14295038108080624
1772788954639179000,22.507178955078125,-0.07114099014997483,0.04289338530898094,0.14872512855734676
1772788954659211000,22.5272109375,-0.23627251563966273,0.01511354411020875,0.08206533894203603
1772788954679244000,22.547244140625,-0.09286474618017673,0.06543079580962657,0.04656538835261017
1772788954699276800,22.56727685546875,0.08677344356775284,0.06269158010408282,0.11421674628853798
1772788954719309000,22.58730908203125,-0.02335281853675842,0.05726473274976015,0.04824260084982961
1772788954739342000,22.607342041015624,-0.03726677759885788,-0.034870237851142884,-0.08108348829783499
1772788954759375000,22.627375,-0.10259002138078212,-0.0935031902141869,-0.13002598104532806
1772788954779408000,22.647407958984374,-0.045271220356225966,-0.04711860178858041,-0.06410217755436896
1772788954799440000,22.66743994140625,0.01622515861392021,-0.013647709341347217,-0.0677032707862556
1772788954819473200,22.68747314453125,-0.036459552869200704,-0.028074147970229387,-0.006304214710742235
1772788954839506000,22.707505859375,-0.041485272076725956,0.04008110436722636,0.05775379490833729
1772788954859538200,22.7275380859375,-0.013585457760095596,0.06807283475100993,0.009439918920584022
1772788954879571000,22.747571044921877,-0.04354804982542992,0.028609570021182296,-0.08817103540599346
1772788954899604000,22.76760400390625,-0.06438450162708759,0.031525311337411405,-0.07100249499473721
1772788954919636000,22.787635986328127,-0.03728723586499691,0.027566490709036585,0.013416640531830488
1772788954939669000,22.8076689453125,0.12590426147282122,0.01755421526059508,0.13316183138564228
1772788954959702000,22.827701904296877,0.09533142855465411,0.06261281577944755,0.14540044111404568
1772788954979734800,22.84773486328125,-0.11918050617575644,0.06187383398041129,0.1388314014546573
1772788954999767000,22.86776708984375,-0.23946166706979274,0.08556231421232223,0.1100894737580791
1772788955019800000,22.887800048828126,-0.01370119309425354,0.1017933180451393,0.11425959904957562
1772788955039833000,22.9078330078125,0.22623159861862657,0.07827171881273388,-0.004172646042145788
1772788955059864800,22.92786474609375,0.07262333766222,0.027478812425583598,0.016081256631202995
1772788955079897600,22.947897705078127,0.021579963645339012,-0.0321929814659059,0.0180194581521675
1772788955099931000,22.967930908203126,-0.16357961987257003,-0.010484276874363421,0.089058449232392
1772788955119962600,22.987962646484377,-0.09420213226377963,0.02793064784631133,0.13424107798971235
1772788955139995600,23.00799560546875,0.1776104833126068,0.006723170775175094,-0.003425480936653912
1772788955160028700,23.028028564453123,0.1854436611562967,-0.03425049851760268,-0.06765884712263942
1772788955180061700,23.048061767578126,-0.014367548048496246,-0.0331245632275939,-0.04106423365306109
1772788955200093700,23.06809375,-0.02290975094437599,-0.024108313079178333,-0.0014360972177237272
1772788955220126700,23.088126708984376,-0.02793780823945999,0.0016503975555300712,0.06702248544786125
1772788955240159700,23.10815966796875,-0.029215573090314865,0.023404402593523263,0.09689670510999858
1772788955260191700,23.128191650390626,-0.10979951436817645,0.07287088268250226,0.11346132481135428
1772788955280224500,23.148224609375,0.01741290709376335,0.05536313691213727,0.012734613084420561
1772788955300257800,23.1682578125,0.0023123685956001282,0.008867635457962752,-0.028711349895223972
1772788955320289500,23.18828955078125,-0.1078372743844986,0.010756810205429792,0.03499561779648065
1772788955340322800,23.20832275390625,-0.1254132630854845,0.06431815839260817,0.17929328530039637
1772788955360355600,23.22835546875,-0.056767596882581706,0.05009980955645442,0.15000187049489466
1772788955380387600,23.2483876953125,-0.16640286059975623,0.07483531462326645,0.12291118060406296
1772788955400420600,23.268420654296875,-0.2091033536851406,0.09249342864975332,0.18733163032736627
1772788955420453600,23.28845361328125,-0.26506723296940327,0.22454978301152587,0.40154239015411586
1772788955440486700,23.308486572265625,0.0162561382740736,0.09687851186618208,0.1612867231624201
1772788955460518700,23.3285185546875,0.26231881104409693,0.08560454591885208,0.017031762289069594
1772788955480551700,23.3485517578125,0.2309714866220951,-0.006195201378315687,-0.11243585422113538
1772788955500584700,23.368584716796875,-0.06430909830331802,-0.029216596003621816,-0.03589768120273947
1772788955520616700,23.38861669921875,-0.15132979463040827,-0.05680412950068712,0.059810544775053855
1772788955540649700,23.408649658203124,0.14208499642312525,-0.08910378621146083,0.004345664521493017
1772788955560682800,23.428682861328124,0.14109598538577556,-0.042917642967402934,-0.01775795767176896
1772788955580714800,23.44871484375,-0.031080782440304756,-0.014577683667838572,0.042022265030257404
1772788955600747500,23.46874755859375,-0.07634206592440605,0.07211611879244446,0.07832480070684104
1772788955620780800,23.48878076171875,0.005616086316108704,0.09562003623768686,0.014558504043333231
1772788955640813600,23.5088134765625,0.006035188511013984,0.08825506042763591,-0.010591719304211437
1772788955660845800,23.528845703125,-0.08410743922889233,0.054352790825814006,0.0009498480707406997
1772788955680878600,23.548878662109374,-0.18533727817237375,0.08179200189337134,0.09768767282459884
1772788955700911900,23.568911865234377,-0.0699088180065155,0.08127996071800589,0.17081638445938005
1772788955720943600,23.588943603515624,0.07401333071589469,0.079622695030272,0.12939179306132717
1772788955740976600,23.6089765625,0.15583645839989185,-0.017449878103286028,-0.05207732017450034
1772788955761009700,23.629009765625,-0.006587561696767806,-0.041081367450952526,-0.07754771538712084
1772788955781041700,23.649041748046876,-0.013282090899348259,-0.036901889809221024,0.02801889238534495
1772788955801074700,23.66907470703125,0.07488660641908645,-0.03415902084186673,0.02294551637750119
1772788955821107700,23.689107666015627,0.02439209845662117,-0.029318595073372124,0.006162723880819976
1772788955841140700,23.709140625,-0.07929623955488205,-0.011886106496304272,-0.001835343934688717
1772788955861172700,23.7291728515625,-0.03954582844674587,0.001728869619220495,-0.049094504971429705
1772788955881205500,23.74920556640625,0.17790040616989133,-0.013952683637291192,-0.0905397920976393
1772788955901238800,23.76923876953125,0.07447861014008522,-0.01505319222509861,-0.06508612882411106
1772788955921270500,23.7892705078125,-0.20832477052807807,0.008969196136295795,0.013753325140289962
1772788955941303800,23.8093037109375,-0.17424831340312957,0.006755319479107857,0.06285769391860813
1772788955961336600,23.829336669921876,0.07754618101716042,-0.003255933056026697,0.01528327465392649
1772788955981368600,23.84936865234375,0.12689911772906778,0.026784984942525625,0.02014627758041024
1772788956001401600,23.869401611328126,-0.0000046761751174926755,0.019022972638905046,-0.00891015942543745
1772788956021434600,23.8894345703125,-0.14270809675753116,0.034705694939196105,0.02598444568198174
1772788956041467600,23.909467529296876,-0.2561731478959322,0.0698575262106955,0.06227739154631272
1772788956061500000,23.9295,-0.21200725843310356,0.0732910077907145,0.11595321469232439
1772788956081533000,23.949532958984374,-0.014272855502367019,0.03463189905062317,-0.0863756033565849
1772788956101566000,23.96956591796875,-0.07384323484599589,0.07094722114354371,0.038110370549838984
1772788956121598000,23.989597900390624,-0.09835516029000281,0.06691445849612356,0.027222371712792664
1772788956141631000,24.009630859375,-0.10516367126107215,-0.007459522225707769,0.04137114417776465
1772788956161664000,24.0296640625,-0.013355156135559081,-0.040636107901483774,0.11915867793643846
1772788956181696000,24.049696044921873,0.2876870610564947,-0.09147124599516392,0.06184601439172402
1772788956201728800,24.069728759765624,0.2578524792850017,-0.04901727501675486,0.03771105076763779
1772788956221762000,24.089761962890623,-0.02288286293745041,-0.011282441514730453,0.09189029339114203
1772788956241794800,24.109794921875,-0.11594868464767932,0.04425239870250225,0.0879319842194207
1772788956261827000,24.1298271484375,-0.004206219518184662,0.08396861528009175,0.056537496187444775
1772788956281859800,24.14985986328125,0.052578913021087643,0.13929595022648572,0.10555966657502576
1772788956301893000,24.16989306640625,-0.06548106469213962,0.12711977474242447,0.16986049024034292
1772788956321924900,24.1899248046875,-0.11451017627716063,0.1021484150931239,0.16981639537028967
1772788956341958000,24.2099580078125,-0.06569032352864741,0.09134498926699161,0.14711391223473474
1772788956361991000,24.229990966796876,-0.04675064525902271,0.026848259437084198,0.051182855552807445
1772788956382023000,24.25002294921875,0.1051437975168228,-0.02477656772956252,-0.003814754248876124
1772788956402056000,24.270055908203126,0.01182370878458023,-0.023783465038985013,0.021957838780712335
1772788956422089000,24.2900888671875,-0.23444880734384058,0.010426555337756872,0.10622943732906133
