time,seconds_elapsed,z,y,x
1772788932190087000,0.0580869140625,-0.979522705078125,-0.120758056640625,-0.0029144287109375
1772788932210120000,0.078119873046875,-0.9825897216796875,-0.125518798828125,0.0114593505859375
1772788932230152000,0.09815185546875,-0.9878692626953125,-0.109710693359375,-0.007232666015625
1772788932250184700,0.118184814453125,-1.0003814697265625,-0.0948944091796875,-0.0207672119140625
1772788932270218000,0.138218017578125,-1.01397705078125,-0.0772247314453125,-0.0229034423828125
1772788932290249700,0.158249755859375,-1.0159912109375,-0.0598602294921875,-0.0526885986328125
1772788932310283000,0.178282958984375,-1.0195159912109375,-0.0821533203125,-0.060394287109375
1772788932330314800,0.198314697265625,-1.017547607421875,-0.0689697265625,-0.0782623291015625
1772788932350347800,0.21834765625,-1.0252685546875,-0.0709686279296875,-0.0665740966796875
1772788932370380800,0.238380859375,-0.991851806640625,-0.1279144287109375,-0.1140289306640625
1772788932390412800,0.258412841796875,-0.9642333984375,-0.109832763671875,-0.0765380859375
1772788932410445800,0.27844580078125,-0.970489501953125,-0.14935302734375,-0.02288818359375
1772788932430478800,0.298478759765625,-1.015533447265625,-0.1512603759765625,-0.02801513671875
1772788932450511000,0.318510986328125,-1.001190185546875,-0.0790557861328125,-0.084014892578125
1772788932470544000,0.3385439453125,-0.9594268798828125,-0.0312652587890625,-0.1671600341796875
1772788932490576000,0.358575927734375,-0.9890594482421875,-0.2268829345703125,-0.0983428955078125
1772788932510609000,0.37860888671875,-0.9976654052734375,-0.277099609375,0.013885498046875
1772788932530642000,0.398641845703125,-1.035369873046875,-0.1549530029296875,0.0218963623046875
1772788932550674000,0.418673828125,-0.9521026611328125,-0.1374969482421875,0.0634613037109375
1772788932570707000,0.43870703125,-0.86474609375,-0.1484527587890625,0.1398162841796875
1772788932590740000,0.458739990234375,-0.69927978515625,-0.5134124755859375,0.4269256591796875
1772788932610772000,0.47877197265625,-1.0377655029296875,-0.06939697265625,0.3114013671875
1772788932630804700,0.4988046875,-1.1349639892578125,-0.1261444091796875,0.2535858154296875
1772788932650837000,0.5188369140625,-1.1497802734375,0.051422119140625,0.163818359375
1772788932670869800,0.538869873046875,-1.0322113037109375,0.00665283203125,0.1797332763671875
1772788932690903000,0.558903076171875,-1.0874176025390625,0.0573577880859375,0.2366180419921875
1772788932710934800,0.578934814453125,-0.9976959228515625,-0.0716552734375,0.087249755859375
1772788932730967800,0.5989677734375,-0.9041748046875,-0.11651611328125,0.066131591796875
1772788932751000800,0.619000732421875,-0.8392791748046875,-0.113861083984375,0.2093963623046875
1772788932771032800,0.63903271484375,-1.1684722900390625,-0.0144195556640625,0.606353759765625
1772788932791065900,0.65906591796875,-0.93524169921875,-0.1191558837890625,0.20465087890625
1772788932811097900,0.679097900390625,-0.8827667236328125,-0.0720367431640625,0.14697265625
1772788932831131000,0.699130859375,-1.034393310546875,-0.100250244140625,0.029144287109375
1772788932851164000,0.719163818359375,-1.01910400390625,-0.1351165771484375,0.105194091796875
1772788932871196000,0.73919580078125,-0.962921142578125,-0.1461639404296875,0.1138916015625
1772788932891229000,0.75922900390625,-0.9851226806640625,-0.1852569580078125,0.12396240234375
1772788932911261700,0.77926171875,-0.9312744140625,-0.1970977783203125,0.170867919921875
1772788932931294000,0.7992939453125,-0.859161376953125,-0.180908203125,0.211029052734375
1772788932951326700,0.81932666015625,-0.849395751953125,-0.19439697265625,0.1876068115234375
1772788932971358700,0.839358642578125,-0.959442138671875,-0.188018798828125,0.1848602294921875
1772788932991392000,0.85939208984375,-1.012908935546875,-0.134613037109375,0.119415283203125
1772788933011424800,0.8794248046875,-1.0186920166015625,-0.154388427734375,0.1942291259765625
1772788933031457000,0.89945703125,-0.92926025390625,-0.1133575439453125,0.24786376953125
1772788933051490000,0.919489990234375,-0.9494781494140625,-0.1513214111328125,0.157989501953125
1772788933071523000,0.939523193359375,-1.0082550048828125,-0.105987548828125,0.085235595703125
1772788933091555000,0.95955517578125,-0.9910125732421875,-0.143096923828125,-0.0265350341796875
1772788933111588000,0.979588134765625,-0.950653076171875,-0.0817108154296875,-0.09063720703125
1772788933131619800,0.999619873046875,-0.99505615234375,-0.1087493896484375,-0.0405120849609375
1772788933151653000,1.019653076171875,-1.14801025390625,-0.090576171875,0.031219482421875
1772788933171686000,1.039685791015625,-1.0454254150390625,-0.1824493408203125,-0.0390777587890625
1772788933191718100,1.05971826171875,-0.99591064453125,-0.201416015625,-0.0665435791015625
1772788933211751000,1.0797509765625,-0.9508209228515625,-0.0770721435546875,-0.17333984375
1772788933231784200,1.0997841796875,-0.9975738525390625,-0.129547119140625,-0.097686767578125
1772788933251816000,1.11981591796875,-1.0235748291015625,-0.09735107421875,-0.038848876953125
1772788933271849000,1.139848876953125,-1.01409912109375,-0.09710693359375,-0.0662078857421875
1772788933291881000,1.159880859375,-1.055816650390625,-0.0638427734375,-0.0732421875
1772788933311914000,1.1799140625,-1.068359375,-0.0621185302734375,-0.0739898681640625
1772788933331947000,1.199947021484375,-1.056671142578125,-0.0702972412109375,-0.04107666015625
1772788933351979000,1.21997900390625,-1.0548248291015625,-0.082733154296875,-0.11602783203125
1772788933372012000,1.240011962890625,-1.047821044921875,-0.07708740234375,-0.0942535400390625
1772788933392045000,1.260045166015625,-1.0173797607421875,-0.069976806640625,-0.0402679443359375
1772788933412077000,1.2800771484375,-1.0196990966796875,-0.07110595703125,-0.0713958740234375
1772788933432110000,1.300110107421875,-0.9734954833984375,-0.08251953125,-0.093902587890625
1772788933452142000,1.32014208984375,-0.932037353515625,-0.0914154052734375,-0.10003662109375
1772788933472175000,1.340175048828125,-0.9579010009765625,-0.0789031982421875,-0.04638671875
1772788933492208000,1.3602080078125,-0.9835662841796875,-0.074676513671875,-0.030975341796875
1772788933512239900,1.380239990234375,-0.9788055419921875,-0.0806121826171875,-0.0184783935546875
1772788933532273200,1.400273193359375,-0.994476318359375,-0.076324462890625,-0.003753662109375
1772788933552306000,1.420305908203125,-1.01275634765625,-0.0765228271484375,0.0351104736328125
1772788933572338200,1.440338134765625,-1.0786590576171875,-0.0831756591796875,0.028717041015625
1772788933592371000,1.460370849609375,-1.1237945556640625,-0.0861053466796875,-0.038238525390625
1772788933612403000,1.48040283203125,-1.12164306640625,-0.0732421875,-0.0390625
1772788933632436000,1.50043603515625,-1.0701446533203125,-0.064666748046875,0.017913818359375
1772788933652469000,1.520468994140625,-1.0398406982421875,-0.073211669921875,-0.0248260498046875
1772788933672501000,1.5405009765625,-1.1375274658203125,-0.0243072509765625,-0.03326416015625
1772788933692534000,1.560533935546875,-1.0606536865234375,-0.0069122314453125,0.0581207275390625
1772788933712566000,1.58056591796875,-0.95831298828125,-0.03271484375,0.079833984375
1772788933732599000,1.60059912109375,-1.0659027099609375,-0.0507965087890625,-0.0858306884765625
1772788933752632000,1.620632080078125,-1.0311737060546875,-0.0512542724609375,-0.014129638671875
1772788933772664000,1.6406640625,-1.02435302734375,-0.043182373046875,0.070556640625
1772788933792696800,1.66069677734375,-1.1751251220703125,-0.0207366943359375,0.016021728515625
1772788933812730000,1.680730224609375,-1.187896728515625,-0.0167236328125,0.044189453125
1772788933832762000,1.70076220703125,-1.0780487060546875,-0.0406646728515625,0.072845458984375
1772788933852795100,1.720795166015625,-1.0596466064453125,-0.056732177734375,0.0063629150390625
1772788933872827100,1.7408271484375,-1.0906524658203125,-0.0350341796875,0.001556396484375
1772788933892860000,1.76085986328125,-1.0572967529296875,-0.0311431884765625,0.0859832763671875
1772788933912893200,1.78089306640625,-1.1324005126953125,-0.0262603759765625,0.02716064453125
1772788933932925000,1.800925048828125,-1.1693878173828125,0.005859375,0.0270233154296875
1772788933952958200,1.820958251953125,-1.0388031005859375,0.033111572265625,0.0926513671875
1772788933972991000,1.840990966796875,-1.00823974609375,0.010467529296875,0.0465545654296875
1772788933993023000,1.86102294921875,-1.0496978759765625,-0.002655029296875,-0.007415771484375
1772788934013056000,1.881055908203125,-1.0410308837890625,0.01422119140625,0.08837890625
1772788934033087700,1.901087646484375,-0.957305908203125,0.00140380859375,0.072052001953125
1772788934053120500,1.92112060546875,-0.9217529296875,-0.0066070556640625,-0.0040435791015625
1772788934073153500,1.941153564453125,-0.91143798828125,-0.0289764404296875,0.030975341796875
1772788934093185500,1.961185546875,-0.9768218994140625,-0.0265045166015625,0.0977630615234375
1772788934113218600,1.981218505859375,-1.008758544921875,-0.0373077392578125,0.066131591796875
1772788934133251600,2.00125146484375,-0.875213623046875,-0.0535430908203125,0.01007080078125
1772788934153283600,2.02128369140625,-0.797332763671875,-0.070068359375,0.010498046875
1772788934173316600,2.041316650390625,-0.9885406494140625,-0.0316162109375,0.102264404296875
1772788934193348600,2.0613486328125,-1.2451934814453125,-0.0076446533203125,0.105377197265625
1772788934213381600,2.081381591796875,-1.0440216064453125,-0.0020599365234375,0.0983734130859375
1772788934233414700,2.10141455078125,-0.8857574462890625,-0.0259246826171875,0.0706787109375
1772788934253446700,2.12144677734375,-0.9593963623046875,-0.064453125,-0.014495849609375
1772788934273479700,2.141479736328125,-0.9219818115234375,-0.1102752685546875,-0.0227813720703125
1772788934293512700,2.1615126953125,-0.8599853515625,-0.14190673828125,0.0707550048828125
1772788934313544400,2.18154443359375,-0.8189697265625,-0.14117431640625,0.1416778564453125
1772788934333577700,2.20157763671875,-0.7754058837890625,-0.1145477294921875,0.1219024658203125
1772788934353609500,2.221609375,-0.865875244140625,-0.1006622314453125,0.1073150634765625
1772788934373642800,2.241642822265625,-0.9541168212890625,-0.085113525390625,0.1121063232421875
1772788934393675500,2.261675537109375,-1.048248291015625,-0.078643798828125,0.0982818603515625
1772788934413707500,2.28170751953125,-1.063201904296875,-0.0835113525390625,0.0352935791015625
1772788934433740500,2.301740478515625,-1.032684326171875,-0.099365234375,0.0269317626953125
1772788934453773600,2.321773681640625,-0.978912353515625,-0.104278564453125,0.0531005859375
1772788934473805600,2.3418056640625,-1.01031494140625,-0.11029052734375,0.040374755859375
1772788934493838600,2.361838623046875,-1.040313720703125,-0.11737060546875,0.0023193359375
1772788934513870600,2.38187060546875,-1.0819854736328125,-0.1056060791015625,0.0289154052734375
1772788934533903600,2.401903564453125,-0.9623870849609375,-0.0837554931640625,0.0479583740234375
1772788934553936600,2.4219365234375,-0.858917236328125,-0.0908966064453125,0.0543060302734375
1772788934573968600,2.44196875,-0.837921142578125,-0.1012115478515625,0.099761962890625
1772788934594001400,2.46200146484375,-0.81964111328125,-0.07586669921875,0.103271484375
1772788934614033700,2.48203369140625,-0.783416748046875,-0.0645751953125,0.0966949462890625
1772788934634066700,2.502066650390625,-0.8471221923828125,-0.073211669921875,-0.0078582763671875
1772788934654099700,2.522099609375,-0.8884735107421875,-0.06903076171875,-0.0160980224609375
1772788934674131700,2.542131591796875,-0.8631439208984375,-0.04901123046875,0.0628814697265625
1772788934694164500,2.56216455078125,-0.766571044921875,-0.03289794921875,0.1247406005859375
1772788934714197800,2.58219775390625,-0.8590545654296875,-0.090972900390625,0.0665740966796875
1772788934734229500,2.6022294921875,-0.9094390869140625,-0.116180419921875,0.0595245361328125
1772788934754262800,2.6222626953125,-1.0255584716796875,-0.10662841796875,0.1016998291015625
1772788934774295600,2.642295654296875,-1.0268096923828125,-0.110992431640625,0.074981689453125
1772788934794327600,2.66232763671875,-1.066925048828125,-0.171905517578125,-0.090179443359375
1772788934814360600,2.682360595703125,-0.9936370849609375,-0.1373748779296875,-0.1240386962890625
1772788934834392600,2.702392578125,-1.0147552490234375,-0.1183013916015625,-0.0574798583984375
1772788934854425600,2.722425537109375,-1.0507965087890625,-0.110076904296875,0.0013427734375
1772788934874458600,2.742458740234375,-1.0774993896484375,-0.1388092041015625,-0.0002899169921875
1772788934894490600,2.76249072265625,-1.0130157470703125,-0.150238037109375,-0.0235137939453125
1772788934914523600,2.782523681640625,-0.9629974365234375,-0.157684326171875,0.008544921875
1772788934934555600,2.8025556640625,-0.9730224609375,-0.151458740234375,0.0610198974609375
1772788934954588700,2.822588623046875,-1.0440826416015625,-0.1843109130859375,0.021484375
1772788934974621400,2.842621337890625,-1.0157318115234375,-0.1928558349609375,0.011260986328125
1772788934994653700,2.86265380859375,-0.96197509765625,-0.17578125,-0.006103515625
1772788935014686500,2.8826865234375,-0.953094482421875,-0.1471099853515625,-0.01983642578125
1772788935034720000,2.902719970703125,-0.97247314453125,-0.1257781982421875,-0.042388916015625
1772788935054752000,2.922751953125,-0.986602783203125,-0.1161346435546875,-0.0506591796875
1772788935074784800,2.94278466796875,-0.993438720703125,-0.094451904296875,-0.040435791015625
1772788935094817000,2.962817138671875,-0.999114990234375,-0.077789306640625,-0.0328521728515625
1772788935114849800,2.982849853515625,-1.0120849609375,-0.102264404296875,-0.0572052001953125
1772788935134882800,3.0028828125,-1.0166778564453125,-0.1336212158203125,-0.0998382568359375
1772788935154914800,3.022914794921875,-1.0340423583984375,-0.141143798828125,-0.125457763671875
1772788935174948000,3.042947998046875,-1.030975341796875,-0.141021728515625,-0.12298583984375
1772788935194980900,3.06298095703125,-1.0381317138671875,-0.1412811279296875,-0.105224609375
1772788935215012900,3.083012939453125,-1.0287933349609375,-0.1351776123046875,-0.1072540283203125
1772788935235046000,3.1030458984375,-1.0048370361328125,-0.1273345947265625,-0.0900421142578125
1772788935255078000,3.123077880859375,-0.9678497314453125,-0.1156463623046875,-0.0693511962890625
1772788935275111000,3.14311083984375,-0.962615966796875,-0.119873046875,-0.0626068115234375
1772788935295144000,3.16314404296875,-0.9936981201171875,-0.133697509765625,-0.0790863037109375
1772788935315175700,3.18317578125,-1.0088043212890625,-0.135223388671875,-0.0574951171875
1772788935335209000,3.203208984375,-1.0170440673828125,-0.1459808349609375,-0.05377197265625
1772788935355241700,3.22324169921875,-0.9805755615234375,-0.1427154541015625,-0.0486602783203125
1772788935375274000,3.24327392578125,-0.9599456787109375,-0.1430511474609375,-0.05712890625
1772788935395306800,3.263306640625,-0.97613525390625,-0.1367645263671875,-0.034271240234375
1772788935415338800,3.2833388671875,-0.9954681396484375,-0.133056640625,-0.0373382568359375
1772788935435371800,3.303371826171875,-1.006683349609375,-0.1280975341796875,-0.008087158203125
1772788935455404800,3.32340478515625,-0.9914398193359375,-0.1219940185546875,-0.0140838623046875
1772788935475436800,3.343436767578125,-0.9888916015625,-0.1288909912109375,-0.014984130859375
1772788935495469800,3.3634697265625,-0.987823486328125,-0.134002685546875,-0.020263671875
1772788935515502800,3.3835029296875,-1.00311279296875,-0.1385345458984375,-0.0059661865234375
1772788935535534800,3.403534912109375,-0.9998016357421875,-0.138702392578125,0.0070648193359375
1772788935555567900,3.42356787109375,-0.9792633056640625,-0.1278533935546875,0.0183868408203125
1772788935575599900,3.443599853515625,-0.968170166015625,-0.11865234375,0.0446014404296875
1772788935595633000,3.4636328125,-0.95098876953125,-0.125579833984375,0.056243896484375
1772788935615666000,3.483666015625,-0.958465576171875,-0.1271209716796875,0.0246429443359375
1772788935635698000,3.503697998046875,-0.9615631103515625,-0.1439666748046875,-0.0071868896484375
1772788935655731000,3.52373095703125,-1.0135345458984375,-0.1587371826171875,-0.04736328125
1772788935675764000,3.543763916015625,-1.0252838134765625,-0.1462860107421875,-0.06732177734375
1772788935695795700,3.563795654296875,-1.02508544921875,-0.139923095703125,-0.0377655029296875
1772788935715829000,3.5838291015625,-1.010833740234375,-0.1307220458984375,-0.026153564453125
1772788935735860700,3.60386083984375,-1.02392578125,-0.1312255859375,-0.0237274169921875
1772788935755894000,3.62389404296875,-1.01910400390625,-0.136260986328125,-0.017059326171875
1772788935775926800,3.6439267578125,-0.988067626953125,-0.13629150390625,0.000091552734375
1772788935795958800,3.663958740234375,-0.98016357421875,-0.1378631591796875,-0.010101318359375
1772788935815991800,3.68399169921875,-1.01568603515625,-0.1435089111328125,-0.014892578125
1772788935836024800,3.70402490234375,-1.0333099365234375,-0.1430511474609375,-0.0189361572265625
1772788935856056800,3.724056884765625,-1.0171661376953125,-0.1367645263671875,0.0021820068359375
1772788935876089900,3.74408984375,-0.9632568359375,-0.1376495361328125,0.003448486328125
1772788935896121900,3.764121826171875,-0.9371337890625,-0.1447296142578125,0.0061798095703125
1772788935916155000,3.78415478515625,-0.97686767578125,-0.15789794921875,-0.0076904296875
1772788935936188000,3.80418798828125,-0.976898193359375,-0.1664581298828125,-0.002288818359375
1772788935956220000,3.824219970703125,-0.954437255859375,-0.1627044677734375,0.0191497802734375
1772788935976252700,3.844252685546875,-0.9327545166015625,-0.155914306640625,0.023895263671875
1772788935996286000,3.864285888671875,-0.955535888671875,-0.15435791015625,0.011749267578125
1772788936016318000,3.88431787109375,-0.9774932861328125,-0.1507720947265625,-0.000701904296875
1772788936036351200,3.904351318359375,-0.9870758056640625,-0.143035888671875,-0.0042724609375
1772788936056383200,3.92438330078125,-0.9708404541015625,-0.1413421630859375,0.001708984375
1772788936076416000,3.944416015625,-0.979339599609375,-0.14276123046875,-0.0001678466796875
1772788936096449000,3.964448974609375,-1.003692626953125,-0.1497955322265625,-0.007965087890625
1772788936116481000,3.98448095703125,-1.01568603515625,-0.15679931640625,-0.019317626953125
1772788936136511000,4.004510986328125,-0.99530029296875,-0.1584014892578125,-0.0048828125
1772788936156543000,4.02454296875,-1.0048065185546875,-0.1505126953125,0.0100555419921875
1772788936176576300,4.044576171875,-1.000701904296875,-0.1599884033203125,-0.0103912353515625
1772788936196609000,4.064609130859375,-1.00152587890625,-0.1579742431640625,-0.0061798095703125
1772788936216641300,4.084641357421875,-1.0045013427734375,-0.1606292724609375,-0.00360107421875
1772788936236674000,4.104674072265625,-0.9930267333984375,-0.152099609375,-0.0018157958984375
1772788936256707000,4.12470703125,-0.9748687744140625,-0.143218994140625,-0.011077880859375
1772788936276739000,4.144739013671875,-0.9609527587890625,-0.1432647705078125,-0.017120361328125
1772788936296772000,4.164772216796875,-0.9745025634765625,-0.144500732421875,-0.0236663818359375
1772788936316804000,4.18480419921875,-0.9976806640625,-0.1460418701171875,-0.030975341796875
1772788936336837000,4.204837158203125,-1.004058837890625,-0.1515350341796875,-0.0307769775390625
1772788936356870100,4.2248701171875,-0.983123779296875,-0.1518707275390625,-0.03216552734375
1772788936376902100,4.244902099609375,-0.9791259765625,-0.1466522216796875,-0.0335235595703125
1772788936396935200,4.26493505859375,-0.9959716796875,-0.1436004638671875,-0.034027099609375
1772788936416968200,4.28496826171875,-1.0092315673828125,-0.1520538330078125,-0.02618408203125
1772788936437000000,4.305,-0.98406982421875,-0.1535186767578125,-0.0157928466796875
1772788936457033200,4.325033203125,-0.989288330078125,-0.16131591796875,-0.0149688720703125
1772788936477065000,4.34506494140625,-0.98468017578125,-0.16094970703125,-0.015350341796875
1772788936497098200,4.36509814453125,-0.996307373046875,-0.1617889404296875,-0.015869140625
1772788936517131000,4.385131103515625,-0.975830078125,-0.1617279052734375,-0.011688232421875
1772788936537163000,4.4051630859375,-0.9603118896484375,-0.1661529541015625,-0.0206451416015625
1772788936557199000,4.42519921875,-0.9781646728515625,-0.1587677001953125,-0.01361083984375
1772788936577232100,4.445232177734375,-0.9923248291015625,-0.1563873291015625,0.0019683837890625
1772788936597264100,4.46526416015625,-0.9970245361328125,-0.1543121337890625,-0.0034942626953125
1772788936617297200,4.485297119140625,-0.9999237060546875,-0.154205322265625,-0.0032501220703125
1772788936637330200,4.505330078125,-0.9808502197265625,-0.150634765625,-0.0016326904296875
1772788936657362200,4.525362060546875,-0.97662353515625,-0.1513214111328125,-0.0015106201171875
1772788936677395200,4.545395263671875,-0.9913482666015625,-0.1495361328125,-0.004547119140625
1772788936697428200,4.56542822265625,-0.9964447021484375,-0.1466064453125,-0.0118865966796875
1772788936717460200,4.585460205078125,-0.994964599609375,-0.1411895751953125,-0.002838134765625
1772788936737493000,4.605492919921875,-0.99322509765625,-0.1411895751953125,-0.0010528564453125
1772788936757525200,4.625525146484375,-1.002960205078125,-0.1441802978515625,-0.008819580078125
1772788936777558000,4.64555810546875,-1.007080078125,-0.1550140380859375,-0.017120361328125
1772788936797591300,4.66559130859375,-0.9982147216796875,-0.1550750732421875,-0.004638671875
1772788936817623000,4.685623046875,-0.9965362548828125,-0.15997314453125,0.0025482177734375
1772788936837656000,4.705656005859375,-0.98675537109375,-0.156402587890625,0.008331298828125
1772788936857689000,4.725689208984375,-0.9938507080078125,-0.1551513671875,0.003173828125
1772788936877721000,4.74572119140625,-1.0047454833984375,-0.150848388671875,-0.00250244140625
1772788936897754000,4.765754150390625,-1.018829345703125,-0.1531829833984375,-0.012298583984375
1772788936917786000,4.7857861328125,-0.998809814453125,-0.1489410400390625,-0.0001983642578125
1772788936937819000,4.80581884765625,-0.9927978515625,-0.1441650390625,0.0002899169921875
1772788936957852200,4.82585205078125,-0.9658355712890625,-0.1521453857421875,0.0088958740234375
1772788936977884200,4.84588427734375,-0.9711456298828125,-0.1551971435546875,0.0013275146484375
1772788936997917200,4.865917236328125,-0.9866790771484375,-0.1552581787109375,-0.0101165771484375
1772788937017950000,4.885949951171875,-0.9881744384765625,-0.16229248046875,-0.000640869140625
1772788937037981700,4.905981689453125,-0.9784393310546875,-0.160675048828125,0.005645751953125
1772788937058015000,4.926014892578125,-0.9768524169921875,-0.162750244140625,0.001068115234375
1772788937078046700,4.946046630859375,-0.982513427734375,-0.1700592041015625,-0.0122833251953125
1772788937098080000,4.966080078125,-0.975830078125,-0.1662750244140625,-0.0121002197265625
1772788937118112800,4.98611279296875,-0.98406982421875,-0.1615447998046875,-0.0082244873046875
1772788937138145000,5.00614501953125,-0.9880828857421875,-0.154571533203125,0.000335693359375
1772788937158177800,5.026177734375,-0.99755859375,-0.1542510986328125,0.0022430419921875
1772788937178211000,5.046211181640625,-0.98663330078125,-0.1539764404296875,0.0048828125
1772788937198242800,5.066242919921875,-0.972625732421875,-0.15753173828125,-0.0104827880859375
1772788937218275800,5.08627587890625,-0.9674224853515625,-0.1619873046875,-0.00616455078125
1772788937238308900,5.106308837890625,-0.9803619384765625,-0.1627349853515625,-0.0065460205078125
1772788937258340900,5.1263408203125,-0.9858551025390625,-0.1594085693359375,0.0070037841796875
1772788937278374000,5.146373779296875,-0.989105224609375,-0.1576385498046875,0.0021820068359375
1772788937298406000,5.166406005859375,-0.9828948974609375,-0.151702880859375,0.0051116943359375
1772788937318438700,5.186438720703125,-0.9803009033203125,-0.149200439453125,0.00103759765625
1772788937338472000,5.206471923828125,-0.99237060546875,-0.1531219482421875,-0.019317626953125
1772788937358504000,5.22650390625,-1.003936767578125,-0.1546478271484375,-0.01861572265625
1772788937378537000,5.246536865234375,-0.9924468994140625,-0.15716552734375,-0.0099029541015625
1772788937398569700,5.26656982421875,-0.98358154296875,-0.154083251953125,-0.0089263916015625
1772788937418601700,5.286601806640625,-0.9836578369140625,-0.151641845703125,-0.0107269287109375
1772788937438634800,5.306634765625,-0.992950439453125,-0.1518707275390625,-0.01446533203125
1772788937458666800,5.326666748046875,-0.99615478515625,-0.148651123046875,-0.009246826171875
1772788937478700000,5.346699951171875,-1.0108184814453125,-0.143707275390625,-0.00054931640625
1772788937498732800,5.36673291015625,-0.9986419677734375,-0.140228271484375,-0.0034637451171875
1772788937518765000,5.38676513671875,-0.972503662109375,-0.1451873779296875,-0.009796142578125
1772788937538797800,5.4067978515625,-0.9916229248046875,-0.1462554931640625,-0.0158538818359375
1772788937558831000,5.4268310546875,-1.0198822021484375,-0.144012451171875,-0.01397705078125
1772788937578862800,5.44686279296875,-1.0033416748046875,-0.14239501953125,-0.003631591796875
1772788937598895900,5.466895751953125,-0.9865264892578125,-0.1446075439453125,0.0011749267578125
1772788937618927900,5.486927978515625,-0.9832000732421875,-0.143707275390625,-0.0012054443359375
1772788937638961000,5.5069609375,-1.0132598876953125,-0.13739013671875,0.001678466796875
1772788937658994000,5.526993896484375,-1.009857177734375,-0.1366119384765625,0.00030517578125
1772788937679026000,5.54702587890625,-0.9959716796875,-0.137786865234375,-0.0030059814453125
1772788937699058700,5.56705859375,-0.988525390625,-0.136260986328125,0.009521484375
1772788937719092000,5.587092041015625,-0.9855194091796875,-0.1383056640625,0.01336669921875
1772788937739123700,5.607123779296875,-0.9829254150390625,-0.13751220703125,0.0161590576171875
1772788937759157000,5.627156982421875,-0.985626220703125,-0.138946533203125,0.0071563720703125
1772788937779189000,5.64718896484375,-0.992401123046875,-0.1389007568359375,-0.002593994140625
1772788937799221800,5.6672216796875,-1.00787353515625,-0.1368865966796875,-0.004425048828125
1772788937819254800,5.6872548828125,-1.0015716552734375,-0.1356201171875,0.0092010498046875
1772788937839286800,5.707286865234375,-0.9734649658203125,-0.1413421630859375,0.0093841552734375
1772788937859319800,5.72731982421875,-0.9818572998046875,-0.1493682861328125,0.0108795166015625
1772788937879352800,5.747352783203125,-0.9816131591796875,-0.148834228515625,0.0097808837890625
1772788937899385000,5.767385009765625,-0.9818115234375,-0.14959716796875,0.0045318603515625
1772788937919417900,5.78741796875,-0.984100341796875,-0.146240234375,0.0064239501953125
1772788937939451000,5.807450927734375,-0.9856719970703125,-0.1446990966796875,0.0046539306640625
1772788937959483000,5.82748291015625,-0.9918212890625,-0.1458740234375,0.00115966796875
1772788937979516000,5.847515869140625,-0.9951629638671875,-0.1433868408203125,0.0009002685546875
1772788937999548000,5.8675478515625,-0.9847869873046875,-0.1354522705078125,0.0010528564453125
1772788938019581000,5.887580810546875,-0.9850921630859375,-0.1345672607421875,-0.0008697509765625
1772788938039614000,5.907614013671875,-0.9908599853515625,-0.1356964111328125,-0.0055999755859375
1772788938059646000,5.92764599609375,-0.990325927734375,-0.1326751708984375,-0.011077880859375
1772788938079679000,5.947678955078125,-0.9875640869140625,-0.1271209716796875,0.0100555419921875
1772788938099712000,5.9677119140625,-1.001068115234375,-0.1330413818359375,-0.0162506103515625
1772788938119744000,5.987743896484375,-0.985809326171875,-0.135009765625,-0.0110931396484375
1772788938139777000,6.007777099609375,-0.98175048828125,-0.1537322998046875,-0.021575927734375
1772788938159808800,6.027808837890625,-0.9902191162109375,-0.1529998779296875,-0.0111083984375
1772788938179842000,6.047842041015625,-0.9874267578125,-0.1446075439453125,-0.00982666015625
1772788938199874800,6.067874755859375,-0.9895172119140625,-0.138671875,-0.0037841796875
1772788938219907000,6.087906982421875,-0.9990386962890625,-0.13311767578125,-0.00225830078125
1772788938239939800,6.10793994140625,-1.01202392578125,-0.130279541015625,-0.00445556640625
1772788938259973000,6.12797314453125,-1.0022125244140625,-0.123199462890625,-0.0001678466796875
1772788938280004900,6.1480048828125,-0.99737548828125,-0.1193084716796875,0.0063018798828125
1772788938300038100,6.1680380859375,-0.9973907470703125,-0.11712646484375,0.002716064453125
1772788938320071000,6.18807080078125,-1.00341796875,-0.1215972900390625,0.0035400390625
1772788938340103000,6.20810302734375,-0.9959259033203125,-0.1240997314453125,0.0082550048828125
1772788938360136000,6.228135986328125,-0.999847412109375,-0.125030517578125,0.01580810546875
1772788938380168000,6.24816796875,-0.9969329833984375,-0.1260986328125,0.0107269287109375
1772788938400201000,6.268200927734375,-0.9903717041015625,-0.1301422119140625,0.003997802734375
1772788938420234000,6.28823388671875,-0.987060546875,-0.130859375,0.003997802734375
1772788938440266000,6.308265869140625,-0.98675537109375,-0.1336669921875,0.0088348388671875
1772788938460299000,6.328299072265625,-0.9892425537109375,-0.1297149658203125,0.00616455078125
1772788938480331800,6.348331787109375,-0.9971160888671875,-0.129638671875,-0.0011444091796875
1772788938500364000,6.368364013671875,-1.0062713623046875,-0.1284637451171875,-0.0063934326171875
1772788938520397000,6.38839697265625,-0.9891510009765625,-0.1285400390625,-0.000579833984375
1772788938540428800,6.4084287109375,-0.9853363037109375,-0.132415771484375,0.0020904541015625
1772788938560462000,6.428462158203125,-0.9833831787109375,-0.1297149658203125,0.0038909912109375
1772788938580494800,6.448494873046875,-0.9985504150390625,-0.13232421875,0.0072784423828125
1772788938600527000,6.468527099609375,-0.9918060302734375,-0.1329498291015625,-0.0000152587890625
1772788938620560000,6.488559814453125,-0.9976348876953125,-0.13397216796875,-0.0051727294921875
1772788938640593200,6.50859326171875,-0.9896087646484375,-0.12847900390625,-0.002044677734375
1772788938660625000,6.528625,-0.996734619140625,-0.1252288818359375,0.0050201416015625
1772788938680658200,6.548658203125,-1.004913330078125,-0.1292877197265625,0.002410888671875
1772788938700691000,6.56869091796875,-1.00335693359375,-0.140960693359375,-0.0076904296875
1772788938720723000,6.588722900390625,-0.97991943359375,-0.143798828125,-0.0131988525390625
1772788938740756000,6.608755859375,-0.9622955322265625,-0.144866943359375,-0.0120086669921875
1772788938760788000,6.6287880859375,-0.9858551025390625,-0.1402587890625,-0.001190185546875
1772788938780821000,6.648821044921875,-0.98309326171875,-0.1392669677734375,0.0152130126953125
1772788938800854000,6.66885400390625,-0.9868011474609375,-0.142974853515625,0.0149078369140625
1772788938820886000,6.688885986328125,-0.98712158203125,-0.1356353759765625,-0.0034637451171875
1772788938840919000,6.7089189453125,-0.9900970458984375,-0.1303558349609375,0.00830078125
1772788938860951800,6.728951904296875,-0.99847412109375,-0.124755859375,0.01953125
1772788938880984000,6.748984130859375,-0.9877471923828125,-0.12274169921875,0.0231781005859375
1772788938901016800,6.769016845703125,-0.9921112060546875,-0.1260986328125,0.0213623046875
1772788938921048800,6.789048828125,-0.983062744140625,-0.1342010498046875,0.0106658935546875
1772788938941082000,6.80908203125,-0.99554443359375,-0.1350860595703125,0.012298583984375
1772788938961115000,6.829114990234375,-0.9986114501953125,-0.130645751953125,0.024261474609375
1772788938981147100,6.849147216796875,-1.00250244140625,-0.129547119140625,0.026031494140625
1772788939001180000,6.869179931640625,-0.995025634765625,-0.1312713623046875,0.01324462890625
1772788939021213000,6.889212890625,-0.9962310791015625,-0.1288299560546875,0.0078125
1772788939041244700,6.90924462890625,-0.9954376220703125,-0.1235809326171875,0.0124359130859375
1772788939061278000,6.92927783203125,-0.9853668212890625,-0.12762451171875,0.009368896484375
1772788939081310700,6.949310791015625,-1.00360107421875,-0.1302032470703125,-0.00347900390625
1772788939101343000,6.969343017578125,-1.0111846923828125,-0.1323089599609375,0.002685546875
1772788939121375700,6.989375732421875,-0.9888916015625,-0.1338043212890625,0.006256103515625
1772788939141408000,7.009407958984375,-0.99542236328125,-0.1360015869140625,0.006561279296875
1772788939161440800,7.029440673828125,-0.9989776611328125,-0.1340179443359375,0.0034942626953125
1772788939181474000,7.04947412109375,-0.996368408203125,-0.131561279296875,0.001861572265625
1772788939201505800,7.069505859375,-0.9816131591796875,-0.13250732421875,-0.004150390625
1772788939221538800,7.089538818359375,-0.996124267578125,-0.1359710693359375,-0.0041351318359375
1772788939241571800,7.10957177734375,-0.990386962890625,-0.1370086669921875,0.0085296630859375
1772788939261603800,7.129603759765625,-0.990264892578125,-0.130218505859375,0.01422119140625
1772788939281636900,7.149636962890625,-0.9908599853515625,-0.1286773681640625,0.015228271484375
1772788939301670000,7.169669921875,-0.9767303466796875,-0.1274566650390625,0.0233917236328125
1772788939321702000,7.189701904296875,-0.9813995361328125,-0.1364898681640625,0.0120086669921875
1772788939341735000,7.20973486328125,-0.994964599609375,-0.13922119140625,0.015777587890625
1772788939361767000,7.229766845703125,-0.98028564453125,-0.1421051025390625,0.0255279541015625
1772788939381800000,7.249800048828125,-0.977142333984375,-0.1417388916015625,0.0112457275390625
1772788939401832700,7.269832763671875,-0.9925537109375,-0.13787841796875,0.0183563232421875
1772788939421864700,7.28986474609375,-0.989227294921875,-0.134307861328125,0.01531982421875
1772788939441898000,7.30989794921875,-0.996307373046875,-0.12994384765625,0.020050048828125
1772788939461930800,7.3299306640625,-0.9914093017578125,-0.127288818359375,0.0142822265625
1772788939481963000,7.349962890625,-0.9927978515625,-0.1290130615234375,0.006011962890625
1772788939501995800,7.369995849609375,-1.0043182373046875,-0.1262359619140625,0.0036468505859375
1772788939522028800,7.39002880859375,-1.01763916015625,-0.1260986328125,0.0091705322265625
1772788939542060800,7.410060791015625,-1.0067596435546875,-0.1252288818359375,0.020172119140625
1772788939562094000,7.430093994140625,-0.9836273193359375,-0.1258697509765625,0.0157928466796875
1772788939582125800,7.450125732421875,-0.9938201904296875,-0.13299560546875,0.0002288818359375
1772788939602158800,7.470158935546875,-1.001708984375,-0.135894775390625,-0.00445556640625
1772788939622191900,7.49019189453125,-0.9925384521484375,-0.1347198486328125,0.010284423828125
1772788939642223900,7.510223876953125,-0.9727935791015625,-0.13720703125,0.0204620361328125
1772788939662257000,7.5302568359375,-0.9727020263671875,-0.1447906494140625,0.0110321044921875
1772788939682290000,7.5502900390625,-0.9893646240234375,-0.150054931640625,0.007476806640625
1772788939702321700,7.57032177734375,-0.9879150390625,-0.15057373046875,0.0131988525390625
1772788939722355000,7.59035498046875,-0.9853515625,-0.145721435546875,0.02484130859375
1772788939742387700,7.6103876953125,-0.9769134521484375,-0.1435546875,0.022430419921875
1772788939762420000,7.630419921875,-0.986724853515625,-0.1402587890625,0.0175933837890625
1772788939782452700,7.65045263671875,-1.00408935546875,-0.1358184814453125,0.0172576904296875
1772788939802484700,7.670484619140625,-1.0051422119140625,-0.1302490234375,0.0289764404296875
1772788939822517800,7.690517822265625,-0.9893646240234375,-0.1252288818359375,0.034271240234375
1772788939842550800,7.71055078125,-0.989715576171875,-0.1303253173828125,0.0254364013671875
1772788939862583000,7.7305830078125,-0.9813690185546875,-0.1311187744140625,0.0192718505859375
1772788939882615800,7.75061572265625,-0.98785400390625,-0.133209228515625,0.018463134765625
1772788939902648800,7.77064892578125,-0.9985809326171875,-0.1312408447265625,0.028564453125
1772788939922680800,7.790680908203125,-1.009674072265625,-0.138916015625,0.02685546875
1772788939942713900,7.8107138671875,-1.00518798828125,-0.136444091796875,0.0244598388671875
1772788939962747000,7.830746826171875,-0.988739013671875,-0.1363372802734375,0.0287933349609375
1772788939982779000,7.85077880859375,-0.993011474609375,-0.1351318359375,0.0229034423828125
1772788940002812000,7.87081201171875,-1.0065155029296875,-0.1313323974609375,0.0245513916015625
1772788940022844000,7.890843994140625,-0.9933319091796875,-0.1269378662109375,0.02935791015625
1772788940042877200,7.910877197265625,-0.977447509765625,-0.130035400390625,0.0333099365234375
1772788940062910000,7.930909912109375,-0.9819488525390625,-0.1293792724609375,0.0305633544921875
1772788940082942000,7.95094189453125,-0.9910888671875,-0.13427734375,0.0335845947265625
1772788940102975200,7.970975341796875,-0.991546630859375,-0.1370697021484375,0.037139892578125
1772788940123008000,7.991008056640625,-0.9625396728515625,-0.1418304443359375,0.03228759765625
1772788940143037200,8.011037109375,-0.9734039306640625,-0.1409454345703125,0.026458740234375
1772788940163070200,8.0310703125,-0.9913330078125,-0.1398468017578125,0.029693603515625
1772788940183102200,8.051102294921876,-1.0064697265625,-0.135986328125,0.027740478515625
1772788940203135000,8.071135009765625,-0.9995574951171875,-0.131500244140625,0.02777099609375
1772788940223168300,8.091168212890626,-0.991485595703125,-0.1278533935546875,0.022186279296875
1772788940243200000,8.111199951171875,-0.9954986572265625,-0.1217041015625,0.02105712890625
1772788940263233300,8.1312333984375,-1.0139007568359375,-0.118896484375,0.0224456787109375
1772788940283266000,8.15126611328125,-1.016937255859375,-0.1186370849609375,0.017578125
1772788940303298000,8.171298095703126,-0.9963836669921875,-0.1184844970703125,0.0100860595703125
1772788940323331000,8.1913310546875,-1.000823974609375,-0.120330810546875,0.00677490234375
1772788940343363000,8.211363037109376,-0.9986572265625,-0.1227264404296875,0.0213165283203125
1772788940363396000,8.23139599609375,-1.0002593994140625,-0.12420654296875,0.02130126953125
1772788940383429000,8.25142919921875,-0.9780731201171875,-0.1288909912109375,0.011383056640625
1772788940403461000,8.271461181640625,-0.986572265625,-0.1302490234375,0.0072174072265625
1772788940423494100,8.291494140625,-0.9938507080078125,-0.1314239501953125,0.02044677734375
1772788940443527200,8.311527099609375,-0.9973602294921875,-0.1254425048828125,0.027069091796875
1772788940463559200,8.33155908203125,-0.9954376220703125,-0.123291015625,0.0244903564453125
1772788940483592000,8.351592041015625,-0.96954345703125,-0.1285858154296875,0.00701904296875
1772788940503625200,8.371625244140626,-0.98236083984375,-0.1331787109375,0.000732421875
1772788940523657000,8.391656982421875,-0.9794158935546875,-0.130279541015625,0.0183258056640625
1772788940543692000,8.411692138671874,-0.9913177490234375,-0.1281890869140625,0.02288818359375
1772788940563725000,8.43172509765625,-1.002685546875,-0.1288909912109375,0.0277252197265625
1772788940583757000,8.451757080078124,-0.98388671875,-0.127838134765625,0.02288818359375
1772788940603790000,8.4717900390625,-0.9946746826171875,-0.1280517578125,0.01251220703125
1772788940623823000,8.491822998046874,-0.99322509765625,-0.124755859375,0.0142669677734375
1772788940643855000,8.511855224609375,-0.98291015625,-0.1217498779296875,0.0196990966796875
1772788940663888100,8.53188818359375,-0.990509033203125,-0.121551513671875,0.020233154296875
1772788940683921200,8.551921142578125,-1.0095367431640625,-0.1210784912109375,0.0181427001953125
1772788940703953200,8.571953125,-1.01922607421875,-0.1246337890625,0.0175933837890625
1772788940723986200,8.591986083984375,-0.991119384765625,-0.123626708984375,0.017791748046875
1772788940744019000,8.61201904296875,-0.9859771728515625,-0.123016357421875,0.0135345458984375
1772788940764051200,8.63205126953125,-1.0052490234375,-0.1248931884765625,0.01324462890625
1772788940784084000,8.652083984375,-0.9898681640625,-0.12744140625,0.0244293212890625
1772788940804116000,8.672115966796875,-0.9951324462890625,-0.130401611328125,0.0088653564453125
1772788940824149200,8.692149169921874,-0.9976348876953125,-0.1282958984375,0.009063720703125
1772788940844182000,8.71218212890625,-0.978363037109375,-0.1218414306640625,0.01129150390625
1772788940864214300,8.73221435546875,-0.98583984375,-0.12689208984375,0.01055908203125
1772788940884247000,8.7522470703125,-1.0053253173828125,-0.12664794921875,0.023529052734375
1772788940904280000,8.772280029296875,-0.9869537353515625,-0.1285552978515625,0.018829345703125
1772788940924312000,8.79231201171875,-0.988616943359375,-0.1295928955078125,0.015869140625
1772788940944345000,8.812344970703125,-0.9899749755859375,-0.1251068115234375,0.024749755859375
1772788940964378000,8.832378173828126,-0.987823486328125,-0.1262664794921875,0.0234375
1772788940984410000,8.85241015625,-0.9976806640625,-0.124237060546875,0.0164642333984375
1772788941004443100,8.872443115234375,-1.0045013427734375,-0.1266937255859375,0.01593017578125
1772788941024476200,8.89247607421875,-0.9904937744140625,-0.1192474365234375,0.0303497314453125
1772788941044507600,8.912507568359375,-0.9998779296875,-0.117767333984375,0.0352935791015625
1772788941064540700,8.932540771484375,-1.009124755859375,-0.1228790283203125,0.016632080078125
1772788941084572700,8.95257275390625,-0.992950439453125,-0.12152099609375,0.00885009765625
1772788941104605700,8.972605712890624,-0.9893341064453125,-0.1258544921875,0.02081298828125
1772788941124638500,8.992638427734375,-0.989349365234375,-0.1281585693359375,0.024932861328125
1772788941144670700,9.012670654296874,-0.9943695068359375,-0.1259613037109375,0.0344696044921875
1772788941164703500,9.032703369140625,-0.99053955078125,-0.127471923828125,0.041748046875
1772788941184736800,9.05273681640625,-0.981231689453125,-0.129608154296875,0.0207366943359375
1772788941204768800,9.072768798828125,-0.97039794921875,-0.127227783203125,0.0204925537109375
1772788941224801500,9.092801513671875,-0.9936981201171875,-0.12823486328125,0.025238037109375
1772788941244834600,9.11283447265625,-1.01251220703125,-0.1253814697265625,0.0218963623046875
1772788941264866600,9.132866455078124,-0.99310302734375,-0.122344970703125,0.01611328125
1772788941284899600,9.152899658203125,-0.990020751953125,-0.12518310546875,0.0117645263671875
1772788941304932600,9.1729326171875,-0.9775543212890625,-0.13482666015625,0.0074920654296875
1772788941324964900,9.19296484375,-0.9968414306640625,-0.1401519775390625,-0.001312255859375
1772788941344997600,9.21299755859375,-1.00445556640625,-0.1368408203125,0.0041961669921875
1772788941365030700,9.23303076171875,-1.0080413818359375,-0.1326904296875,0.0167694091796875
1772788941385062700,9.253062744140625,-0.9962921142578125,-0.127532958984375,0.0214996337890625
1772788941405095700,9.273095703125,-1.0040130615234375,-0.126312255859375,0.0187530517578125
1772788941425128700,9.293128662109375,-0.993621826171875,-0.1308746337890625,0.016845703125
1772788941445160700,9.31316064453125,-0.9681549072265625,-0.139862060546875,0.0172119140625
1772788941465193700,9.33319384765625,-0.97900390625,-0.1494598388671875,0.0299530029296875
1772788941485225700,9.353225830078125,-0.9789886474609375,-0.138702392578125,0.0399932861328125
1772788941505258500,9.373258544921875,-0.968780517578125,-0.1304168701171875,0.04852294921875
1772788941525291800,9.393291748046876,-0.9771881103515625,-0.122406005859375,0.044921875
1772788941545323500,9.413323486328125,-0.9911346435546875,-0.121917724609375,0.0301055908203125
1772788941565356800,9.433356689453126,-0.998138427734375,-0.1196136474609375,0.0205078125
1772788941585389600,9.4533896484375,-1.004913330078125,-0.1146087646484375,0.01702880859375
1772788941605421600,9.473421630859375,-1.00762939453125,-0.1170806884765625,0.0222320556640625
1772788941625454600,9.49345458984375,-1.0077667236328125,-0.118988037109375,0.0146026611328125
1772788941645487600,9.513487548828126,-1.0016021728515625,-0.1223297119140625,0.01068115234375
1772788941665519600,9.53351953125,-1.008056640625,-0.1248931884765625,0.012298583984375
1772788941685552600,9.553552734375,-1.010528564453125,-0.1289520263671875,0.0144805908203125
1772788941705584600,9.573584716796875,-0.991668701171875,-0.130401611328125,0.009002685546875
1772788941725617700,9.59361767578125,-0.9947967529296875,-0.1319427490234375,0.00927734375
1772788941745650700,9.613650634765625,-0.988311767578125,-0.136474609375,0.00482177734375
1772788941765682700,9.6336826171875,-0.9920501708984375,-0.1422882080078125,0.018890380859375
1772788941785715500,9.653715576171875,-0.9853668212890625,-0.1482696533203125,0.0270538330078125
1772788941805748700,9.673748779296876,-0.9643096923828125,-0.1475982666015625,0.039520263671875
1772788941825780700,9.69378076171875,-0.9514312744140625,-0.1367950439453125,0.0263671875
1772788941845813800,9.713813720703126,-0.9754791259765625,-0.130218505859375,0.0131072998046875
1772788941865846500,9.733846435546875,-0.9949798583984375,-0.1222686767578125,0.0245361328125
1772788941885878500,9.75387841796875,-0.98614501953125,-0.1126251220703125,0.02520751953125
1772788941905911800,9.773911865234375,-0.980621337890625,-0.1100616455078125,0.03204345703125
1772788941925944600,9.793944580078126,-1.00152587890625,-0.1121063232421875,0.0177154541015625
1772788941945976800,9.813976806640625,-1.0243682861328125,-0.11676025390625,0.014312744140625
1772788941966009600,9.834009521484376,-1.00726318359375,-0.114227294921875,0.0216827392578125
1772788941986041600,9.85404150390625,-1.0017852783203125,-0.11334228515625,0.030029296875
1772788942006074600,9.87407470703125,-1.0050506591796875,-0.1186370849609375,0.0253448486328125
1772788942026107600,9.894107666015625,-0.9987945556640625,-0.1239166259765625,0.0169219970703125
1772788942046140400,9.914140380859376,-0.9762725830078125,-0.131011962890625,0.0130767822265625
1772788942066173400,9.93417333984375,-0.9849395751953125,-0.132049560546875,0.0180816650390625
1772788942086206500,9.95420654296875,-1.0030517578125,-0.129058837890625,0.0329742431640625
1772788942106238700,9.97423876953125,-0.9896087646484375,-0.124267578125,0.0319671630859375
1772788942126271500,9.994271484375,-0.995697021484375,-0.1211395263671875,0.018524169921875
1772788942146304500,10.014304443359375,-0.9879608154296875,-0.120452880859375,0.018157958984375
1772788942166336500,10.03433642578125,-0.9957275390625,-0.1147613525390625,0.022186279296875
1772788942186369500,10.05436962890625,-0.9951171875,-0.1150360107421875,0.0232086181640625
1772788942206402600,10.074402587890624,-1.0015869140625,-0.11810302734375,0.0269775390625
1772788942226434600,10.0944345703125,-0.9995880126953125,-0.1233673095703125,0.01910400390625
1772788942246467600,10.114467529296874,-0.9986419677734375,-0.1215362548828125,0.0102691650390625
1772788942266499600,10.13449951171875,-0.9873199462890625,-0.1226806640625,0.008026123046875
1772788942286532400,10.154532470703124,-0.988494873046875,-0.1213531494140625,0.0259857177734375
1772788942306565600,10.174565673828125,-0.993499755859375,-0.1221466064453125,0.0250396728515625
1772788942326597400,10.194597412109376,-1.0095977783203125,-0.1237030029296875,0.0194854736328125
1772788942346630700,10.214630615234375,-1.00482177734375,-0.1255035400390625,0.0134429931640625
1772788942366663400,10.234663330078124,-0.986297607421875,-0.1224365234375,0.0221710205078125
1772788942386695400,10.2546953125,-0.987548828125,-0.12115478515625,0.0271453857421875
1772788942406728400,10.274728515625,-0.997528076171875,-0.118255615234375,0.02099609375
1772788942426761500,10.294761474609375,-1.0065155029296875,-0.1194000244140625,0.0275115966796875
1772788942446793500,10.31479345703125,-0.983978271484375,-0.123504638671875,0.025238037109375
1772788942466826500,10.334826416015625,-0.9893951416015625,-0.12457275390625,0.02545166015625
1772788942486858500,10.3548583984375,-0.9823150634765625,-0.1230621337890625,0.0280303955078125
1772788942506891500,10.3748916015625,-0.990081787109375,-0.1229248046875,0.0245513916015625
1772788942526924300,10.39492431640625,-0.9889678955078125,-0.122283935546875,0.0236053466796875
1772788942546956500,10.41495654296875,-0.994659423828125,-0.12384033203125,0.0180511474609375
1772788942566989300,10.4349892578125,-0.9987945556640625,-0.1229248046875,0.0181884765625
1772788942587022600,10.455022705078125,-1.0011444091796875,-0.1194000244140625,0.022064208984375
1772788942607054600,10.4750546875,-0.9836578369140625,-0.11553955078125,0.031402587890625
1772788942627087600,10.495087646484375,-0.993438720703125,-0.1153564453125,0.0171356201171875
1772788942647120400,10.515120361328124,-1.006256103515625,-0.118896484375,0.01318359375
1772788942667152400,10.53515234375,-1.006622314453125,-0.11553955078125,0.0162200927734375
1772788942687185400,10.555185302734374,-0.9922027587890625,-0.11541748046875,0.025115966796875
1772788942707218400,10.575218505859375,-0.9766082763671875,-0.118743896484375,0.022430419921875
1772788942727250700,10.595250732421874,-0.993896484375,-0.1258697509765625,0.017852783203125
1772788942747283500,10.615283447265625,-1.006256103515625,-0.1247711181640625,0.02813720703125
1772788942767315500,10.6353154296875,-0.981231689453125,-0.1244354248046875,0.0230712890625
1772788942787348500,10.655348388671875,-0.987945556640625,-0.1266632080078125,0.0242767333984375
1772788942807381500,10.675381591796874,-0.9999542236328125,-0.126708984375,0.0294342041015625
1772788942827413500,10.69541357421875,-0.9795379638671875,-0.1201019287109375,0.0283355712890625
1772788942847446500,10.715446533203124,-0.989593505859375,-0.11614990234375,0.02490234375
1772788942867479600,10.7354794921875,-1.0013885498046875,-0.1175384521484375,0.022369384765625
1772788942887511600,10.755511474609374,-0.9971466064453125,-0.11541748046875,0.027313232421875
1772788942907544300,10.77554443359375,-0.9973907470703125,-0.1159820556640625,0.0210113525390625
1772788942927577600,10.79557763671875,-0.99420166015625,-0.1166229248046875,0.022308349609375
1772788942947609300,10.815609375,-0.9911651611328125,-0.1223907470703125,0.0252685546875
1772788942967642600,10.835642578125,-0.98284912109375,-0.122955322265625,0.02178955078125
1772788942987675400,10.85567529296875,-1.0001983642578125,-0.125091552734375,0.018218994140625
1772788943007707600,10.875707763671874,-0.9975433349609375,-0.1256866455078125,0.0172119140625
1772788943027740400,10.895740478515625,-0.986602783203125,-0.1187286376953125,0.0298309326171875
1772788943047772700,10.915772705078124,-0.97705078125,-0.118408203125,0.019561767578125
1772788943067804700,10.9358046875,-1.007904052734375,-0.1143646240234375,0.023223876953125
1772788943087837400,10.95583740234375,-1.0104217529296875,-0.1142425537109375,0.0205841064453125
1772788943107869700,10.97586962890625,-0.99786376953125,-0.1142120361328125,0.021484375
1772788943127902500,10.99590234375,-0.9886016845703125,-0.1192169189453125,0.022857666015625
1772788943147935700,11.015935791015625,-0.99151611328125,-0.1222991943359375,0.0222320556640625
1772788943167967500,11.035967529296874,-0.9889984130859375,-0.123565673828125,0.006072998046875
1772788943188000500,11.05600048828125,-0.9918365478515625,-0.120330810546875,0.02410888671875
1772788943208033500,11.076033447265624,-0.99566650390625,-0.1161956787109375,0.0223846435546875
1772788943228065500,11.0960654296875,-0.9935302734375,-0.1174468994140625,0.025543212890625
1772788943248098600,11.1160986328125,-0.988433837890625,-0.120574951171875,0.0189971923828125
1772788943268131600,11.136131591796875,-0.987884521484375,-0.123046875,0.010345458984375
1772788943288163300,11.156163330078124,-1.0042572021484375,-0.1171722412109375,0.020721435546875
1772788943308196600,11.176196533203125,-1.004638671875,-0.1106719970703125,0.032257080078125
1772788943328229400,11.1962294921875,-1.0102996826171875,-0.1103057861328125,0.0350494384765625
1772788943348261600,11.21626171875,-0.9948272705078125,-0.116241455078125,0.024017333984375
1772788943368294400,11.23629443359375,-0.969024658203125,-0.118682861328125,0.0123443603515625
1772788943388327700,11.25632763671875,-0.9898681640625,-0.119384765625,0.0068511962890625
1772788943408359400,11.276359375,-1.013427734375,-0.1214599609375,0.028594970703125
1772788943428392700,11.296392822265625,-1.006134033203125,-0.1190948486328125,0.0351104736328125
1772788943448424700,11.3164248046875,-0.9967498779296875,-0.1228179931640625,0.020233154296875
1772788943468457500,11.33645751953125,-0.9965972900390625,-0.124908447265625,0.0158538818359375
1772788943488490500,11.356490478515624,-0.98651123046875,-0.1202392578125,0.023773193359375
1772788943508522500,11.3765224609375,-0.973541259765625,-0.1174468994140625,0.025390625
1772788943528555500,11.396555419921874,-0.9904937744140625,-0.1132965087890625,0.028167724609375
1772788943548588500,11.416588623046875,-0.9938507080078125,-0.1154022216796875,0.027618408203125
1772788943568620500,11.43662060546875,-0.9787750244140625,-0.1218414306640625,0.0234527587890625
1772788943588653600,11.456653564453125,-0.9987335205078125,-0.1236114501953125,0.0178985595703125
1772788943608686300,11.476686279296874,-1.0071868896484375,-0.1220245361328125,0.01556396484375
1772788943628718600,11.496718505859375,-0.9904327392578125,-0.118621826171875,0.0225830078125
1772788943648751600,11.516751708984375,-0.9971466064453125,-0.1233978271484375,0.0146636962890625
1772788943668784600,11.53678466796875,-1.0022430419921875,-0.1240997314453125,0.0181121826171875
1772788943688816600,11.556816650390624,-0.993011474609375,-0.1230010986328125,0.021453857421875
1772788943708849400,11.576849365234375,-0.980712890625,-0.1245574951171875,0.0157623291015625
1772788943728881700,11.596881591796874,-0.9987640380859375,-0.1225738525390625,0.0080413818359375
1772788943748914400,11.61691455078125,-1.0037384033203125,-0.1196746826171875,0.01947021484375
1772788943768947700,11.63694775390625,-0.9902496337890625,-0.1150970458984375,0.0240631103515625
1772788943788979500,11.6569794921875,-0.9923248291015625,-0.119384765625,0.0175933837890625
1772788943809012500,11.677012451171874,-0.9882659912109375,-0.11895751953125,0.0215911865234375
1772788943829045500,11.69704541015625,-0.9754638671875,-0.1225128173828125,0.017974853515625
1772788943849077500,11.717077392578124,-0.9950408935546875,-0.1221466064453125,0.0178375244140625
1772788943869110500,11.737110595703125,-1.0122528076171875,-0.118804931640625,0.0181884765625
1772788943889143600,11.7571435546875,-0.9870147705078125,-0.12139892578125,0.014068603515625
1772788943909175600,11.777175537109375,-0.9901885986328125,-0.12420654296875,0.0064544677734375
1772788943929208600,11.79720849609375,-0.985137939453125,-0.120758056640625,0.01202392578125
1772788943949241600,11.81724169921875,-0.9950408935546875,-0.124725341796875,0.0146942138671875
1772788943969273600,11.837273681640625,-1.00341796875,-0.127593994140625,0.0158843994140625
1772788943989306400,11.857306396484375,-0.996124267578125,-0.124542236328125,0.01141357421875
1772788944009339600,11.877339599609375,-0.9930419921875,-0.1219635009765625,0.0081634521484375
1772788944029371400,11.897371337890625,-0.9851531982421875,-0.1142730712890625,0.0253143310546875
1772788944049405400,11.917405517578125,-0.9917144775390625,-0.1142120361328125,0.0254669189453125
1772788944069438500,11.9374384765625,-1.00823974609375,-0.1164093017578125,0.013671875
1772788944089470500,11.957470458984375,-1.00885009765625,-0.121978759765625,0.019439697265625
1772788944109503500,11.97750341796875,-0.95947265625,-0.123138427734375,0.02130126953125
1772788944129536500,11.99753662109375,-0.9672393798828125,-0.1267547607421875,0.0200042724609375
1772788944149566500,12.01756640625,-0.9894256591796875,-0.1292724609375,0.0193634033203125
1772788944169599200,12.03759912109375,-1.0106353759765625,-0.1277008056640625,0.0177154541015625
1772788944189631500,12.057631591796875,-0.99859619140625,-0.12200927734375,0.0140380859375
1772788944209664300,12.077664306640624,-0.994110107421875,-0.1169281005859375,0.01055908203125
1772788944229697500,12.097697509765625,-0.9887542724609375,-0.114532470703125,0.021270751953125
1772788944249729300,12.117729248046874,-0.9993743896484375,-0.1171722412109375,0.02020263671875
1772788944269762600,12.137762451171875,-0.99896240234375,-0.11688232421875,0.018890380859375
1772788944289795300,12.15779541015625,-1.002593994140625,-0.11810302734375,0.0187225341796875
1772788944309827300,12.177827392578125,-1.0084228515625,-0.1167755126953125,0.02398681640625
1772788944329860400,12.1978603515625,-1.0009002685546875,-0.1130523681640625,0.0291748046875
1772788944349893400,12.217893310546875,-1.0087890625,-0.1147003173828125,0.0254974365234375
1772788944369925400,12.23792529296875,-1.0130767822265625,-0.11749267578125,0.0174560546875
1772788944389958400,12.25795849609375,-0.9788665771484375,-0.1202850341796875,0.016387939453125
1772788944409991400,12.277991455078125,-0.9845123291015625,-0.1158294677734375,0.0223541259765625
1772788944430023400,12.2980234375,-1.0066680908203125,-0.1145477294921875,0.0301055908203125
1772788944450056200,12.31805615234375,-0.993133544921875,-0.1207275390625,0.028778076171875
1772788944470089500,12.33808935546875,-0.98394775390625,-0.1271820068359375,0.0160369873046875
1772788944490121500,12.35812158203125,-0.981781005859375,-0.127227783203125,0.0182647705078125
1772788944510154500,12.378154541015626,-0.994476318359375,-0.123779296875,0.0268707275390625
1772788944530187300,12.398187255859375,-0.98974609375,-0.12255859375,0.0335540771484375
1772788944550219300,12.41821923828125,-0.97528076171875,-0.124481201171875,0.0205230712890625
1772788944570254300,12.43825439453125,-0.9877471923828125,-0.1264495849609375,0.009490966796875
1772788944590287400,12.458287353515624,-0.9896697998046875,-0.12744140625,0.0164337158203125
1772788944610319400,12.4783193359375,-0.9867401123046875,-0.126678466796875,0.022430419921875
1772788944630352400,12.498352294921874,-0.99725341796875,-0.123748779296875,0.020721435546875
1772788944650385400,12.518385498046875,-0.9929656982421875,-0.120208740234375,0.0276336669921875
1772788944670417400,12.53841748046875,-0.99163818359375,-0.117156982421875,0.0223846435546875
1772788944690450400,12.558450439453125,-0.9862213134765625,-0.115081787109375,0.01800537109375
1772788944710483200,12.578483154296874,-1.0003662109375,-0.1151885986328125,0.0142364501953125
1772788944730515500,12.598515380859375,-1.0116119384765625,-0.1201019287109375,0.0116424560546875
1772788944750548500,12.618548583984374,-0.9997711181640625,-0.1215667724609375,0.0099639892578125
1772788944770581500,12.63858154296875,-0.9969024658203125,-0.1271514892578125,0.01617431640625
1772788944790613500,12.658613525390624,-0.9822540283203125,-0.1252899169921875,0.0194091796875
1772788944810646300,12.678646240234375,-0.98394775390625,-0.126129150390625,0.0134735107421875
1772788944830679300,12.69867919921875,-1.00579833984375,-0.125213623046875,0.017120361328125
1772788944850711300,12.718711181640625,-1.0161895751953125,-0.11785888671875,0.026123046875
1772788944870744600,12.73874462890625,-0.9958343505859375,-0.11468505859375,0.0318756103515625
1772788944890777300,12.75877734375,-0.98455810546875,-0.1145782470703125,0.0226593017578125
1772788944910809600,12.7788095703125,-0.988433837890625,-0.1165771484375,0.010894775390625
1772788944930842400,12.79884228515625,-0.9973297119140625,-0.117095947265625,0.011688232421875
1772788944950874400,12.818874267578124,-1.013092041015625,-0.11444091796875,0.0235443115234375
1772788944970907400,12.838907470703125,-1.0153656005859375,-0.1162567138671875,0.0151519775390625
1772788944990940400,12.8589404296875,-1.003936767578125,-0.1216888427734375,0.0246734619140625
1772788945010972400,12.878972412109375,-0.979705810546875,-0.1216888427734375,0.026336669921875
1772788945031005400,12.89900537109375,-0.9621429443359375,-0.12750244140625,0.01702880859375
1772788945051037700,12.91903759765625,-0.9879913330078125,-0.1331939697265625,0.01934814453125
1772788945071070000,12.939070068359374,-1.0055389404296875,-0.1329498291015625,0.020538330078125
1772788945091102700,12.959102783203125,-0.9951019287109375,-0.1322784423828125,0.012115478515625
1772788945111136000,12.979135986328124,-0.9877471923828125,-0.1331634521484375,0.016204833984375
1772788945131168000,12.99916796875,-0.985870361328125,-0.1270294189453125,0.028411865234375
1772788945151201000,13.019200927734374,-0.9700927734375,-0.124481201171875,0.02130126953125
1772788945171233800,13.03923388671875,-0.984954833984375,-0.1322174072265625,0.015106201171875
1772788945191265800,13.059265869140624,-0.99072265625,-0.1316680908203125,0.020782470703125
1772788945211298800,13.079298828125,-1.0162200927734375,-0.1273956298828125,0.0284271240234375
1772788945231331800,13.099331787109374,-1.0150146484375,-0.12261962890625,0.037933349609375
1772788945251364000,13.119364013671875,-0.9838409423828125,-0.126678466796875,0.027984619140625
1772788945271396900,13.13939697265625,-0.9516448974609375,-0.1295013427734375,0.0047454833984375
1772788945291430000,13.159429931640625,-0.984130859375,-0.1284027099609375,0.0055389404296875
1772788945311462000,13.1794619140625,-1.0164947509765625,-0.1329803466796875,0.0182037353515625
1772788945331495000,13.199494873046875,-1.0078277587890625,-0.1315460205078125,0.0236053466796875
1772788945351528000,13.21952783203125,-0.9803619384765625,-0.1308135986328125,0.0224151611328125
1772788945371560000,13.239559814453125,-0.9735565185546875,-0.136871337890625,0.0081329345703125
1772788945391593000,13.259593017578124,-0.9777679443359375,-0.1373748779296875,0.002044677734375
1772788945411626000,13.2796259765625,-1.0040740966796875,-0.134368896484375,0.0140228271484375
1772788945431657700,13.29965771484375,-1.0059051513671875,-0.13067626953125,0.0235595703125
1772788945451691000,13.31969091796875,-0.9731292724609375,-0.1316375732421875,0.0170440673828125
1772788945471723800,13.339723876953125,-0.9829559326171875,-0.1329345703125,0.013427734375
1772788945491756000,13.359756103515625,-0.9934844970703125,-0.12799072265625,0.0219268798828125
1772788945511788800,13.379788818359375,-0.9788970947265625,-0.124237060546875,0.0174713134765625
1772788945531822000,13.399822021484376,-0.9884185791015625,-0.1265106201171875,0.018829345703125
1772788945551853800,13.419853759765624,-1.0043487548828125,-0.1246337890625,0.02197265625
1772788945571887000,13.43988720703125,-0.99920654296875,-0.1204986572265625,0.0417938232421875
1772788945591919900,13.459919921875,-0.9916229248046875,-0.12176513671875,0.034698486328125
1772788945611951900,13.479951904296875,-0.9971466064453125,-0.127166748046875,0.0162811279296875
1772788945631985000,13.49998486328125,-1.000640869140625,-0.1297760009765625,0.0136260986328125
1772788945652018000,13.520017822265626,-0.972625732421875,-0.1301727294921875,0.010650634765625
1772788945672050000,13.5400498046875,-0.9846954345703125,-0.1308135986328125,0.0184478759765625
1772788945692083000,13.5600830078125,-1.009033203125,-0.1355743408203125,0.0203399658203125
1772788945712116000,13.580115966796875,-1.0023345947265625,-0.131195068359375,0.0196075439453125
1772788945732148000,13.60014794921875,-1.00177001953125,-0.1324920654296875,0.0160064697265625
1772788945752180700,13.6201806640625,-1.000885009765625,-0.1233673095703125,0.0219268798828125
1772788945772214000,13.640214111328126,-0.980987548828125,-0.116546630859375,0.0180816650390625
1772788945792245800,13.660245849609375,-0.9740753173828125,-0.1219482421875,0.017333984375
1772788945812279000,13.680279052734376,-0.9957733154296875,-0.1244049072265625,0.0256805419921875
1772788945832311000,13.70031103515625,-0.999053955078125,-0.1216888427734375,0.041412353515625
1772788945852343800,13.72034375,-0.99285888671875,-0.12060546875,0.0384979248046875
1772788945872376800,13.740376953125,-0.980682373046875,-0.1208343505859375,0.032196044921875
1772788945892408800,13.760408935546875,-0.9757843017578125,-0.12322998046875,0.022918701171875
1772788945912441900,13.78044189453125,-0.998870849609375,-0.1212921142578125,0.020050048828125
1772788945932475000,13.800474853515626,-1.0091705322265625,-0.120269775390625,0.02978515625
1772788945952507100,13.820507080078125,-0.9879608154296875,-0.1217498779296875,0.0159759521484375
1772788945972540000,13.840539794921876,-0.99176025390625,-0.1263427734375,0.00640869140625
1772788945992573000,13.860572998046875,-1.010498046875,-0.1270751953125,0.0067138671875
1772788946012605000,13.88060498046875,-1.00250244140625,-0.120147705078125,0.0239715576171875
1772788946032638000,13.900637939453125,-0.9733734130859375,-0.1204071044921875,0.01385498046875
1772788946052671200,13.920671142578126,-0.9795684814453125,-0.1239471435546875,0.0086517333984375
1772788946072703200,13.940703125,-1.0086822509765625,-0.1266021728515625,0.0054473876953125
1772788946092736300,13.960736328125,-1.00787353515625,-0.1235504150390625,0.0185089111328125
1772788946112769000,13.98076904296875,-0.9969482421875,-0.1161956787109375,0.029266357421875
1772788946132801300,14.00080126953125,-0.9722900390625,-0.1163787841796875,0.0284881591796875
1772788946152834300,14.020834228515625,-0.9918212890625,-0.1138916015625,0.01446533203125
1772788946172867300,14.040867431640624,-1.00958251953125,-0.1142730712890625,0.012054443359375
1772788946192899300,14.0608994140625,-0.9915771484375,-0.1124267578125,0.014617919921875
1772788946212932400,14.080932373046876,-0.996124267578125,-0.11541748046875,0.021759033203125
1772788946232965000,14.100965087890625,-0.993316650390625,-0.114990234375,0.0228729248046875
1772788946252997000,14.1209970703125,-0.997283935546875,-0.11407470703125,0.0135040283203125
1772788946273030400,14.141030517578125,-1.002685546875,-0.1149139404296875,0.010772705078125
1772788946293063200,14.161063232421874,-1.0121612548828125,-0.113555908203125,0.013885498046875
1772788946313095400,14.181095458984375,-0.9876556396484375,-0.1129150390625,0.021026611328125
1772788946333128200,14.201128173828126,-0.9803924560546875,-0.11724853515625,0.015350341796875
1772788946353161200,14.2211611328125,-1.0134124755859375,-0.12158203125,0.013336181640625
1772788946373193200,14.241193115234376,-1.012969970703125,-0.1136474609375,0.0305938720703125
1772788946393226200,14.261226318359375,-0.9655609130859375,-0.1149139404296875,0.0184173583984375
1772788946413259300,14.28125927734375,-0.9914093017578125,-0.1173553466796875,0.012420654296875
1772788946433291300,14.301291259765625,-1.0008087158203125,-0.1172027587890625,0.0246734619140625
1772788946453324300,14.32132421875,-1.002593994140625,-0.1197052001953125,0.0290069580078125
1772788946473357300,14.341357421875,-0.975830078125,-0.115631103515625,0.0323486328125
1772788946493389000,14.36138916015625,-0.961395263671875,-0.1157684326171875,0.0294647216796875
1772788946513422300,14.38142236328125,-0.9872589111328125,-0.1186065673828125,0.02252197265625
1772788946533455000,14.401455078125,-0.9975433349609375,-0.118988037109375,0.021728515625
1772788946553487400,14.4214873046875,-0.9939422607421875,-0.1168975830078125,0.0188751220703125
1772788946573520100,14.44152001953125,-0.9949493408203125,-0.1162109375,0.0233306884765625
1772788946593553400,14.461553466796875,-0.9847564697265625,-0.11187744140625,0.0317535400390625
1772788946613585200,14.481585205078124,-0.9970855712890625,-0.1105499267578125,0.023834228515625
1772788946633618400,14.501618408203125,-1.00933837890625,-0.1124267578125,0.019073486328125
1772788946653651200,14.521651123046874,-1.003082275390625,-0.112274169921875,0.0200347900390625
1772788946673683200,14.54168310546875,-0.9969024658203125,-0.110076904296875,0.0215911865234375
1772788946693716200,14.56171630859375,-0.9964447021484375,-0.11444091796875,0.0186309814453125
1772788946713749200,14.581749267578125,-1.0151824951171875,-0.115753173828125,0.0153961181640625
1772788946733781200,14.60178125,-0.994293212890625,-0.1126251220703125,0.0203399658203125
1772788946753814300,14.621814208984375,-0.985504150390625,-0.1110992431640625,0.0194549560546875
1772788946773847300,14.641847412109374,-0.99853515625,-0.1066741943359375,0.02130126953125
1772788946793879300,14.66187939453125,-1.008453369140625,-0.1029510498046875,0.0310821533203125
1772788946813912000,14.681912109375,-1.003448486328125,-0.1052398681640625,0.02874755859375
1772788946833945300,14.7019453125,-1.0074005126953125,-0.1072540283203125,0.029876708984375
1772788946853977000,14.72197705078125,-1.0034637451171875,-0.11016845703125,0.0355682373046875
1772788946874010400,14.74201025390625,-0.9778289794921875,-0.108551025390625,0.034088134765625
1772788946894043100,14.762043212890624,-0.979949951171875,-0.1132659912109375,0.0278472900390625
1772788946914075100,14.7820751953125,-0.995880126953125,-0.1172332763671875,0.0242767333984375
1772788946934108200,14.802108154296874,-1.007232666015625,-0.1149139404296875,0.0301666259765625
1772788946954141200,14.82214111328125,-0.9890289306640625,-0.1126251220703125,0.038360595703125
1772788946974173200,14.842173095703124,-0.9787139892578125,-0.1125030517578125,0.0327911376953125
1772788946994206200,14.862206298828125,-0.98699951171875,-0.1145782470703125,0.0213470458984375
1772788947014239200,14.8822392578125,-0.998016357421875,-0.1141204833984375,0.0225067138671875
1772788947034271200,14.902271240234375,-1.0047454833984375,-0.115234375,0.0292205810546875
1772788947054304000,14.922303955078124,-0.99188232421875,-0.11419677734375,0.0293426513671875
1772788947074337000,14.9423369140625,-0.9725341796875,-0.1139373779296875,0.0283966064453125
1772788947094369000,14.962369140625,-0.97589111328125,-0.11187744140625,0.0235137939453125
1772788947114402000,14.982402099609375,-0.9992828369140625,-0.1153106689453125,0.020233154296875
1772788947134434800,15.002434814453125,-1.0102386474609375,-0.1136627197265625,0.024505615234375
1772788947154467000,15.022467041015625,-1.00164794921875,-0.1110992431640625,0.0360260009765625
1772788947174500000,15.0425,-0.9858856201171875,-0.109130859375,0.0346221923828125
1772788947194532900,15.062532958984375,-0.9898529052734375,-0.11029052734375,0.02899169921875
1772788947214565000,15.082565185546875,-1.003021240234375,-0.114227294921875,0.022857666015625
1772788947234598000,15.102597900390625,-1.0019073486328125,-0.1140899658203125,0.02105712890625
1772788947254631200,15.122631103515625,-0.9951324462890625,-0.1112060546875,0.030364990234375
1772788947274663000,15.142662841796875,-0.9932403564453125,-0.10589599609375,0.0403289794921875
1772788947294696200,15.1626962890625,-1.00848388671875,-0.106781005859375,0.02734375
1772788947314729000,15.18272900390625,-0.9932861328125,-0.11273193359375,0.016876220703125
1772788947334761000,15.202760986328125,-0.990234375,-0.1137237548828125,0.019287109375
1772788947354794000,15.2227939453125,-0.9879150390625,-0.11602783203125,0.0301971435546875
1772788947374827000,15.242826904296875,-0.98876953125,-0.117584228515625,0.0342254638671875
1772788947394859000,15.26285888671875,-0.9929046630859375,-0.1160736083984375,0.0365142822265625
1772788947414892000,15.28289208984375,-1.00115966796875,-0.109588623046875,0.0359039306640625
1772788947434925000,15.302925048828126,-0.9860382080078125,-0.1035003662109375,0.0428619384765625
1772788947454957000,15.32295703125,-0.9911041259765625,-0.1025848388671875,0.03778076171875
1772788947474989800,15.34298974609375,-1.0096893310546875,-0.104461669921875,0.0325164794921875
1772788947495023000,15.363023193359375,-1.0071563720703125,-0.1051177978515625,0.0367279052734375
1772788947515054800,15.383054931640626,-1.0011138916015625,-0.1038818359375,0.0416717529296875
1772788947535088000,15.403088134765625,-0.9834747314453125,-0.1048583984375,0.0369110107421875
1772788947555121000,15.423120849609376,-1.00726318359375,-0.1081695556640625,0.026763916015625
1772788947575153000,15.44315283203125,-1.0191192626953125,-0.1086883544921875,0.0381622314453125
1772788947595186000,15.46318603515625,-0.9914093017578125,-0.10821533203125,0.0335845947265625
1772788947615219000,15.483218994140625,-0.9858551025390625,-0.1132659912109375,0.030487060546875
1772788947635251000,15.5032509765625,-0.9894561767578125,-0.1126708984375,0.02435302734375
1772788947655284000,15.523283935546875,-1.0174713134765625,-0.1126251220703125,0.02783203125
1772788947675317000,15.54331689453125,-1.0167388916015625,-0.107635498046875,0.031524658203125
1772788947695349000,15.563348876953125,-0.986053466796875,-0.1075897216796875,0.032501220703125
1772788947715382000,15.583382080078126,-0.9757232666015625,-0.1131134033203125,0.0250701904296875
1772788947735415000,15.6034150390625,-0.9949493408203125,-0.1144561767578125,0.0272979736328125
1772788947755446800,15.62344677734375,-1.0140228271484375,-0.1164703369140625,0.0373382568359375
1772788947775480000,15.64347998046875,-0.9972381591796875,-0.114532470703125,0.0398101806640625
1772788947795512800,15.663512939453126,-0.9731292724609375,-0.1138916015625,0.025360107421875
1772788947815545000,15.683545166015625,-0.986236572265625,-0.1146240234375,0.0252227783203125
1772788947835577900,15.703577880859376,-1.0050201416015625,-0.1142425537109375,0.0383148193359375
1772788947855611100,15.723611083984375,-0.9955596923828125,-0.1174468994140625,0.033966064453125
1772788947875643100,15.74364306640625,-0.9789886474609375,-0.1206512451171875,0.02557373046875
1772788947895676000,15.763676025390625,-0.98291015625,-0.122589111328125,0.0307159423828125
1772788947915709000,15.783708984375,-0.984710693359375,-0.1243896484375,0.0312652587890625
1772788947935741000,15.803740966796875,-0.9940185546875,-0.12017822265625,0.0400543212890625
1772788947955774000,15.82377392578125,-1.00177001953125,-0.120391845703125,0.0345001220703125
1772788947975807000,15.843806884765625,-0.9663848876953125,-0.119537353515625,0.033355712890625
1772788947995839000,15.8638388671875,-0.9764556884765625,-0.12298583984375,0.0292510986328125
1772788948015872000,15.8838720703125,-0.996917724609375,-0.1233673095703125,0.035400390625
1772788948035904800,15.90390478515625,-1.0074310302734375,-0.11480712890625,0.041961669921875
1772788948055936300,15.923936279296875,-1.006378173828125,-0.108245849609375,0.039703369140625
1772788948075969500,15.943969482421876,-1.00225830078125,-0.109588623046875,0.0335845947265625
1772788948096002300,15.964002197265625,-0.9904632568359375,-0.113800048828125,0.031707763671875
1772788948116034300,15.984034423828126,-0.9968414306640625,-0.112823486328125,0.0316162109375
1772788948136067300,16.0040673828125,-0.9923858642578125,-0.1197662353515625,0.019805908203125
1772788948156098300,16.024098388671874,-0.98419189453125,-0.1173858642578125,0.0300140380859375
1772788948176130300,16.04413037109375,-0.9920501708984375,-0.115570068359375,0.0455322265625
1772788948196163300,16.064163330078124,-1.0015106201171875,-0.121337890625,0.03863525390625
1772788948216196400,16.0841962890625,-0.9964141845703125,-0.1162872314453125,0.03570556640625
1772788948236228400,16.104228271484374,-0.9900054931640625,-0.114959716796875,0.033599853515625
1772788948256261400,16.124261474609376,-0.9893341064453125,-0.1149139404296875,0.0384063720703125
1772788948276294400,16.14429443359375,-0.9949188232421875,-0.1138916015625,0.042205810546875
1772788948296326400,16.164326416015626,-1.002288818359375,-0.109344482421875,0.0446319580078125
1772788948316359200,16.184359130859374,-0.9874267578125,-0.107391357421875,0.0446319580078125
1772788948336392400,16.204392333984377,-1.0059967041015625,-0.10821533203125,0.0419921875
1772788948356424400,16.224424560546876,-1.015899658203125,-0.1079254150390625,0.0496826171875
1772788948376457500,16.24445751953125,-0.99200439453125,-0.1103057861328125,0.0463714599609375
1772788948396490200,16.264490234375,-0.973602294921875,-0.1130523681640625,0.0392303466796875
1772788948416523500,16.2845234375,-0.9750823974609375,-0.1165313720703125,0.0336151123046875
1772788948436555300,16.30455517578125,-0.9944915771484375,-0.1268463134765625,0.0382537841796875
1772788948456588300,16.32458837890625,-0.9957733154296875,-0.12646484375,0.049713134765625
1772788948476621300,16.344621337890626,-0.99871826171875,-0.123870849609375,0.044464111328125
1772788948496653300,16.3646533203125,-0.98760986328125,-0.1232147216796875,0.03961181640625
1772788948516686300,16.384686279296876,-0.981414794921875,-0.1245880126953125,0.0411529541015625
1772788948536719400,16.40471923828125,-0.9777984619140625,-0.120697021484375,0.0399017333984375
1772788948556752400,16.42475244140625,-0.9715576171875,-0.1185150146484375,0.047698974609375
1772788948576785400,16.444785400390625,-0.9912872314453125,-0.115875244140625,0.0472564697265625
1772788948596818400,16.464818359375,-0.997772216796875,-0.1198272705078125,0.0502166748046875
1772788948616850400,16.484850341796875,-1.0024566650390625,-0.1218719482421875,0.055419921875
1772788948636883200,16.50488330078125,-0.982818603515625,-0.1193084716796875,0.052032470703125
1772788948656916500,16.52491650390625,-0.9811553955078125,-0.117340087890625,0.0488128662109375
1772788948676948200,16.5449482421875,-0.9878692626953125,-0.1179962158203125,0.045989990234375
1772788948696981500,16.5649814453125,-1.0014801025390625,-0.113739013671875,0.0521087646484375
1772788948717014300,16.58501416015625,-1.011383056640625,-0.1074981689453125,0.052764892578125
1772788948737046500,16.605046630859373,-1.0010528564453125,-0.1070709228515625,0.0471038818359375
1772788948757079300,16.625079345703124,-0.9976348876953125,-0.1059417724609375,0.051910400390625
1772788948777112300,16.6451123046875,-0.971466064453125,-0.1113128662109375,0.04156494140625
1772788948797144300,16.665144287109374,-0.9906463623046875,-0.11163330078125,0.038421630859375
1772788948817177300,16.68517724609375,-1.0168609619140625,-0.11273193359375,0.0456390380859375
1772788948837210400,16.70521044921875,-1.022216796875,-0.109771728515625,0.0573272705078125
1772788948857242400,16.725242431640623,-0.9658050537109375,-0.1126861572265625,0.0402069091796875
1772788948877275400,16.745275390625,-0.9730224609375,-0.116973876953125,0.0351104736328125
1772788948897308400,16.765308349609374,-1.0045928955078125,-0.1170654296875,0.03509521484375
1772788948917340200,16.785340087890624,-1.017364501953125,-0.1136016845703125,0.0489349365234375
1772788948937373400,16.80537353515625,-1.0038299560546875,-0.1092376708984375,0.0475616455078125
1772788948957406200,16.82540625,-0.97564697265625,-0.10845947265625,0.0445556640625
1772788948977439500,16.845439453125,-0.97247314453125,-0.106414794921875,0.0368804931640625
1772788948997471200,16.86547119140625,-0.987396240234375,-0.112945556640625,0.0327301025390625
1772788949017504500,16.88550439453125,-1.011688232421875,-0.1126251220703125,0.0413055419921875
1772788949037537300,16.905537353515626,-1.01043701171875,-0.1077117919921875,0.0493011474609375
1772788949057570000,16.925570068359374,-0.982513427734375,-0.1051483154296875,0.0438995361328125
1772788949077602800,16.945602783203125,-0.9890899658203125,-0.1093902587890625,0.040008544921875
1772788949097635800,16.9656357421875,-0.9955291748046875,-0.11016845703125,0.037384033203125
1772788949117667800,16.985667724609375,-0.99859619140625,-0.1085968017578125,0.0378265380859375
1772788949137700900,17.005700927734374,-1.00006103515625,-0.1085357666015625,0.0419464111328125
1772788949157734000,17.02573388671875,-0.9961090087890625,-0.10870361328125,0.038330078125
1772788949177766000,17.045765869140624,-0.99127197265625,-0.1071929931640625,0.047515869140625
1772788949197799000,17.065798828125,-0.9957275390625,-0.1064910888671875,0.0486297607421875
1772788949217832000,17.08583203125,-0.999664306640625,-0.1071014404296875,0.0455169677734375
1772788949237863700,17.10586376953125,-0.9930877685546875,-0.11004638671875,0.04779052734375
1772788949257897000,17.12589697265625,-0.98065185546875,-0.1134490966796875,0.04815673828125
1772788949277929700,17.1459296875,-0.9834747314453125,-0.110198974609375,0.0556488037109375
1772788949297962000,17.1659619140625,-0.994415283203125,-0.104644775390625,0.061553955078125
1772788949317994800,17.185994873046877,-1.000579833984375,-0.0990753173828125,0.058837890625
1772788949338028000,17.206028076171876,-1.00341796875,-0.0969696044921875,0.0555877685546875
1772788949358059800,17.226059814453127,-0.9987335205078125,-0.095855712890625,0.0547332763671875
1772788949378092800,17.2460927734375,-0.98126220703125,-0.1005096435546875,0.05377197265625
1772788949398125800,17.266125732421877,-0.9930419921875,-0.1043243408203125,0.0543975830078125
1772788949418157800,17.28615771484375,-1.0036773681640625,-0.1040802001953125,0.0506744384765625
1772788949438190800,17.30619091796875,-1.003387451171875,-0.1118316650390625,0.0417327880859375
1772788949458223900,17.326223876953126,-0.9984130859375,-0.110504150390625,0.036407470703125
1772788949478255900,17.346255859375,-0.9945220947265625,-0.1052093505859375,0.0467376708984375
1772788949498289000,17.366288818359376,-0.98846435546875,-0.10357666015625,0.04638671875
1772788949518321700,17.38632177734375,-0.9860687255859375,-0.1073455810546875,0.0432586669921875
1772788949538355000,17.40635498046875,-0.9997406005859375,-0.10662841796875,0.037445068359375
1772788949558386700,17.42638671875,-1.008819580078125,-0.1043243408203125,0.0389862060546875
1772788949578420000,17.446419921875,-0.9994049072265625,-0.0986480712890625,0.0544586181640625
1772788949598452700,17.46645263671875,-0.9902801513671875,-0.09576416015625,0.0612640380859375
1772788949618485000,17.486485107421874,-0.9897918701171875,-0.096466064453125,0.0565643310546875
1772788949638517800,17.506517822265625,-0.9896240234375,-0.09942626953125,0.049713134765625
1772788949658551000,17.526551025390624,-1.0010223388671875,-0.1014404296875,0.050079345703125
1772788949678582800,17.546582763671875,-1.0094146728515625,-0.0977630615234375,0.050994873046875
1772788949698615800,17.56661572265625,-0.9906158447265625,-0.098052978515625,0.0493927001953125
1772788949718648800,17.58664892578125,-0.9811859130859375,-0.098968505859375,0.0384521484375
1772788949738680800,17.606680908203124,-0.9839935302734375,-0.1040802001953125,0.029998779296875
1772788949758713900,17.6267138671875,-1.0181884765625,-0.1009979248046875,0.038116455078125
1772788949778747000,17.646746826171874,-1.0181884765625,-0.1010894775390625,0.0496978759765625
1772788949798779000,17.66677880859375,-0.9852142333984375,-0.101226806640625,0.0458221435546875
1772788949818812000,17.68681201171875,-0.9684295654296875,-0.10491943359375,0.0254364013671875
1772788949838844700,17.7068447265625,-1.005218505859375,-0.1054229736328125,0.026092529296875
1772788949858877000,17.726876953125,-1.0117950439453125,-0.103485107421875,0.042510986328125
1772788949878910000,17.746909912109373,-0.9879608154296875,-0.1120147705078125,0.0261383056640625
1772788949898943000,17.76694287109375,-0.9796905517578125,-0.1109161376953125,0.0270233154296875
1772788949918975000,17.78697509765625,-0.990753173828125,-0.1029510498046875,0.0339813232421875
1772788949939007700,17.8070078125,-0.9885101318359375,-0.1019134521484375,0.05255126953125
1772788949959040800,17.827040771484373,-1.0013275146484375,-0.0994415283203125,0.057464599609375
1772788949979072800,17.84707275390625,-1.00115966796875,-0.09326171875,0.061798095703125
1772788949999106000,17.86710595703125,-1.0016326904296875,-0.093292236328125,0.0625
1772788950019138800,17.887138916015626,-0.98883056640625,-0.0987548828125,0.050994873046875
1772788950039171800,17.907171875,-0.9946136474609375,-0.10015869140625,0.044189453125
1772788950059203300,17.927203369140624,-0.9992218017578125,-0.0983428955078125,0.0488433837890625
1772788950079236600,17.947236572265624,-1.0018157958984375,-0.0991668701171875,0.0504608154296875
1772788950099268400,17.967268310546874,-0.990081787109375,-0.1017608642578125,0.0469512939453125
1772788950119301600,17.987301513671873,-0.9861297607421875,-0.1081695556640625,0.04241943359375
1772788950139334400,18.00733447265625,-0.9833221435546875,-0.1124267578125,0.0406646728515625
1772788950159367700,18.02736767578125,-0.98577880859375,-0.1120758056640625,0.040618896484375
1772788950179399400,18.0473994140625,-0.9965667724609375,-0.10882568359375,0.040283203125
1772788950199432400,18.067432373046874,-1.0012054443359375,-0.1088714599609375,0.0377044677734375
1772788950219465500,18.087465576171876,-0.9968719482421875,-0.1033477783203125,0.04095458984375
1772788950239497500,18.10749755859375,-0.9903411865234375,-0.0996856689453125,0.0434722900390625
1772788950259530500,18.127530517578126,-1.0013580322265625,-0.0975189208984375,0.03875732421875
1772788950279563500,18.1475634765625,-1.011932373046875,-0.09759521484375,0.0364837646484375
1772788950299595500,18.167595458984376,-1.00299072265625,-0.0969696044921875,0.0451507568359375
1772788950319628500,18.187628662109375,-0.989349365234375,-0.09576416015625,0.0552825927734375
1772788950339661600,18.20766162109375,-0.9834136962890625,-0.100341796875,0.0467529296875
1772788950359693600,18.227693603515625,-1.003143310546875,-0.1030120849609375,0.0383148193359375
1772788950379726300,18.247726318359376,-1.0101470947265625,-0.100830078125,0.0462188720703125
1772788950399759600,18.267759521484376,-0.9939422607421875,-0.0965728759765625,0.04852294921875
1772788950419791400,18.287791259765626,-0.994598388671875,-0.097198486328125,0.0483856201171875
1772788950439824600,18.30782470703125,-0.9934234619140625,-0.096221923828125,0.052093505859375
1772788950459857400,18.327857421875,-1.0038909912109375,-0.09539794921875,0.0464630126953125
1772788950479889400,18.347889404296875,-1.0080413818359375,-0.095428466796875,0.0472412109375
1772788950499922400,18.36792236328125,-1.00042724609375,-0.096466064453125,0.043914794921875
1772788950519955500,18.38795556640625,-0.99725341796875,-0.10125732421875,0.0493316650390625
1772788950539987500,18.407987548828125,-0.9913177490234375,-0.10333251953125,0.0534820556640625
1772788950560020500,18.4280205078125,-0.9839019775390625,-0.10394287109375,0.048248291015625
1772788950580053500,18.448053466796875,-0.9845428466796875,-0.104248046875,0.0398101806640625
1772788950600086500,18.46808642578125,-1.004486083984375,-0.1021881103515625,0.046630859375
1772788950620118300,18.4881181640625,-0.9931182861328125,-0.0955352783203125,0.059295654296875
1772788950640151600,18.508151611328124,-1.0014495849609375,-0.093170166015625,0.0538330078125
1772788950660184300,18.528184326171875,-0.999267578125,-0.0954742431640625,0.0419464111328125
1772788950680216600,18.548216552734374,-0.9869537353515625,-0.1007080078125,0.0355224609375
1772788950700249300,18.568249267578125,-0.98785400390625,-0.1044921875,0.0340423583984375
1772788950720282600,18.58828271484375,-1.0077972412109375,-0.1053314208984375,0.045654296875
1772788950740314400,18.608314453125,-1.0101776123046875,-0.101318359375,0.0577392578125
1772788950760347600,18.62834765625,-0.990631103515625,-0.1054229736328125,0.0509185791015625
1772788950780380400,18.64838037109375,-0.9697418212890625,-0.1096954345703125,0.0305633544921875
1772788950800412400,18.668412353515624,-0.9824066162109375,-0.1106109619140625,0.02947998046875
1772788950820445400,18.688445556640627,-1.007720947265625,-0.1038055419921875,0.0498809814453125
1772788950840478500,18.708478515625,-1.0054779052734375,-0.0996246337890625,0.0667266845703125
1772788950860510500,18.728510498046877,-0.98291015625,-0.1029052734375,0.05755615234375
1772788950880543500,18.74854345703125,-0.971466064453125,-0.100494384765625,0.0422821044921875
1772788950900576500,18.768576416015627,-0.99127197265625,-0.1038360595703125,0.04443359375
1772788950920608500,18.7886083984375,-1.0065155029296875,-0.1053314208984375,0.0521240234375
1772788950940641300,18.808641357421877,-0.9921417236328125,-0.1039581298828125,0.0534515380859375
1772788950960674600,18.828674560546876,-0.987518310546875,-0.1021575927734375,0.05078125
1772788950980706600,18.84870654296875,-0.9950714111328125,-0.101959228515625,0.0507049560546875
1772788951000739600,18.868739501953126,-0.99407958984375,-0.104034423828125,0.0410919189453125
1772788951020772400,18.8887724609375,-0.9972991943359375,-0.1053924560546875,0.0332794189453125
1772788951040805600,18.9088056640625,-1.0060882568359375,-0.1047210693359375,0.034637451171875
1772788951060837600,18.928837646484375,-1.0032806396484375,-0.1006622314453125,0.0453948974609375
1772788951080870400,18.948870361328126,-0.997344970703125,-0.1008148193359375,0.0437774658203125
1772788951100903400,18.9689033203125,-0.9968719482421875,-0.1034088134765625,0.0327606201171875
1772788951120935400,18.988935302734376,-1.00537109375,-0.1060791015625,0.0366363525390625
1772788951140968400,19.008968505859375,-0.995697021484375,-0.106658935546875,0.0513458251953125
1772788951161001500,19.02900146484375,-0.9812774658203125,-0.110198974609375,0.0465087890625
1772788951181033500,19.049033447265625,-0.997711181640625,-0.111175537109375,0.0400238037109375
1772788951201066500,19.06906640625,-0.99822998046875,-0.1071014404296875,0.05078125
1772788951221099300,19.089099365234375,-0.968505859375,-0.103973388671875,0.0518341064453125
1772788951241131300,19.10913134765625,-0.9876556396484375,-0.1037750244140625,0.0461273193359375
1772788951261164500,19.12916455078125,-1.001068115234375,-0.100372314453125,0.045654296875
1772788951281197300,19.149197265625,-1.0055999755859375,-0.1021728515625,0.0479888916015625
1772788951301229600,19.1692294921875,-0.991668701171875,-0.106536865234375,0.041290283203125
1772788951321262300,19.189262451171874,-0.976806640625,-0.110931396484375,0.030548095703125
1772788951341295400,19.20929541015625,-0.98480224609375,-0.109130859375,0.0379638671875
1772788951361327400,19.229327392578124,-1.0039825439453125,-0.110748291015625,0.0404815673828125
1772788951381360400,19.2493603515625,-1.0081634521484375,-0.1125640869140625,0.034881591796875
1772788951401393400,19.269393310546874,-0.984161376953125,-0.110565185546875,0.02978515625
1772788951421426200,19.28942626953125,-0.9849395751953125,-0.1102447509765625,0.0321502685546875
1772788951441458400,19.30945849609375,-0.992431640625,-0.106658935546875,0.043060302734375
1772788951461491500,19.329491455078124,-0.9857025146484375,-0.1043853759765625,0.0485687255859375
1772788951481524500,19.3495244140625,-0.9904022216796875,-0.10888671875,0.0471038818359375
1772788951501556500,19.369556396484374,-0.995849609375,-0.10723876953125,0.0445556640625
1772788951521589500,19.389589599609376,-0.9918212890625,-0.107025146484375,0.0458526611328125
1772788951541622500,19.40962255859375,-0.9910736083984375,-0.1046142578125,0.046234130859375
1772788951561654300,19.429654296875,-0.996124267578125,-0.103515625,0.045135498046875
1772788951581687600,19.4496875,-0.98687744140625,-0.1022491455078125,0.0509796142578125
1772788951601720300,19.46972021484375,-0.9839630126953125,-0.1039581298828125,0.0369720458984375
1772788951621752600,19.489752685546875,-1.0007476806640625,-0.1062469482421875,0.03375244140625
1772788951641785300,19.509785400390626,-1.0156402587890625,-0.10308837890625,0.0479888916015625
1772788951661818600,19.529818603515626,-1.0009613037109375,-0.1044769287109375,0.0493316650390625
1772788951681850400,19.549850341796876,-0.99267578125,-0.102264404296875,0.0407257080078125
1772788951701883400,19.56988330078125,-0.9976348876953125,-0.106781005859375,0.029571533203125
1772788951721916400,19.58991650390625,-0.9804229736328125,-0.10614013671875,0.0305328369140625
1772788951741949400,19.609949462890626,-0.99163818359375,-0.1057586669921875,0.046112060546875
1772788951761981400,19.6299814453125,-1.0103302001953125,-0.104156494140625,0.0615386962890625
1772788951782014500,19.650014404296876,-0.9999237060546875,-0.1056365966796875,0.0572967529296875
1772788951802047500,19.670047607421875,-0.96917724609375,-0.107208251953125,0.0428619384765625
1772788951822079500,19.69007958984375,-0.984375,-0.1020355224609375,0.0435791015625
1772788951842112300,19.7101123046875,-1.0111846923828125,-0.096282958984375,0.05303955078125
1772788951862145500,19.7301455078125,-1.0052337646484375,-0.092498779296875,0.059051513671875
1772788951882177300,19.75017724609375,-0.986968994140625,-0.0954437255859375,0.045013427734375
1772788951902210600,19.77021044921875,-0.9971771240234375,-0.09979248046875,0.0323486328125
1772788951922243300,19.790243408203125,-1.0068817138671875,-0.1024017333984375,0.0347747802734375
1772788951942275600,19.810275634765624,-1.0012359619140625,-0.0998687744140625,0.04254150390625
1772788951962308400,19.830308349609375,-0.99908447265625,-0.101104736328125,0.046875
1772788951982341400,19.85034130859375,-0.9974365234375,-0.1011199951171875,0.041015625
1772788952002373400,19.870373291015625,-1.0033721923828125,-0.1045989990234375,0.03302001953125
1772788952022406400,19.890406494140624,-0.993865966796875,-0.10406494140625,0.0308990478515625
1772788952042440400,19.9104404296875,-0.9958343505859375,-0.0994873046875,0.042510986328125
1772788952062472400,19.930472412109374,-1.0020294189453125,-0.0962982177734375,0.0517120361328125
1772788952082505500,19.95050537109375,-0.9882659912109375,-0.0967864990234375,0.044708251953125
1772788952102538200,19.970538330078124,-0.9910736083984375,-0.096832275390625,0.041961669921875
1772788952122571500,19.990571533203124,-0.9959564208984375,-0.099761962890625,0.04608154296875
1772788952142602500,20.0106025390625,-0.9826202392578125,-0.1007080078125,0.0450897216796875
1772788952162635300,20.03063525390625,-0.9949951171875,-0.1000518798828125,0.0501861572265625
1772788952182668500,20.05066845703125,-1.0059814453125,-0.096038818359375,0.0500946044921875
1772788952202700300,20.0707001953125,-0.9939422607421875,-0.093475341796875,0.05169677734375
1772788952222733300,20.0907333984375,-0.990936279296875,-0.0976104736328125,0.034271240234375
1772788952242766300,20.110766357421873,-0.9891510009765625,-0.1003265380859375,0.0265655517578125
1772788952262798300,20.13079833984375,-1.0109100341796875,-0.098663330078125,0.0365142822265625
1772788952282831400,20.150831298828123,-1.0175018310546875,-0.097686767578125,0.049285888671875
1772788952302864400,20.170864501953126,-0.9933624267578125,-0.0979766845703125,0.0386962890625
1772788952322896400,20.190896484375,-0.9839019775390625,-0.1013336181640625,0.028839111328125
1772788952342929400,20.210929443359376,-0.996734619140625,-0.1019439697265625,0.031982421875
1772788952362962200,20.230962158203123,-0.9876556396484375,-0.102569580078125,0.0407562255859375
1772788952382994400,20.250994384765626,-0.9802703857421875,-0.106292724609375,0.0414581298828125
1772788952403027200,20.271027099609373,-0.9856719970703125,-0.105987548828125,0.044677734375
1772788952423060500,20.291060546875,-0.99407958984375,-0.1014404296875,0.0470428466796875
1772788952443093200,20.31109326171875,-0.9892578125,-0.0962677001953125,0.0481719970703125
1772788952463125500,20.33112548828125,-0.9922943115234375,-0.092193603515625,0.0428924560546875
1772788952483158300,20.351158203125,-0.9997711181640625,-0.0892181396484375,0.0433807373046875
1772788952503191600,20.371191650390625,-0.999786376953125,-0.0901336669921875,0.0482177734375
1772788952523223300,20.391223388671875,-0.996978759765625,-0.09588623046875,0.0512237548828125
1772788952543256300,20.41125634765625,-0.9989166259765625,-0.0962982177734375,0.0453338623046875
1772788952563289300,20.431289306640625,-1.0055999755859375,-0.09649658203125,0.0426025390625
1772788952583321300,20.4513212890625,-0.9989776611328125,-0.098297119140625,0.031890869140625
1772788952603354400,20.471354248046875,-0.9857025146484375,-0.104156494140625,0.0247802734375
1772788952623387400,20.491387451171875,-1.0052490234375,-0.0989837646484375,0.0346221923828125
1772788952643419400,20.51141943359375,-1.004486083984375,-0.097076416015625,0.0412750244140625
1772788952663452400,20.531452392578124,-1.0003509521484375,-0.0983734130859375,0.0355224609375
1772788952683485200,20.551485107421875,-0.9933624267578125,-0.097015380859375,0.029632568359375
1772788952703518500,20.5715185546875,-0.99945068359375,-0.09619140625,0.038726806640625
1772788952723550200,20.59155029296875,-0.9971466064453125,-0.095977783203125,0.0516204833984375
1772788952743583500,20.61158349609375,-0.9873504638671875,-0.0961456298828125,0.0439453125
1772788952763616300,20.6316162109375,-0.9886627197265625,-0.0977325439453125,0.03741455078125
1772788952783648300,20.651648193359375,-1.0013885498046875,-0.097991943359375,0.0440521240234375
1772788952803681300,20.671681396484374,-1.0100555419921875,-0.096160888671875,0.04931640625
1772788952823714300,20.69171435546875,-1.01025390625,-0.093231201171875,0.0515899658203125
1772788952843746300,20.711746337890624,-0.9904632568359375,-0.094818115234375,0.0502166748046875
1772788952863779300,20.731779296875,-1.0028076171875,-0.0870208740234375,0.060699462890625
1772788952883812400,20.751812255859374,-1.0067596435546875,-0.0882415771484375,0.0638427734375
1772788952903844400,20.77184423828125,-0.9999847412109375,-0.095672607421875,0.0517578125
1772788952923877400,20.79187744140625,-1.004608154296875,-0.093414306640625,0.059295654296875
1772788952943910400,20.811910400390627,-1.00543212890625,-0.097747802734375,0.054931640625
1772788952963943400,20.831943359375,-1.0255584716796875,-0.1020050048828125,0.04736328125
1772788952983975400,20.851975341796877,-0.9625244140625,-0.1096038818359375,0.0734100341796875
1772788953004008200,20.87200830078125,-0.9649810791015625,-0.10980224609375,0.0936737060546875
1772788953024041500,20.89204150390625,-0.9865875244140625,-0.1175384521484375,0.0802154541015625
1772788953044073200,20.9120732421875,-0.9892578125,-0.1240997314453125,0.0713348388671875
1772788953064105500,20.93210546875,-0.9945068359375,-0.1136932373046875,0.0789794921875
1772788953084138500,20.952138427734376,-0.9784393310546875,-0.1010589599609375,0.0965728759765625
1772788953104170500,20.97217041015625,-0.9745330810546875,-0.09857177734375,0.100067138671875
1772788953124203500,20.99220361328125,-0.9662933349609375,-0.1014251708984375,0.1051177978515625
1772788953144236500,21.012236572265625,-1.00244140625,-0.10113525390625,0.102508544921875
1772788953164269600,21.03226953125,-0.9804229736328125,-0.103302001953125,0.1248016357421875
1772788953184301300,21.05230126953125,-0.977508544921875,-0.09039306640625,0.120941162109375
1772788953204334600,21.07233447265625,-0.9973907470703125,-0.1012725830078125,0.1161956787109375
1772788953224367400,21.092367431640625,-0.98687744140625,-0.0967254638671875,0.1285552978515625
1772788953244399600,21.112399658203124,-0.9796600341796875,-0.1020660400390625,0.13140869140625
1772788953264432400,21.132432373046875,-0.9820709228515625,-0.0960845947265625,0.12933349609375
1772788953284465700,21.152465576171874,-0.9983062744140625,-0.097503662109375,0.129547119140625
1772788953304497400,21.172497314453125,-0.979766845703125,-0.094879150390625,0.1182861328125
1772788953324530700,21.19253076171875,-1.000274658203125,-0.101409912109375,0.092254638671875
1772788953344563500,21.2125634765625,-1.0058441162109375,-0.114776611328125,0.095184326171875
1772788953364595500,21.232595458984374,-1.020965576171875,-0.0930938720703125,0.124664306640625
1772788953384628500,21.25262841796875,-1.001495361328125,-0.1134185791015625,0.1288299560546875
1772788953404661500,21.27266162109375,-1.00775146484375,-0.118255615234375,0.09881591796875
1772788953424693500,21.292693603515627,-0.9992828369140625,-0.080718994140625,0.09661865234375
1772788953444726500,21.3127265625,-1.0039520263671875,-0.0860137939453125,0.1362152099609375
1772788953464759600,21.332759521484373,-0.99176025390625,-0.11444091796875,0.152252197265625
1772788953484792600,21.35279248046875,-0.9619903564453125,-0.0763092041015625,0.1344451904296875
1772788953504824300,21.37282421875,-0.98046875,-0.0773162841796875,0.1474609375
1772788953524857600,21.392857666015626,-1.009307861328125,-0.11053466796875,0.1466217041015625
1772788953544890400,21.412890380859373,-0.98114013671875,-0.1202392578125,0.1313323974609375
1772788953564922600,21.432922607421876,-0.96246337890625,-0.1175994873046875,0.1520233154296875
1772788953584955400,21.452955322265623,-0.9735107421875,-0.1018524169921875,0.159393310546875
1772788953604988700,21.47298876953125,-0.9804229736328125,-0.107757568359375,0.1478118896484375
1772788953625020400,21.4930205078125,-0.9668426513671875,-0.11785888671875,0.14910888671875
1772788953645053400,21.513053466796876,-0.955810546875,-0.115692138671875,0.1635284423828125
1772788953665086500,21.53308642578125,-0.966766357421875,-0.1145477294921875,0.1645050048828125
1772788953685119500,21.553119384765626,-0.9765167236328125,-0.116546630859375,0.14093017578125
1772788953705151500,21.5731513671875,-0.97998046875,-0.112579345703125,0.1378936767578125
1772788953725184500,21.5931845703125,-0.98858642578125,-0.10296630859375,0.139984130859375
1772788953745217500,21.613217529296875,-0.9777069091796875,-0.0964813232421875,0.1618499755859375
1772788953765249500,21.63324951171875,-0.9975433349609375,-0.0810546875,0.1711578369140625
1772788953785282300,21.6532822265625,-1.0010528564453125,-0.1111297607421875,0.1585845947265625
1772788953805315600,21.673315673828125,-0.9723968505859375,-0.1182708740234375,0.0985565185546875
1772788953825347300,21.693347412109375,-0.978546142578125,-0.114715576171875,0.092071533203125
1772788953845380600,21.713380615234374,-1.027801513671875,-0.107208251953125,0.121337890625
1772788953865413400,21.733413330078125,-1.0321197509765625,-0.0922088623046875,0.149871826171875
1772788953885445600,21.753445556640624,-1.002777099609375,-0.103973388671875,0.1557464599609375
1772788953905478400,21.773478515625,-0.9705352783203125,-0.1176605224609375,0.1086883544921875
1772788953925511700,21.79351171875,-0.96820068359375,-0.1332855224609375,0.077117919921875
1772788953945544400,21.81354443359375,-0.988861083984375,-0.13031005859375,0.0763397216796875
1772788953965576400,21.833576416015624,-0.9980316162109375,-0.125946044921875,0.1040802001953125
1772788953985609500,21.853609375,-1.0098114013671875,-0.1327362060546875,0.1131134033203125
1772788954005642500,21.873642578125,-0.985321044921875,-0.1472015380859375,0.070770263671875
1772788954025674500,21.893674560546874,-0.95965576171875,-0.1508941650390625,0.0410919189453125
1772788954045708000,21.9137080078125,-0.9749908447265625,-0.149261474609375,0.042266845703125
1772788954065741000,21.933740966796876,-0.9884796142578125,-0.150177001953125,0.037017822265625
1772788954085773000,21.95377294921875,-1.008544921875,-0.1468658447265625,0.0446624755859375
1772788954105805800,21.973805908203126,-1.0228729248046875,-0.1383056640625,0.0499725341796875
1772788954125839000,21.993839111328125,-0.99395751953125,-0.1348114013671875,0.07025146484375
1772788954145870800,22.013870849609376,-0.9709625244140625,-0.13946533203125,0.06439208984375
1772788954165904100,22.033904052734375,-0.9790802001953125,-0.1538848876953125,0.055419921875
1772788954185937000,22.05393701171875,-0.9979400634765625,-0.152587890625,0.0622100830078125
1772788954205970200,22.07397021484375,-1.007965087890625,-0.1413421630859375,0.073577880859375
1772788954226002000,22.094001953125,-0.977294921875,-0.14691162109375,0.08074951171875
1772788954246035200,22.11403515625,-0.9608612060546875,-0.1433868408203125,0.0649261474609375
1772788954266068000,22.13406787109375,-0.968658447265625,-0.1529388427734375,0.0595245361328125
1772788954286100000,22.154099853515625,-0.98114013671875,-0.1565399169921875,0.0698089599609375
1772788954306133000,22.174133056640624,-0.984283447265625,-0.1492767333984375,0.057708740234375
1772788954326166000,22.194166015625,-0.982635498046875,-0.159759521484375,0.057159423828125
1772788954346198000,22.214197998046874,-0.9825592041015625,-0.1502227783203125,0.057281494140625
1772788954366231000,22.23423095703125,-0.98382568359375,-0.151580810546875,0.0504608154296875
1772788954386264000,22.25426416015625,-0.9875030517578125,-0.14404296875,0.0518035888671875
1772788954406297000,22.274297119140623,-0.9877777099609375,-0.1459197998046875,0.0541839599609375
1772788954426328800,22.294328857421874,-0.985107421875,-0.1448516845703125,0.0503387451171875
1772788954446362000,22.314362060546873,-0.9961395263671875,-0.1466522216796875,0.04876708984375
1772788954466395000,22.334394775390624,-0.9940185546875,-0.1470489501953125,0.0400390625
1772788954486427100,22.35442724609375,-0.9846343994140625,-0.1515045166015625,0.04217529296875
1772788954506460000,22.3744599609375,-0.9836883544921875,-0.153289794921875,0.036285400390625
1772788954526493200,22.3944931640625,-0.984832763671875,-0.1578369140625,0.0455780029296875
1772788954546525000,22.41452490234375,-0.995452880859375,-0.1486663818359375,0.0433502197265625
1772788954566558000,22.434557861328123,-0.9815826416015625,-0.1583404541015625,0.056610107421875
1772788954586591000,22.454591064453126,-0.9782867431640625,-0.1493988037109375,0.032440185546875
1772788954606624000,22.4746240234375,-0.9698028564453125,-0.15185546875,0.047882080078125
1772788954626656000,22.494656005859376,-0.9761962890625,-0.1507720947265625,0.0496978759765625
1772788954646689000,22.51468896484375,-1.0109710693359375,-0.156402587890625,0.03485107421875
1772788954666722000,22.53472216796875,-0.996490478515625,-0.1537322998046875,0.061492919921875
1772788954686754000,22.554754150390625,-0.9846649169921875,-0.1487884521484375,0.041351318359375
1772788954706786800,22.574786865234376,-0.9866485595703125,-0.1485595703125,0.043548583984375
1772788954726820000,22.594820068359375,-0.9898834228515625,-0.1544952392578125,0.034698486328125
1772788954746851800,22.614851806640626,-0.99481201171875,-0.1616363525390625,0.024139404296875
1772788954766885000,22.634885009765625,-0.9969635009765625,-0.1624755859375,0.0280609130859375
1772788954786918000,22.65491796875,-0.9896087646484375,-0.1590118408203125,0.0309600830078125
1772788954806950100,22.6749501953125,-0.985626220703125,-0.157928466796875,0.029327392578125
1772788954826983000,22.69498291015625,-0.994110107421875,-0.15570068359375,0.0405120849609375
1772788954847016200,22.71501611328125,-0.9900665283203125,-0.149932861328125,0.04278564453125
1772788954867049000,22.735049072265625,-0.9872589111328125,-0.1498260498046875,0.03289794921875
1772788954887081000,22.7550810546875,-0.9932708740234375,-0.149993896484375,0.030975341796875
1772788954907114000,22.775114013671875,-0.99249267578125,-0.1531219482421875,0.0348968505859375
1772788954927147000,22.79514697265625,-0.98504638671875,-0.1505584716796875,0.0486907958984375
1772788954947179000,22.815178955078125,-0.9702606201171875,-0.1524810791015625,0.0534820556640625
1772788954967212000,22.8352119140625,-0.98876953125,-0.1462554931640625,0.056365966796875
1772788954987245000,22.8552451171875,-1.0078125,-0.149017333984375,0.053466796875
1772788955007277000,22.875277099609374,-1.006011962890625,-0.1434173583984375,0.0549468994140625
1772788955027309800,22.895309814453125,-0.9672088623046875,-0.143829345703125,0.0485992431640625
1772788955047342600,22.915342529296876,-0.9720916748046875,-0.1498565673828125,0.04388427734375
1772788955067374600,22.93537451171875,-0.980224609375,-0.1561737060546875,0.045074462890625
1772788955087407600,22.95540771484375,-0.9951629638671875,-0.1561737060546875,0.0452117919921875
1772788955107440600,22.975440673828125,-1.00311279296875,-0.151641845703125,0.0580596923828125
1772788955127473700,22.9954736328125,-0.982940673828125,-0.14971923828125,0.05377197265625
1772788955147505700,23.015505615234375,-0.964874267578125,-0.1544952392578125,0.039520263671875
1772788955167538700,23.03553857421875,-0.979766845703125,-0.15521240234375,0.0390777587890625
1772788955187571700,23.05557177734375,-0.9919586181640625,-0.156219482421875,0.0439453125
1772788955207603700,23.075603759765624,-0.9898681640625,-0.152862548828125,0.0472259521484375
1772788955227636500,23.095636474609375,-0.9864654541015625,-0.1488800048828125,0.0557861328125
1772788955247669800,23.115669677734374,-0.996185302734375,-0.145111083984375,0.05474853515625
1772788955267701500,23.135701416015625,-0.99462890625,-0.1433563232421875,0.0542449951171875
1772788955287734800,23.15573486328125,-0.9834136962890625,-0.1471405029296875,0.04266357421875
1772788955307767600,23.175767578125,-0.992523193359375,-0.1495513916015625,0.043914794921875
1772788955327800800,23.19580078125,-1.001373291015625,-0.1441192626953125,0.056671142578125
1772788955347832600,23.21583251953125,-0.9958648681640625,-0.1439666748046875,0.0618438720703125
1772788955367865600,23.235865478515624,-0.9961395263671875,-0.1436767578125,0.056732177734375
1772788955387898600,23.255898681640623,-1.00946044921875,-0.1434173583984375,0.0577392578125
1772788955407930600,23.2759306640625,-1.01055908203125,-0.1377716064453125,0.0703125
1772788955427963600,23.295963623046877,-1.00433349609375,-0.1381378173828125,0.065826416015625
1772788955447996700,23.31599658203125,-0.97222900390625,-0.145416259765625,0.0499267578125
1772788955468028700,23.336028564453127,-0.9578094482421875,-0.1583099365234375,0.025665283203125
1772788955488061700,23.356061767578126,-0.97650146484375,-0.1589813232421875,0.02825927734375
1772788955508094500,23.376094482421873,-1.0050506591796875,-0.1623077392578125,0.0417633056640625
1772788955528127700,23.396127685546876,-0.986358642578125,-0.16326904296875,0.0402984619140625
1772788955548159500,23.416159423828127,-0.969085693359375,-0.16497802734375,0.032073974609375
1772788955568192800,23.43619287109375,-0.9798583984375,-0.1632843017578125,0.0362548828125
1772788955588225500,23.4562255859375,-0.99761962890625,-0.155548095703125,0.04083251953125
1772788955608257800,23.4762578125,-0.988739013671875,-0.1486053466796875,0.0420074462890625
1772788955628290600,23.49629052734375,-0.982513427734375,-0.1458892822265625,0.0319061279296875
1772788955648323800,23.51632373046875,-0.9894866943359375,-0.15081787109375,0.03045654296875
1772788955668355600,23.53635546875,-1.0023193359375,-0.152008056640625,0.033843994140625
1772788955688388600,23.556388671875,-1.0030059814453125,-0.1479339599609375,0.0483551025390625
1772788955708421600,23.576421630859375,-0.9862060546875,-0.15142822265625,0.0431671142578125
1772788955728454700,23.59645458984375,-0.974884033203125,-0.1540374755859375,0.032989501953125
1772788955748486700,23.616486572265625,-0.9786376953125,-0.1622467041015625,0.0231170654296875
1772788955768519700,23.636519775390624,-0.99371337890625,-0.1634521484375,0.0265960693359375
1772788955788552700,23.656552734375,-0.9817657470703125,-0.1607818603515625,0.031280517578125
1772788955808584700,23.676584716796874,-0.9807891845703125,-0.1611785888671875,0.032806396484375
1772788955828617500,23.696617431640625,-0.9915313720703125,-0.1609039306640625,0.02935791015625
1772788955848650800,23.716650634765625,-0.9944610595703125,-0.1580657958984375,0.0272979736328125
1772788955868682500,23.7366826171875,-0.9828948974609375,-0.157135009765625,0.0236663818359375
1772788955888715800,23.7567158203125,-0.969146728515625,-0.1601409912109375,0.0173797607421875
1772788955908748500,23.77674853515625,-0.9954833984375,-0.15692138671875,0.0267486572265625
1772788955928781800,23.79678173828125,-1.0125885009765625,-0.157318115234375,0.0331573486328125
1772788955948813600,23.8168134765625,-0.991058349609375,-0.1586761474609375,0.035247802734375
1772788955968846600,23.8368466796875,-0.9714813232421875,-0.1548004150390625,0.0305023193359375
1772788955988879600,23.856879638671874,-0.9783477783203125,-0.152069091796875,0.0341949462890625
1772788956008911600,23.87691162109375,-0.9985809326171875,-0.1531219482421875,0.0324249267578125
1772788956028944600,23.896944580078124,-1.007080078125,-0.1489715576171875,0.0357666015625
1772788956048978000,23.91697802734375,-1.0157318115234375,-0.1470947265625,0.0420379638671875
1772788956069010000,23.937010009765626,-0.9989776611328125,-0.15087890625,0.0319671630859375
1772788956089043000,23.95704296875,-0.993377685546875,-0.1508636474609375,0.0290374755859375
1772788956109076000,23.977075927734376,-0.9967041015625,-0.1507720947265625,0.0322113037109375
1772788956129109000,23.99710888671875,-0.997283935546875,-0.151947021484375,0.03326416015625
1772788956149140700,24.017140625,-0.99554443359375,-0.1600799560546875,0.03631591796875
1772788956169174000,24.037174072265625,-0.971099853515625,-0.1646575927734375,0.0409088134765625
1772788956189206800,24.057206787109376,-0.954345703125,-0.1667938232421875,0.0325469970703125
1772788956209239000,24.077239013671875,-0.9754791259765625,-0.161285400390625,0.033203125
1772788956229271800,24.097271728515626,-0.998016357421875,-0.1546173095703125,0.0361785888671875
1772788956249305000,24.11730517578125,-0.99285888671875,-0.15057373046875,0.0361175537109375
1772788956269336800,24.1373369140625,-0.98455810546875,-0.1456146240234375,0.03594970703125
1772788956289369900,24.157369873046875,-0.9864349365234375,-0.1440582275390625,0.0370330810546875
1772788956309403000,24.17740283203125,-0.9977874755859375,-0.1459197998046875,0.0457000732421875
1772788956329436000,24.197435791015625,-0.9966583251953125,-0.1476287841796875,0.0446929931640625
1772788956349468000,24.217468017578124,-0.9927520751953125,-0.152496337890625,0.0361328125
1772788956369501000,24.2375009765625,-0.986053466796875,-0.159393310546875,0.028350830078125
1772788956389534000,24.257533935546874,-0.9739532470703125,-0.1607666015625,0.0256500244140625
1772788956409566000,24.27756591796875,-1.000732421875,-0.1571807861328125,0.0316619873046875
1772788956429598700,24.2975986328125,-1.0041351318359375,-0.1540374755859375,0.035400390625
1772788956449632000,24.317632080078123,-0.9778289794921875,-0.1541290283203125,0.0251617431640625
1772788956469663700,24.337663818359374,-0.9794464111328125,-0.156829833984375,0.02410888671875
1772788956489697000,24.357697021484373,-0.9861907958984375,-0.154266357421875,0.0261993408203125
1772788956509729800,24.377729736328124,-0.9888763427734375,-0.15814208984375,0.025482177734375
1772788956529763000,24.39776318359375,-0.9841156005859375,-0.158599853515625,0.0224761962890625
1772788956549794800,24.417794921875,-0.981964111328125,-0.156646728515625,0.023834228515625
1772788956569827800,24.437827880859373,-0.988250732421875,-0.1551513671875,0.0269927978515625
1772788956589860900,24.45786083984375,-0.9813690185546875,-0.1561279296875,0.0258636474609375
1772788956609892900,24.477892822265623,-0.9918060302734375,-0.1585693359375,0.019989013671875
1772788956629926000,24.49792578125,-0.986175537109375,-0.151885986328125,0.02313232421875
1772788956649959000,24.517958984375,-0.985687255859375,-0.1504974365234375,0.0238494873046875
1772788956669991000,24.537990966796876,-0.9935150146484375,-0.154205322265625,0.028778076171875
1772788956690024000,24.55802392578125,-1.0000152587890625,-0.1516571044921875,0.0315704345703125
1772788956710057000,24.578056884765626,-0.999481201171875,-0.148834228515625,0.0297698974609375
1772788956730090000,24.598090087890625,-0.986572265625,-0.1481170654296875,0.0219268798828125
1772788956750121700,24.618121826171876,-0.9892120361328125,-0.1512451171875,0.0191802978515625
1772788956770155000,24.638155029296875,-0.9980316162109375,-0.1539154052734375,0.0218505859375
1772788956790187800,24.658187744140626,-0.994842529296875,-0.1541595458984375,0.0316925048828125
1772788956810220000,24.678219970703125,-0.9727783203125,-0.1544952392578125,0.028656005859375
1772788956830252800,24.698252685546876,-0.9827117919921875,-0.154449462890625,0.023162841796875
1772788956850286000,24.7182861328125,-0.990875244140625,-0.1549072265625,0.014617919921875
1772788956870317800,24.73831787109375,-1.00341796875,-0.1525421142578125,0.0238800048828125
1772788956890350800,24.758350830078125,-0.9954071044921875,-0.1454010009765625,0.0297393798828125
1772788956910383900,24.7783837890625,-0.99139404296875,-0.146331787109375,0.02972412109375
1772788956930417000,24.7984169921875,-0.9799652099609375,-0.150848388671875,0.0216217041015625
1772788956950449000,24.818448974609375,-0.9782867431640625,-0.1536712646484375,0.0287017822265625
1772788956970482000,24.83848193359375,-0.9830780029296875,-0.1552734375,0.025299072265625
1772788956990515000,24.858514892578125,-0.980224609375,-0.1585845947265625,0.021575927734375
1772788957010547000,24.878546875,-0.9814300537109375,-0.159881591796875,0.0225677490234375
1772788957030579700,24.898579833984375,-0.9932403564453125,-0.156829833984375,0.025390625
1772788957050613500,24.918613525390626,-0.9867095947265625,-0.1551361083984375,0.023895263671875
1772788957070645200,24.938645263671877,-0.9803314208984375,-0.15496826171875,0.0224761962890625
1772788957090678500,24.958678466796876,-0.9904327392578125,-0.1540985107421875,0.0223388671875
1772788957110711300,24.978711181640627,-0.9928741455078125,-0.1543731689453125,0.022735595703125
1772788957130744600,24.99874462890625,-0.988128662109375,-0.1523284912109375,0.020172119140625
1772788957150776300,25.0187763671875,-0.994049072265625,-0.1524505615234375,0.023284912109375
1772788957170809300,25.038809326171876,-1.0027618408203125,-0.1508636474609375,0.0250701904296875
1772788957190842400,25.05884228515625,-0.98345947265625,-0.154266357421875,0.0227203369140625
1772788957210874400,25.078874267578126,-0.97991943359375,-0.152923583984375,0.0267791748046875
1772788957230907400,25.098907470703125,-0.973876953125,-0.1501617431640625,0.0263519287109375
1772788957250940400,25.1189404296875,-0.996429443359375,-0.1479339599609375,0.0253448486328125
1772788957270973400,25.138973388671875,-0.991424560546875,-0.15234375,0.0206451416015625
1772788957291005400,25.15900537109375,-0.986083984375,-0.1547088623046875,0.016632080078125
1772788957311038200,25.1790380859375,-0.9925384521484375,-0.151947021484375,0.0236663818359375
1772788957331071500,25.199071533203124,-1.0044097900390625,-0.146820068359375,0.03326416015625
1772788957351103200,25.219103271484375,-0.995635986328125,-0.15234375,0.029876708984375
1772788957371136500,25.239136474609374,-0.9756011962890625,-0.15826416015625,0.0236663818359375
1772788957391169300,25.259169189453125,-0.9711151123046875,-0.15838623046875,0.0198516845703125
1772788957411201500,25.279201416015624,-0.981964111328125,-0.159027099609375,0.0200653076171875
1772788957431234300,25.299234375,-0.9885711669921875,-0.1549072265625,0.0197906494140625
1772788957451267600,25.319267578125,-0.9918212890625,-0.1528472900390625,0.0205078125
1772788957471300400,25.33930029296875,-1.0044403076171875,-0.149566650390625,0.02386474609375
1772788957491332400,25.359332275390624,-0.99432373046875,-0.151397705078125,0.021270751953125
1772788957511365400,25.379365478515624,-0.9818572998046875,-0.14666748046875,0.0228118896484375
1772788957531398400,25.3993984375,-0.988037109375,-0.1418304443359375,0.0232391357421875
1772788957551430400,25.419430419921873,-1.0024871826171875,-0.1395263671875,0.028839111328125
1772788957571463400,25.43946337890625,-0.99383544921875,-0.145904541015625,0.0146484375
1772788957591496400,25.459496337890624,-0.9984283447265625,-0.1454315185546875,0.0212554931640625
1772788957611528400,25.479528564453126,-0.9991912841796875,-0.14892578125,0.0237884521484375
1772788957631561200,25.499561279296874,-0.9867401123046875,-0.1535186767578125,0.0240478515625
1772788957651594500,25.519594482421876,-0.96697998046875,-0.155731201171875,0.017425537109375
1772788957671627300,25.539627197265624,-0.987274169921875,-0.157470703125,0.015167236328125
1772788957691659500,25.559659423828126,-0.99835205078125,-0.157318115234375,0.0134429931640625
1772788957711692300,25.5796923828125,-0.9951171875,-0.1531982421875,0.019073486328125
1772788957731725600,25.5997255859375,-0.975128173828125,-0.150970458984375,0.01947021484375
1772788957751757300,25.61975732421875,-0.98150634765625,-0.1475677490234375,0.0201263427734375
1772788957771790300,25.639790283203126,-0.993255615234375,-0.15179443359375,0.0123291015625
1772788957791823400,25.6598232421875,-0.986297607421875,-0.1513214111328125,0.0179595947265625
