time,seconds_elapsed,z,y,x
1772788932202604800,0.070604736328125,-0.15953058004379272,-0.3440847098827362,-0.2696177065372467
1772788932222637800,0.090637939453125,-0.22951462864875793,-0.452406108379364,-0.31125760078430176
1772788932242670800,0.1106708984375,-0.2728234827518463,-0.5246838331222534,-0.3557518720626831
1772788932262702800,0.130702880859375,-0.3090582489967346,-0.4738677144050598,-0.31555721163749695
1772788932282735900,0.15073583984375,-0.35544484853744507,-0.5086197257041931,-0.27108442783355713
1772788932302767900,0.170767822265625,-0.33949095010757446,-0.4190089702606201,-0.20374582707881927
1772788932322801000,0.19080078125,-0.27946481108665466,-0.4592724144458771,-0.18378840386867523
1772788932342833700,0.210833740234375,-0.12690019607543945,-0.3697783648967743,-0.19842766225337982
1772788932362866000,0.230865966796875,-0.16334031522274017,-0.34917938709259033,-0.14569216966629028
1772788932382898700,0.250898681640625,-0.23775310814380646,-0.2588445544242859,-0.15086345374584198
1772788932402932000,0.270931884765625,-0.17606499791145325,-0.1437939703464508,-0.22325503826141357
1772788932422964000,0.2909638671875,-0.10487977415323257,-0.031099632382392883,-0.17781297862529755
1772788932442997000,0.3109970703125,0.012711208313703537,-0.1675945371389389,-0.09674520790576935
1772788932463029000,0.331029052734375,-0.14834536612033844,-0.080315001308918,-0.0035310599487274885
1772788932483061800,0.351061767578125,-0.5960472822189331,0.36133819818496704,0.289455771446228
1772788932503094800,0.3710947265625,-0.8390551805496216,1.2929412126541138,0.919670581817627
1772788932523126800,0.391126708984375,-0.7055591940879822,2.3508477210998535,1.4166207313537598
1772788932543160000,0.41116015625,-0.4247643053531647,2.28635835647583,1.5808943510055542
1772788932563192800,0.43119287109375,-0.33304885029792786,2.8656983375549316,1.5232598781585693
1772788932583224800,0.451224853515625,-1.8351129293441772,-1.6887105703353882,-1.7506601810455322
1772788932603257900,0.4712578125,-1.3339872360229492,-0.5884695053100586,-1.6343276500701904
1772788932623289900,0.491289794921875,-0.5872157216072083,0.588542103767395,-0.6585949659347534
1772788932643323000,0.511322998046875,-0.3852160573005676,0.8650672435760498,-0.2304440438747406
1772788932663356000,0.53135595703125,-0.32126384973526,1.0197010040283203,-0.049602724611759186
1772788932683387600,0.5513876953125,-0.1608336865901947,0.8820317983627319,0.0724339634180069
1772788932703421000,0.5714208984375,-0.16124111413955688,0.415673166513443,0.16858310997486115
1772788932723453700,0.59145361328125,-0.16634002327919006,-0.14782308042049408,0.1976776272058487
1772788932743486000,0.61148583984375,-0.1533088982105255,-0.43005847930908203,0.09124969691038132
1772788932763518700,0.631518798828125,0.6101011633872986,-0.21643920242786407,0.38953089714050293
1772788932783551000,0.651551025390625,1.1190245151519775,-0.6008191108703613,0.597942054271698
1772788932803583700,0.671583740234375,0.9939000010490417,-0.3133980333805084,0.19997289776802063
1772788932823617000,0.691616943359375,0.7382550835609436,-0.0668395534157753,0.10215029120445251
1772788932843649000,0.71164892578125,0.5469945073127747,-0.1943458914756775,0.31367966532707214
1772788932863681800,0.731681884765625,0.36059245467185974,0.32406869530677795,0.26783573627471924
1772788932883714800,0.75171484375,0.17248587310314178,1.0001064538955688,0.07117516547441483
1772788932903746800,0.771746826171875,0.15022775530815125,0.8785451054573059,0.04326678439974785
1772788932923779800,0.79177978515625,0.2018442302942276,0.3493282198905945,0.04598303884267807
1772788932943811800,0.811811767578125,0.22962763905525208,0.21832004189491272,-0.21643787622451782
1772788932963844900,0.831844970703125,0.15769614279270172,0.47116661071777344,-0.42533567547798157
1772788932983878000,0.8518779296875,0.07797995209693909,0.08349441736936569,-0.3231847882270813
1772788933003910000,0.871909912109375,-0.10515386611223221,-1.1043026447296143,-0.03110261633992195
1772788933023943000,0.89194287109375,0.015662824735045433,-1.72593092918396,-0.16168111562728882
1772788933043976200,0.91197607421875,0.2672263979911804,-1.7729665040969849,-0.30276182293891907
1772788933064008000,0.932008056640625,0.457005113363266,-1.779834270477295,-0.15092995762825012
1772788933084041200,0.952041259765625,0.34790942072868347,-2.0091328620910645,-0.14272864162921906
1772788933104073000,0.972072998046875,0.18641886115074158,-2.16788911819458,-0.2198040932416916
1772788933124106000,0.99210595703125,0.08149506896734238,-2.22499942779541,-0.48929059505462646
1772788933144139000,1.012138916015625,0.45881548523902893,-1.7520248889923096,-0.23989786207675934
1772788933164171000,1.0321708984375,0.47651150822639465,-0.7063267230987549,0.08283106982707977
1772788933184204000,1.0522041015625,0.38466089963912964,0.2962418794631958,0.07611887156963348
1772788933204237000,1.072237060546875,0.15187615156173706,0.950011134147644,-0.15057875216007233
1772788933224268800,1.092268798828125,0.052396152168512344,0.9888535141944885,-0.3164193630218506
1772788933244302000,1.112302001953125,0.0533585287630558,0.710344672203064,-0.3207317590713501
1772788933264334000,1.132333984375,0.002819572575390339,0.27932849526405334,-0.2684353291988373
1772788933284367000,1.1523671875,-0.011867029592394829,0.21436788141727448,-0.14342862367630005
1772788933304400000,1.17239990234375,-0.011763829737901688,0.40131139755249023,-0.040846191346645355
1772788933324432100,1.19243212890625,0.11998870968818665,0.567631185054779,-0.09692155569791794
1772788933344465000,1.21246484375,0.06256071478128433,0.5393347144126892,-0.1352512389421463
1772788933364498200,1.232498291015625,-0.136223703622818,0.30151131749153137,-0.07034870237112045
1772788933384530200,1.2525302734375,-0.16794346272945404,0.023569241166114807,0.026776418089866638
1772788933404563000,1.27256298828125,-0.1592331975698471,-0.13121140003204346,0.06528505682945251
1772788933424595200,1.29259521484375,-0.19377686083316803,-0.058280572295188904,0.08329552412033081
1772788933444628000,1.3126279296875,-0.27545520663261414,0.11803975701332092,-0.061930131167173386
1772788933464661200,1.3326611328125,-0.27859923243522644,0.19358861446380615,-0.14285621047019958
1772788933484693000,1.35269287109375,-0.2573639154434204,0.11527889221906662,-0.08322437107563019
1772788933504726000,1.37272607421875,-0.29459962248802185,0.022557660937309265,-0.0614030547440052
1772788933524759000,1.392759033203125,-0.3323817253112793,0.12693873047828674,-0.14590159058570862
1772788933544791000,1.412791015625,-0.2856057584285736,0.20805534720420837,-0.2546263635158539
1772788933564824000,1.432823974609375,-0.24090896546840668,0.09515433013439178,-0.2639886140823364
1772788933584856000,1.45285595703125,-0.2980738878250122,0.08668898046016693,-0.19365781545639038
1772788933604888800,1.472888916015625,-0.39616450667381287,0.12687340378761292,-0.12897203862667084
1772788933624922000,1.492922119140625,-0.4070341885089874,0.019936610013246536,-0.1473819464445114
1772788933644953900,1.512953857421875,-0.4137086570262909,-0.16453514993190765,-0.2464776337146759
1772788933664987100,1.532987060546875,-0.5057321190834045,0.04768812656402588,-0.13645462691783905
1772788933685020000,1.55302001953125,-0.3746151328086853,0.2075723260641098,0.014146329835057259
1772788933705052200,1.57305224609375,-0.19819265604019165,-0.06670574843883514,-0.048765309154987335
1772788933725085000,1.5930849609375,-0.2759050130844116,-0.0784611701965332,-0.032851871103048325
1772788933745117000,1.613116943359375,-0.3765697777271271,0.30689090490341187,-0.07100331783294678
1772788933765150000,1.63314990234375,-0.277278870344162,0.23804892599582672,-0.2521746754646301
1772788933785183000,1.653182861328125,-0.285512238740921,0.15880833566188812,-0.1678827702999115
1772788933805215200,1.67321533203125,-0.3340265154838562,0.005195067264139652,0.1499716341495514
1772788933825248000,1.693248046875,-0.3560600280761719,-0.3284662365913391,0.223040372133255
1772788933845281000,1.713281005859375,-0.39871466159820557,-0.5274428129196167,0.06745541840791702
1772788933865313000,1.73331298828125,-0.46463629603385925,-0.18180516362190247,-0.10253799706697464
1772788933885346000,1.753345947265625,-0.3838479518890381,-0.03798401728272438,-0.24267037212848663
1772788933905378000,1.7733779296875,-0.30101633071899414,-0.03667043149471283,-0.2625800371170044
1772788933925411000,1.7934111328125,-0.3532719314098358,0.20491448044776917,-0.04515806585550308
1772788933945444000,1.813444091796875,-0.39640510082244873,-0.12126654386520386,0.19831722974777222
1772788933965476000,1.83347607421875,-0.38182055950164795,-0.625871479511261,0.23640653491020203
1772788933985508900,1.8535087890625,-0.43228477239608765,-0.002702421508729458,0.10865522176027298
1772788934005542100,1.873542236328125,-0.40977123379707336,0.401909738779068,0.16344816982746124
1772788934025573600,1.89357373046875,-0.2526750862598419,0.042300015687942505,0.3043336570262909
1772788934045606700,1.913606689453125,-0.3028745651245117,0.22424805164337158,0.19727005064487457
1772788934065638700,1.933638671875,-0.3618500232696533,0.30777645111083984,0.062048859894275665
1772788934085671700,1.953671630859375,-0.2974134087562561,0.09570039063692093,0.13711579144001007
1772788934105704400,1.973704345703125,-0.1455589085817337,0.09268314391374588,0.23212486505508423
1772788934125736700,1.99373681640625,-0.17053984105587006,0.4343149960041046,0.035840801894664764
1772788934145769500,2.01376953125,-0.46346062421798706,0.06433288007974625,-0.28179019689559937
1772788934165801500,2.033801513671875,-0.550477147102356,-0.551891565322876,-0.2311577945947647
1772788934185834800,2.053834716796875,-0.19382306933403015,0.13582739233970642,0.08085061609745026
1772788934205867500,2.073867431640625,-0.046647559851408005,0.9703924655914307,0.16549238562583923
1772788934225899800,2.093899658203125,-0.19446589052677155,0.26528269052505493,0.2598205506801605
1772788934245932500,2.1139326171875,-0.33484113216400146,-0.39742329716682434,0.4484637379646301
1772788934265965800,2.1339658203125,-0.4708925485610962,0.17580237984657288,0.31567731499671936
1772788934285997600,2.15399755859375,-0.506714403629303,0.4855932593345642,0.134424090385437
1772788934306030600,2.174030517578125,-0.4428272545337677,-0.08459164947271347,0.24938848614692688
1772788934326062600,2.1940625,-0.2940635085105896,-0.43065622448921204,0.18067610263824463
1772788934346095600,2.214095703125,-0.08892893046140671,0.056532181799411774,-0.16026341915130615
1772788934366128600,2.234128662109375,0.037852510809898376,0.2853737473487854,-0.32509714365005493
1772788934386160600,2.25416064453125,0.04649782553315163,-0.0984504371881485,-0.0651421844959259
1772788934406193400,2.274193359375,-0.039909087121486664,-0.13031847774982452,0.136490136384964
1772788934426226700,2.294226806640625,-0.14914174377918243,-0.20874826610088348,0.2277081161737442
1772788934446258400,2.314258544921875,-0.23241277039051056,-0.49185365438461304,0.3457607924938202
1772788934466291700,2.334291748046875,-0.19507735967636108,-0.614963710308075,0.3074043393135071
1772788934486323700,2.35432373046875,-0.10991799086332321,-0.09789540618658066,0.18707367777824402
1772788934506356700,2.374356689453125,-0.12624122202396393,-0.012574870139360428,0.3365648090839386
1772788934526389500,2.394389404296875,-0.1775563806295395,-0.3670009672641754,0.5706229209899902
1772788934546421500,2.41442138671875,-0.1801430732011795,-0.47955670952796936,0.5702564120292664
1772788934566454500,2.43445458984375,-0.09633254259824753,-0.3798852562904358,0.4078943431377411
1772788934586487600,2.454487548828125,0.156245157122612,-0.2917077839374542,0.2816987931728363
1772788934606519800,2.474519775390625,0.3420741856098175,-0.361778199672699,0.16835784912109375
1772788934626552600,2.494552490234375,0.4506920278072357,-0.03567870706319809,0.015046820044517517
1772788934646584600,2.51458447265625,0.2533816993236542,0.715945303440094,-0.07513534277677536
1772788934666617600,2.53461767578125,0.07699748128652573,0.38122692704200745,0.12043242156505585
1772788934686650600,2.554650634765625,0.028367530554533005,-0.5900672078132629,0.3241494297981262
1772788934706682600,2.5746826171875,0.2578451633453369,-0.6376266479492188,0.11027790606021881
1772788934726715600,2.594715576171875,0.46637338399887085,0.2797566056251526,-0.3420312702655792
1772788934746748700,2.614748779296875,0.5546862483024597,0.20957256853580475,-0.2909409999847412
1772788934766780700,2.63478076171875,0.6981039643287659,-0.6340280771255493,0.09575705975294113
1772788934786813400,2.6548134765625,0.7088174819946289,-0.08114483952522278,-0.005621314514428377
1772788934806845700,2.674845703125,0.4796657860279083,1.0268244743347168,-0.38916632533073425
1772788934826878500,2.69487841796875,0.23013396561145782,0.6957016587257385,-0.3312625288963318
1772788934846911700,2.714911865234375,0.08587433397769928,-0.10523708164691925,-0.0018839314579963684
1772788934866943500,2.734943603515625,0.15580196678638458,-0.21052899956703186,0.08907932788133621
1772788934886976800,2.754976806640625,0.20796173810958862,0.4465903043746948,-0.057643670588731766
1772788934907009500,2.775009521484375,0.16951559484004974,0.3176497519016266,-0.11047765612602234
1772788934927041500,2.79504150390625,0.1542130708694458,-0.2795674204826355,-0.0153354462236166
1772788934947074600,2.815074462890625,0.18125545978546143,-0.5386931896209717,0.0646282508969307
1772788934967106600,2.8351064453125,0.1407211869955063,-0.23812128603458405,0.06567823886871338
1772788934987139600,2.8551396484375,0.1209411546587944,-0.30499327182769775,0.05475283041596413
1772788935007172600,2.875172607421875,0.11203601956367493,-0.37700098752975464,0.009458629414439201
1772788935027204900,2.895204833984375,0.15841077268123627,-0.3382919430732727,-0.06116287037730217
1772788935047238000,2.91523779296875,0.2215648591518402,-0.16131606698036194,-0.10754381865262985
1772788935067270700,2.935270751953125,0.28948742151260376,-0.1727762520313263,-0.05842684954404831
1772788935087303000,2.955302978515625,0.39559391140937805,-0.22850362956523895,0.026920756325125694
1772788935107335700,2.975335693359375,0.515901505947113,-0.12481105327606201,0.014605706557631493
1772788935127368000,2.995367919921875,0.541643500328064,0.02248743176460266,-0.05464811995625496
1772788935147401000,3.01540087890625,0.41409018635749817,0.14055651426315308,-0.06231708824634552
1772788935167434000,3.03543408203125,0.23514007031917572,0.10943823307752609,-0.01502271182835102
1772788935187466000,3.055466064453125,0.05633048340678215,0.07048718631267548,0.060785386711359024
1772788935207498800,3.075498779296875,-0.07139935344457626,0.07479716837406158,0.1204160675406456
1772788935227532000,3.095531982421875,-0.16576425731182098,-0.052957452833652496,0.187996506690979
1772788935247563800,3.115563720703125,-0.16510947048664093,-0.16080431640148163,0.2153395265340805
1772788935267597000,3.13559716796875,-0.08217552304267883,-0.1131509393453598,0.10872315615415573
1772788935287628800,3.15562890625,-0.0319252572953701,0.19451169669628143,-0.0016738041304051876
1772788935307661800,3.175661865234375,-0.024771369993686676,0.26488980650901794,0.01914534717798233
1772788935327694800,3.19569482421875,-0.039143480360507965,0.1365918219089508,0.10859409719705582
1772788935347726800,3.215726806640625,-0.02668866142630577,0.16617171466350555,0.103359654545784
1772788935367760000,3.235759765625,-0.08331222832202911,0.1979985237121582,0.015906741842627525
1772788935387793000,3.25579296875,-0.1300354301929474,0.14621132612228394,-0.01610536500811577
1772788935407824600,3.27582470703125,-0.13307145237922668,0.029374144971370697,-0.0042193979024887085
1772788935427858000,3.29585791015625,-0.11353077739477158,0.04302774742245674,0.012347346171736717
1772788935447890000,3.315889892578125,-0.08552099019289017,0.05383656173944473,0.010218966752290726
1772788935467923000,3.3359228515625,-0.05057108402252197,0.09191840142011642,-0.020389467477798462
1772788935487955700,3.355955810546875,-0.05178466811776161,0.20760215818881989,-0.06270764023065567
1772788935507988000,3.375988037109375,-0.05531283840537071,0.20248953998088837,-0.05416129529476166
1772788935528020700,3.396020751953125,-0.05339847505092621,0.23210057616233826,-0.030766548588871956
1772788935548052700,3.416052734375,-0.03731535002589226,0.19920353591442108,-0.022659387439489365
1772788935568086000,3.4360859375,0.004825070034712553,-0.006895901635289192,0.025634199380874634
1772788935588118800,3.456118896484375,0.10038784146308899,-0.30605950951576233,0.053655680269002914
1772788935608151000,3.476151123046875,0.17914356291294098,-0.4087040424346924,0.019009653478860855
1772788935628183800,3.496183837890625,0.1885470747947693,-0.4595440924167633,-0.02455025166273117
1772788935648217000,3.516217041015625,0.1314336210489273,-0.36483845114707947,-0.04002337157726288
1772788935668248800,3.536248779296875,0.0012529923114925623,-0.08112695068120956,-0.022792736068367958
1772788935688281900,3.55628173828125,-0.060483042150735855,0.09121543169021606,-0.013330801390111446
1772788935708313900,3.57631396484375,-0.06087157130241394,0.1632021963596344,0.018051058053970337
1772788935728347000,3.596346923828125,-0.025681590661406517,0.17255131900310516,0.040169622749090195
1772788935748380000,3.6163798828125,-0.005960513837635517,0.21555185317993164,0.06538698822259903
1772788935768412000,3.636411865234375,0.029944593086838722,0.1406325250864029,0.08413156867027283
1772788935788444700,3.656444580078125,0.03739684075117111,0.005903215147554874,0.06370516866445541
1772788935808478000,3.67647802734375,0.02341543510556221,-0.006996492855250835,0.07528360188007355
1772788935828509700,3.696509765625,-0.007130283862352371,0.07563473284244537,0.10816040635108948
1772788935848543000,3.71654296875,-0.01243685744702816,0.19236141443252563,0.1428999900817871
1772788935868575000,3.736574951171875,0.0013080372009426355,0.15900704264640808,0.13310907781124115
1772788935888608000,3.75660791015625,0.0061858221888542175,0.05198114365339279,0.07208597660064697
1772788935908640800,3.776640869140625,-0.017481554299592972,0.02036915346980095,0.06565698981285095
1772788935928672800,3.7966728515625,-0.05370117723941803,0.0337168350815773,0.08906681835651398
1772788935948705800,3.816705810546875,-0.06207163259387016,0.007789904251694679,0.07709363102912903
1772788935968738800,3.83673876953125,-0.026700707152485847,-0.010684936307370663,0.013641797006130219
1772788935988771000,3.85677099609375,0.017152104526758194,-0.021817754954099655,-0.03419295698404312
1772788936008803800,3.876803955078125,0.026968039572238922,0.003612356260418892,-0.03262468799948692
1772788936028837000,3.896837158203125,0.023248735815286636,0.018070653080940247,-0.013048384338617325
1772788936048869000,3.916869140625,0.02646673657000065,0.005760272964835167,-0.009838055819272995
1772788936068902000,3.93690185546875,0.04169183596968651,-0.04974863678216934,-0.018168503418564796
1772788936088934100,3.95693408203125,0.047931671142578125,-0.03468663617968559,-0.021585119888186455
1772788936108967200,3.97696728515625,0.03333115577697754,0.025460323318839073,-0.02335319109261036
1772788936129000200,3.997000244140625,0.002639235695824027,0.04975888505578041,-0.0250567514449358
1772788936149031200,4.01703125,0.027079056948423386,0.006954808719456196,-0.015466423705220222
1772788936169064000,4.03706396484375,0.043293844908475876,-0.006145010702311993,-0.013029774650931358
1772788936189096200,4.05709619140625,0.029266415163874626,-0.011229977011680603,0.0027715913020074368
1772788936209129200,4.077129150390625,0.03147224336862564,-0.03081965446472168,0.0378100611269474
1772788936229162200,4.097162353515625,0.03406767174601555,-0.0746779516339302,0.08451559394598007
1772788936249194200,4.1171943359375,0.030685679987072945,-0.138370081782341,0.09526523947715759
1772788936269227000,4.13722705078125,0.023103928193449974,-0.18949371576309204,0.06803548336029053
1772788936289260000,4.157260009765625,0.01701471209526062,-0.1838831603527069,0.021308351308107376
1772788936309292000,4.1772919921875,0.0004598477389663458,-0.08599106967449188,0.003455177415162325
1772788936329325300,4.1973251953125,0.010601622983813286,-0.04226771369576454,0.01094379834830761
1772788936349357000,4.217357177734375,0.0028406663332134485,0.007166341878473759,-0.0038530221208930016
1772788936369390000,4.23739013671875,-0.011017994023859501,0.07068345695734024,-0.03940051794052124
1772788936389423000,4.257423095703125,-0.02636905387043953,0.08692874014377594,-0.04615370184183121
1772788936409455000,4.277455078125,-0.05465976148843765,0.035801224410533905,0.014902663417160511
1772788936429488000,4.297488037109375,-0.031459495425224304,-0.02189323678612709,0.025922436267137527
1772788936449521200,4.317521240234375,-0.012225804850459099,0.06784479320049286,-0.0011020698584616184
1772788936469553200,4.33755322265625,0.0054384637624025345,0.13084889948368073,-0.016888288781046867
1772788936489586200,4.357586181640625,-0.008081892505288124,0.09847016632556915,0.003883849363774061
1772788936509619000,4.377618896484375,-0.02975785918533802,-0.008291522972285748,0.03168138116598129
1772788936529651200,4.397651123046875,-0.06453108787536621,-0.041162919253110886,-0.012734757736325264
1772788936549685000,4.41768505859375,-0.08093486726284027,0.03751824051141739,-0.05645451322197914
1772788936569717200,4.43771728515625,-0.04895147308707237,0.06545178592205048,-0.061801496893167496
1772788936589750000,4.45775,-0.02533990703523159,0.017521245405077934,-0.028060294687747955
1772788936609783300,4.477783203125,-0.0060165151953697205,0.055431537330150604,-0.014620154164731503
1772788936629815000,4.49781494140625,0.00722216721624136,0.1194063201546669,-0.03259684890508652
1772788936649848300,4.517848388671875,0.004524173215031624,0.043919675052165985,-0.036044638603925705
1772788936669881000,4.537881103515625,-0.01093114074319601,-0.06495685130357742,-0.0060535310767591
1772788936689913000,4.5579130859375,-0.02446429431438446,0.005327350459992886,-0.018249692395329475
1772788936709946000,4.577946044921875,-0.01750483177602291,0.08511851727962494,-0.033287081867456436
1772788936729978000,4.59797802734375,-0.009895027615129948,0.035963788628578186,-0.009329093620181084
1772788936750011100,4.61801123046875,0.0019632300827652216,0.020630374550819397,-0.008751720190048218
1772788936770044200,4.638044189453125,-0.026746423915028572,0.013124288059771061,0.018892411142587662
1772788936790076000,4.658075927734375,-0.04300479590892792,-0.015750307589769363,0.028547197580337524
1772788936810109200,4.678109130859375,-0.04556243121623993,0.005277210846543312,0.02372441627085209
1772788936830142000,4.698141845703125,-0.032941531389951706,0.0011860309168696404,0.016491346061229706
1772788936850174200,4.71817431640625,-0.02790546603500843,-0.028059545904397964,0.016952840611338615
1772788936870207000,4.73820703125,-0.015722494572401047,-0.036578308790922165,0.02184418775141239
1772788936890240300,4.758240234375,-0.028789766132831573,0.0029462985694408417,0.05664873123168945
1772788936910272000,4.77827197265625,-0.04087628424167633,-0.015116782858967781,0.09816105663776398
1772788936930305000,4.798304931640625,-0.041307687759399414,-0.07727370411157608,0.12714606523513794
1772788936950337300,4.818337158203125,-0.03608890250325203,-0.11403719335794449,0.10433336347341537
1772788936970370000,4.8383701171875,-0.040864210575819016,-0.09505631774663925,0.06171455234289169
1772788936990403000,4.858403076171875,-0.02500341832637787,-0.018597867339849472,0.012057151645421982
1772788937010435000,4.87843505859375,-0.026883913204073906,0.0548136830329895,-0.004281557165086269
1772788937030467800,4.8984677734375,-0.007673084270209074,0.04567953199148178,-0.0008762809447944164
1772788937050500900,4.9185009765625,0.017527291551232338,-0.002987021580338478,0.003237529192119837
1772788937070532900,4.938532958984375,0.009448044933378696,0.01056655403226614,-0.002823789604008198
1772788937090566000,4.95856591796875,-0.01346246711909771,0.02060827612876892,-0.018292373046278954
1772788937110598000,4.978597900390625,-0.029566774144768715,0.0028989752754569054,-0.028446033596992493
1772788937130631000,4.998630859375,-0.013351810164749622,0.03519866243004799,-0.029060453176498413
1772788937150664000,5.018663818359375,0.0045832679606974125,0.0785517692565918,-0.0166338924318552
1772788937170695700,5.03869580078125,0.027633002027869225,0.031923964619636536,0.012751614674925804
1772788937190729000,5.05872900390625,0.014124950394034386,0.0060536665841937065,0.000353790819644928
1772788937210761700,5.07876171875,-0.018593130633234978,-0.023157093673944473,-0.027873795479536057
1772788937230794000,5.0987939453125,-0.057273004204034805,-0.0545516200363636,-0.036755580455064774
1772788937250826800,5.11882666015625,-0.05064789205789566,-0.06124698370695114,-0.029980752617120743
1772788937270858800,5.138858642578125,-0.026601139456033707,0.006900631822645664,-0.04486566781997681
1772788937290891800,5.158891845703125,0.005512499250471592,0.025198113173246384,-0.059478625655174255
1772788937310924800,5.1789248046875,0.04805627837777138,-0.012489382177591324,-0.059046708047389984
1772788937330957000,5.19895703125,0.0412130132317543,-0.011537191458046436,-0.06634774804115295
1772788937350989800,5.21898974609375,0.02141229622066021,0.025383051484823227,-0.052249129861593246
1772788937371022800,5.23902294921875,0.011338546872138977,-0.006367843598127365,-0.023581186309456825
1772788937391054800,5.259054931640625,0.003906156634911895,-0.03252787888050079,-0.02738548442721367
1772788937411088000,5.279087890625,0.005910109728574753,0.012021060101687908,-0.049779657274484634
1772788937431121000,5.299120849609375,-0.012742526829242706,0.06752628087997437,-0.062243394553661346
1772788937451153000,5.31915283203125,-0.03435278311371803,0.034155458211898804,-0.04785934463143349
1772788937471186000,5.33918603515625,-0.03278584033250809,-0.005409102886915207,-0.005813580472022295
1772788937491218000,5.359218017578125,-0.0026761323679238558,0.008196347393095493,0.010392269119620323
1772788937511251000,5.3792509765625,0.0059570977464318275,0.028062567114830017,-0.03205270320177078
1772788937531284000,5.399283935546875,-0.009017965756356716,0.03038264811038971,-0.06440549343824387
1772788937551315700,5.419315673828125,-0.031417738646268845,0.06511974334716797,-0.043896034359931946
1772788937571349000,5.439348876953125,-0.0385776124894619,0.010774391703307629,-0.0035534165799617767
1772788937591381800,5.4593818359375,-0.04345249384641647,-0.0344739630818367,-0.009670482017099857
1772788937611414000,5.4794140625,-0.018141409382224083,0.046782005578279495,-0.07057683169841766
1772788937631446800,5.49944677734375,0.010343391448259354,0.18877875804901123,-0.09228494763374329
1772788937651478800,5.519478759765625,0.015358458273112774,0.17850027978420258,-0.05936780199408531
1772788937671511800,5.53951171875,-0.027356745675206184,0.032209720462560654,-0.004774648696184158
1772788937691544800,5.559544921875,-0.05121440812945366,-0.05426818132400513,0.020693426951766014
1772788937711576800,5.579576904296875,-0.041614189743995667,-0.038491494953632355,0.009126987308263779
1772788937731609900,5.59960986328125,-0.012101360596716404,-0.021283598616719246,0.00022756680846214294
1772788937751643000,5.619642822265625,0.004380342550575733,-0.014372158795595169,-0.012829318642616272
1772788937771675000,5.6396748046875,-0.013515444472432137,-0.0306338369846344,-0.011860320344567299
1772788937791707600,5.659707763671875,-0.038551315665245056,-0.044574081897735596,0.016462698578834534
1772788937811740000,5.679739990234375,-0.043083928525447845,-0.03405376523733139,0.051785457879304886
1772788937831773000,5.69977294921875,-0.03019814006984234,-0.05348121374845505,0.04638127237558365
1772788937851806000,5.719805908203125,-0.021877074614167213,-0.07343144714832306,0.025999022647738457
1772788937871838000,5.739837890625,-0.00700218603014946,-0.05677524581551552,0.0034822016023099422
1772788937891871000,5.75987109375,-0.008982354775071144,-0.01975790411233902,-0.024068109691143036
1772788937911903700,5.77990380859375,-0.013476315885782242,-0.04979957640171051,-0.028183618560433388
1772788937931935700,5.799935791015625,-0.01253105141222477,-0.11658094078302383,-0.026866242289543152
1772788937951969000,5.819968994140625,-0.013876405544579029,-0.11309017986059189,-0.02272270992398262
1772788937972000800,5.840000732421875,-0.006169428583234549,-0.04232454299926758,-0.037580281496047974
1772788937992034000,5.860033935546875,0.009115149267017841,0.05243091285228729,-0.07089632004499435
1772788938012066800,5.88006689453125,0.014395835809409618,0.056598834693431854,-0.08117682486772537
1772788938032099000,5.90009912109375,0.01142912171781063,0.006637364625930786,-0.06113791465759277
1772788938052131800,5.9201318359375,0.0038630736526101828,0.05120334029197693,-0.068523108959198
1772788938072165000,5.9401650390625,0.04125666990876198,0.041485775262117386,-0.07256700843572617
1772788938092196900,5.96019677734375,0.03278970718383789,0.0353764072060585,-0.04614156484603882
1772788938112230100,5.980230224609375,0.018692778423428535,0.0521489642560482,-0.03318367153406143
1772788938132263000,6.000262939453125,0.011532861739397049,-0.03931346535682678,-0.017083246260881424
1772788938152295000,6.020294921875,-0.01626010611653328,-0.027248051017522812,-0.022213073447346687
1772788938172328000,6.040327880859375,-0.02712305635213852,0.0377216711640358,-0.045733943581581116
1772788938192360000,6.06035986328125,-0.029333289712667465,0.04763886332511902,-0.057088516652584076
1772788938212393000,6.08039306640625,-0.029826166108250618,-0.0044691916555166245,-0.04582049697637558
1772788938232426000,6.100426025390625,-0.02967553213238716,0.0008141715079545975,-0.023500431329011917
1772788938252458000,6.1204580078125,-0.021434258669614792,0.03763861581683159,-0.01516592875123024
1772788938272491000,6.140490966796875,-0.0023494656197726727,0.047319963574409485,-0.018499454483389854
1772788938292524000,6.16052392578125,-0.006565079092979431,0.022484734654426575,-0.012199120596051216
1772788938312556000,6.18055615234375,-0.022290825843811035,-0.027168000116944313,0.013397898524999619
1772788938332588800,6.2005888671875,-0.02276218682527542,-0.025647832080721855,0.016756396740674973
1772788938352621000,6.22062109375,0.0042696380987763405,0.031028658151626587,0.0051138983108103275
1772788938372654000,6.240654052734375,0.02528444305062294,0.0521395280957222,0.007856626994907856
1772788938392687000,6.26068701171875,0.016150115057826042,-0.0017341254279017448,0.029726456850767136
1772788938412719000,6.280718994140625,0.00010546413250267506,-0.06288676708936691,0.030829444527626038
1772788938432751900,6.300751953125,0.007768586743623018,-0.0360984168946743,0.015374716371297836
1772788938452785000,6.320784912109375,0.02430678904056549,0.007016370072960854,-0.011829974129796028
1772788938472817000,6.34081689453125,0.02849400043487549,0.028547871857881546,-0.005909954197704792
1772788938492850200,6.36085009765625,0.008158795535564423,0.013324114494025707,0.014587154611945152
1772788938512883000,6.380883056640625,-0.006626208312809467,-0.014583687297999859,0.03873211145401001
1772788938532915000,6.4009150390625,-0.009927128441631794,-0.018874844536185265,0.030592896044254303
1772788938552948000,6.420947998046875,0.007386649493128061,-0.022937145084142685,0.014123590663075447
1772788938572980000,6.44097998046875,0.019433820620179176,-0.017352571710944176,0.019374452531337738
1772788938593013000,6.461012939453125,0.017714960500597954,0.0039837546646595,0.020000627264380455
1772788938613046000,6.4810458984375,-0.005363385193049908,-0.03021826781332493,0.036722004413604736
1772788938633078000,6.501078125,-0.017616160213947296,-0.05142536759376526,0.04081006720662117
1772788938653111000,6.521111083984375,0.00151525205001235,0.03612296283245087,0.011823114939033985
1772788938673144000,6.54114404296875,0.02075864002108574,0.06828368455171585,0.025222865864634514
1772788938693176000,6.561176025390625,0.005580383352935314,0.032128266990184784,0.06638319790363312
1772788938713208800,6.581208740234375,-0.02175644040107727,0.07111731916666031,0.05194089189171791
1772788938733241000,6.601240966796875,-0.06185545027256012,0.11126676946878433,-0.0014325396623462439
1772788938753273900,6.62127392578125,-0.07685916125774384,0.12015947699546814,-0.030229585245251656
1772788938773307100,6.64130712890625,-0.05811583995819092,0.04000350460410118,-0.015189897269010544
1772788938793339100,6.661339111328125,-0.02184070460498333,-0.001594768837094307,-0.013801811262965202
1772788938813372000,6.681371826171875,-0.03039585053920746,0.08411251753568649,-0.03798436373472214
1772788938833405000,6.701405029296875,-0.046668678522109985,0.04179093986749649,-0.032647810876369476
1772788938853437000,6.72143701171875,-0.05470868572592735,-0.06158483028411865,0.009407950565218925
1772788938873470000,6.741469970703125,-0.01963403820991516,-0.04500342160463333,0.005724518559873104
1772788938893503000,6.7615029296875,0.013090608641505241,0.06223580241203308,-0.030789287760853767
1772788938913535000,6.781534912109375,0.015121943317353725,0.06087561696767807,-0.04579714313149452
1772788938933568000,6.801568115234375,-0.025128411129117012,-0.008550229482352734,-0.023724965751171112
1772788938953600000,6.82160009765625,-0.026088541373610497,-0.057772740721702576,0.0031735366210341454
1772788938973633000,6.841633056640625,0.02033144235610962,-0.004687651991844177,-0.002745618810877204
1772788938993666000,6.861666015625,0.034070082008838654,0.04925399273633957,-0.01658492162823677
1772788939013698000,6.881697998046875,0.011852599680423737,-0.0006409706547856331,0.00557528343051672
1772788939033730800,6.901730712890625,0.007233721204102039,-0.059732984751462936,0.027872776612639427
1772788939053763800,6.921763916015625,0.0314970389008522,-0.04311341047286987,-0.006565955933183432
1772788939073795800,6.9417958984375,0.02962438575923443,0.025953855365514755,-0.03527333214879036
1772788939093828900,6.961828857421875,0.005579885561019182,0.031073205173015594,0.004932836163789034
1772788939113862000,6.98186181640625,-0.0035386900417506695,-0.06495954841375351,0.03395189717411995
1772788939133894000,7.001893798828125,0.0019238425884395838,-0.06136390566825867,0.03022068180143833
1772788939153927000,7.021927001953125,0.017116520553827286,0.044630326330661774,0.011544323526322842
1772788939173958700,7.041958740234375,0.03000161051750183,0.08210619539022446,0.00581006333231926
1772788939193992000,7.061991943359375,0.009716231375932693,0.027804821729660034,0.005491646938025951
1772788939214024700,7.082024658203125,-0.029882242903113365,-0.01125416811555624,0.012113534845411777
1772788939234057000,7.102056884765625,-0.036334261298179626,-0.01424007024616003,0.01946730725467205
1772788939254089700,7.12208984375,-0.02839977666735649,0.0392303541302681,0.016313981264829636
1772788939274123000,7.142123046875,-0.010552307590842247,0.06365812569856644,0.018646078184247017
1772788939294155000,7.162155029296875,0.018887685611844063,0.017957622185349464,0.010889564640820026
1772788939314187800,7.182187744140625,0.01337435096502304,0.04226711764931679,-0.016138281673192978
1772788939334220000,7.202219970703125,-0.002101941965520382,0.06287890672683716,-0.013775380328297615
1772788939354252800,7.222252685546875,-0.007155958563089371,-0.01169944554567337,0.008106071501970291
1772788939374285800,7.242285888671875,-0.018543219193816185,-0.04607202485203743,-0.007456268649548292
1772788939394317800,7.26231787109375,-0.009337675757706165,0.0065452177077531815,-0.02773255482316017
1772788939414350800,7.282350830078125,-0.0012071128003299236,0.017112111672759056,-0.03075970895588398
1772788939434384000,7.3023837890625,0.009476534090936184,0.005690322257578373,-0.028897756710648537
1772788939454416000,7.322415771484375,0.01868477463722229,-0.002476339228451252,-0.021770166233181953
1772788939474449000,7.342448974609375,0.0037818620912730694,-0.009873544797301292,-0.01976839080452919
1772788939494482000,7.36248193359375,-0.00438115606084466,-0.00965694710612297,-0.01667364314198494
1772788939514514000,7.382513916015625,-0.014381222426891327,0.04424072057008743,0.002607266418635845
1772788939534547000,7.402546875,0.008545382879674435,0.04807082563638687,0.03790537267923355
1772788939554578700,7.42257861328125,0.023244187235832214,-0.00666455365717411,0.04645969718694687
1772788939574612000,7.442612060546875,0.01991197280585766,0.020504221320152283,0.020481154322624207
1772788939594644700,7.462644775390625,-0.01678096503019333,0.08152089267969131,0.01605462096631527
1772788939614677000,7.482677001953125,-0.04375242069363594,0.05954828858375549,0.036935701966285706
1772788939634709800,7.502709716796875,-0.0338655449450016,-0.055723242461681366,0.05300050973892212
1772788939654743000,7.522742919921875,-0.023922031745314598,-0.06300752609968185,0.01476757787168026
1772788939674774800,7.54277490234375,-0.030868519097566605,0.033885013312101364,-0.024175405502319336
1772788939694807800,7.562807861328125,-0.0663616731762886,0.037270791828632355,-0.016203870996832848
1772788939714840800,7.5828408203125,-0.08618203550577164,-0.04894302785396576,0.0030470979399979115
1772788939734872800,7.602872802734375,-0.08835997432470322,-0.03661472350358963,-0.012893518432974815
1772788939754905900,7.62290576171875,-0.08263726532459259,0.03989769518375397,-0.05792686343193054
1772788939774937900,7.642937744140625,-0.09984640777111053,0.09602850675582886,-0.046945273876190186
1772788939794970600,7.662970703125,-0.09764517843723297,0.0371682308614254,0.01601598784327507
1772788939815004000,7.68300390625,-0.07113050669431686,-0.035901378840208054,0.05678235739469528
1772788939835036000,7.703035888671875,-0.04682427644729614,-0.04600495472550392,0.042136479169130325
1772788939855069000,7.72306884765625,-0.03761092573404312,0.014110198244452477,-0.005569134838879108
1772788939875101700,7.743101806640625,-0.043476250022649765,0.03526744991540909,-0.04296286031603813
1772788939895134000,7.763134033203125,-0.03970935568213463,0.005876919254660606,-0.04418351501226425
1772788939915167000,7.7831669921875,-0.024394750595092773,0.04024387151002884,-0.027287181466817856
1772788939935200000,7.803199951171875,-0.02700001932680607,0.028221111744642258,-0.0032474701292812824
1772788939955232000,7.82323193359375,-0.022232379764318466,-0.03324947878718376,0.011163647286593914
1772788939975264800,7.8432646484375,-0.008147119544446468,-0.0061555467545986176,-0.011274611577391624
1772788939995297000,7.863297119140625,-0.004758315160870552,0.10309930890798569,-0.026342447847127914
1772788940015329800,7.883329833984375,-0.006362241692841053,0.06550204753875732,-0.0033847633749246597
1772788940035363000,7.903363037109375,-0.018527930602431297,-0.05350217595696449,0.025074953213334084
1772788940055395000,7.92339501953125,-0.01099974662065506,-0.0579952672123909,0.012151992879807949
1772788940075428000,7.943427978515625,0.0128733329474926,0.04412238672375679,-0.02059020847082138
1772788940095461000,7.963461181640625,0.021761853247880936,0.061036959290504456,-0.007238403894007206
1772788940115493000,7.9834931640625,0.013810569420456886,-0.05751103162765503,0.0062498669140040874
1772788940135525000,8.003525146484375,-0.0026399060152471066,-0.11717073619365692,-0.025617415085434914
1772788940155558100,8.02355810546875,0.011090251617133617,0.0005757845938205719,-0.06993422657251358
1772788940175590100,8.043590087890625,0.023023031651973724,0.06342136859893799,-0.06988731026649475
1772788940195623200,8.063623046875,0.018488267436623573,-0.035305485129356384,-0.02309589833021164
1772788940215655200,8.0836552734375,0.014857465401291847,-0.09188429266214371,-0.016471441835165024
1772788940235688200,8.103688232421876,0.024121003225445747,-0.016532283276319504,-0.05598582699894905
1772788940255721200,8.12372119140625,0.039396874606609344,0.025250550359487534,-0.04246228188276291
1772788940275753000,8.1437529296875,0.05003571882843971,0.0014639534056186676,0.007357690017670393
1772788940295786200,8.1637861328125,0.033310532569885254,-0.03614254295825958,0.021161120384931564
1772788940315819000,8.183819091796876,0.008590465411543846,-0.002807912416756153,0.013918734155595303
1772788940335851300,8.203851318359375,0.020057259127497673,0.02935592085123062,0.010337833315134048
1772788940355884000,8.223884033203126,0.03275385499000549,0.014008351601660252,0.028753340244293213
1772788940375917300,8.243917236328125,0.028251394629478455,-0.01598801091313362,0.01707044430077076
1772788940395949000,8.263948974609375,-0.0044904411770403385,-0.015812233090400696,-0.0029667909257113934
1772788940415982000,8.283982177734375,-0.005629386752843857,0.020411580801010132,-0.004134928807616234
1772788940436014000,8.30401416015625,0.01457100361585617,0.031164854764938354,0.00512856338173151
1772788940456047000,8.324047119140625,0.039623647928237915,0.002667998895049095,0.03440654277801514
1772788940476080000,8.344080078125,0.028049487620592117,-0.013674592599272728,0.0170904453843832
1772788940496112000,8.364112060546875,-0.017942607402801514,0.0038515878841280937,-0.009326402097940445
1772788940516145200,8.384145263671876,-0.04132438823580742,-0.005481918342411518,-0.025014251470565796
1772788940536178200,8.40417822265625,-0.03630165383219719,-0.05132968723773956,-0.014657747000455856
1772788940556210000,8.4242099609375,-0.010796432383358479,-0.05022500455379486,0.005346176214516163
1772788940576243200,8.4442431640625,0.018103543668985367,-0.003745344467461109,-0.00796898826956749
1772788940596276000,8.46427587890625,0.012025799602270126,0.0577775202691555,-0.035455867648124695
1772788940616308200,8.48430810546875,-0.012970056384801865,0.009280627593398094,-0.01154390349984169
1772788940636341000,8.504341064453126,-0.03008255921304226,-0.08910685032606125,0.016656935214996338
1772788940656374300,8.524374267578125,-0.0022441477049142122,-0.056778088212013245,-0.030121615156531334
1772788940676406300,8.54440625,0.01805548369884491,0.07066352665424347,-0.05665916949510574
1772788940696439000,8.56443896484375,0.012380266562104225,0.0641121119260788,-0.007940085604786873
1772788940716472000,8.58447216796875,-0.0033721746876835823,-0.06569299101829529,0.03963448852300644
1772788940736504000,8.604504150390625,-0.01378006674349308,-0.07163488119840622,0.019889526069164276
1772788940756537000,8.624537109375,0.0012608387041836977,0.04534588009119034,-0.015918711200356483
1772788940776569000,8.644569091796875,0.02487373724579811,0.04862898960709572,-0.006458349525928497
1772788940796602000,8.66460205078125,0.01614351198077202,-0.011561068706214428,0.007635206449776888
1772788940816635100,8.68463525390625,-0.00448345672339201,-0.005160817876458168,0.018605569377541542
1772788940836667100,8.704667236328126,-0.02275930345058441,0.012614905834197998,0.010522781871259212
1772788940856700200,8.7247001953125,-0.02870514616370201,0.0003278842195868492,-0.01019308716058731
1772788940876733200,8.744733154296876,-0.014734659343957901,0.02987527847290039,0.0045072161592543125
1772788940896765200,8.76476513671875,0.0038834039587527514,0.023306669667363167,0.007367810700088739
1772788940916798200,8.784798095703126,-0.015881266444921494,0.021898355334997177,-0.007487553171813488
1772788940936831000,8.8048310546875,-0.01723327673971653,0.01645687222480774,-0.009093252941966057
1772788940956863200,8.82486328125,-0.0030578463338315487,-0.01904943399131298,-0.014765450730919838
1772788940976896000,8.84489599609375,-0.003216173965483904,-0.008328605443239212,-0.015574662946164608
1772788940996929300,8.86492919921875,-0.02257208339869976,0.04982352256774902,-0.015721604228019714
1772788941016961000,8.8849609375,-0.021096890792250633,-0.007481310982257128,0.005827035289257765
1772788941036993800,8.904993896484376,0.013893645256757736,-0.05734046921133995,0.01919548772275448
1772788941057026600,8.925026611328125,0.03551587089896202,0.039362408220767975,0.011726106517016888
1772788941077058600,8.94505859375,0.004829155281186104,0.05932486802339554,0.017602788284420967
1772788941097091600,8.965091552734375,-0.02588164247572422,-0.027990270406007767,0.03538050875067711
1772788941117123600,8.98512353515625,-0.025689346715807915,-0.03782926872372627,0.030369732528924942
1772788941137156600,9.005156494140625,-0.007104580290615559,0.025438569486141205,0.0189020074903965
1772788941157189600,9.025189697265626,0.029544074088335037,0.0036154817789793015,0.02751324698328972
1772788941177221600,9.0452216796875,0.03227652609348297,-0.013645035214722157,0.021300578489899635
1772788941197254700,9.065254638671876,0.006920226849615574,-0.010239539667963982,-0.019490715116262436
1772788941217287400,9.085287353515625,-0.0029368908144533634,-0.04056541621685028,-0.020266789942979813
1772788941237319700,9.105319580078126,0.006908242590725422,-0.02509971149265766,0.004291845019906759
1772788941257352700,9.125352783203125,0.030269159004092216,-0.009152166545391083,0.007354541681706905
1772788941277385700,9.1453857421875,0.03127135708928108,0.007797375321388245,0.007380043156445026
1772788941297417700,9.165417724609375,0.03849742189049721,0.001778431236743927,-0.019650332629680634
1772788941317450800,9.18545068359375,-0.00476455595344305,0.03034125827252865,-0.03926825895905495
1772788941337483500,9.2054833984375,-0.043529774993658066,-0.023343775421380997,-0.005825895816087723
1772788941357515500,9.225515625,-0.050424281507730484,-0.049339644610881805,0.028717275708913803
1772788941377548800,9.245548828125,-0.019096098840236664,0.019998447969555855,0.016864268109202385
1772788941397581600,9.26558154296875,0.006562476046383381,0.0960618332028389,0.007742045912891626
1772788941417613800,9.28561376953125,0.001383896917104721,0.10670887678861618,0.020684294402599335
1772788941437646600,9.305646484375,-0.04767545312643051,0.012578287161886692,0.013212161138653755
1772788941457678600,9.3256787109375,-0.08402349799871445,-0.0700635313987732,0.02319226786494255
1772788941477711600,9.345711669921876,-0.08434654027223587,-0.019212601706385612,-0.00021745124831795692
1772788941497744600,9.36574462890625,-0.030593523755669594,0.026385312899947166,-0.05337231233716011
1772788941517776600,9.385776611328126,0.023215167224407196,0.011557484976947308,-0.0676402598619461
1772788941537809700,9.4058095703125,0.03372066095471382,-0.023472554981708527,-0.05624871701002121
1772788941557842700,9.4258427734375,0.01985621266067028,-0.030447015538811684,-0.03695064038038254
1772788941577874700,9.445874755859375,0.012166189029812813,-0.04167230427265167,-0.02365010231733322
1772788941597907500,9.465907470703126,0.028338242322206497,0.004125705920159817,-0.01754295825958252
1772788941617940700,9.485940673828125,0.0377533845603466,0.021901767700910568,-0.010517867282032967
1772788941637972500,9.505972412109376,0.028477560728788376,0.010575968772172928,0.0013609067536890507
1772788941658005800,9.526005859375,0.016192836686968803,-0.004410360939800739,0.019043590873479843
1772788941678037800,9.546037841796876,0.014240731485188007,0.01706201210618019,0.03796403482556343
1772788941698070800,9.56607080078125,0.010991627350449562,0.02479427680373192,0.03559573367238045
1772788941718103600,9.586103515625,-0.013251879252493382,-0.0017841104418039322,0.04374389350414276
1772788941738135600,9.606135498046875,-0.04347905144095421,-0.04666096717119217,0.04816291108727455
1772788941758168600,9.62616845703125,-0.06385526806116104,-0.02400873228907585,0.0467560738325119
1772788941778201600,9.64620166015625,-0.05751202628016472,0.05171091482043266,0.02832154557108879
1772788941798233900,9.66623388671875,-0.015259794890880585,0.06118399649858475,0.006286178715527058
1772788941818266600,9.6862666015625,-0.010287494398653507,-0.0011225473135709763,-0.021965622901916504
1772788941838299600,9.706299560546874,-0.03449346870183945,-0.045886095613241196,-0.048648662865161896
1772788941858331600,9.72633154296875,-0.04641295224428177,-0.026020320132374763,-0.037794455885887146
1772788941878364700,9.74636474609375,-0.034648098051548004,-0.013595625758171082,-0.0546238049864769
1772788941898397700,9.766397705078125,-0.0030048417393118143,-0.030251063406467438,-0.0753883346915245
1772788941918429700,9.7864296875,0.004385347478091717,-0.032701484858989716,-0.07913663983345032
1772788941938462700,9.806462646484375,-0.013917247764766216,-0.003306879661977291,-0.04131148010492325
1772788941958494700,9.82649462890625,-0.04140010103583336,-0.020966757088899612,-0.002081692684441805
1772788941978527500,9.846527587890625,-0.01785217598080635,-0.04839399456977844,0.012758500874042511
1772788941998560800,9.866560791015624,0.019452031701803207,0.022156301885843277,0.0054886192083358765
1772788942018592500,9.886592529296875,0.029644673690199852,0.0712704285979271,-0.0028640395030379295
1772788942038626600,9.90662646484375,0.0037919343449175358,0.0022348230704665184,-0.008689593523740768
1772788942058659600,9.92665966796875,-0.034437403082847595,-0.05488556623458862,-0.010758948512375355
1772788942078691600,9.946691650390624,-0.02302439697086811,-0.020356424152851105,-0.011577103286981583
1772788942098724600,9.966724609375,0.015743564814329147,0.03216174617409706,-0.024582426995038986
1772788942118757400,9.98675732421875,0.012316254898905754,0.0438961386680603,-0.029744090512394905
1772788942138789400,10.006789306640625,-0.007370923645794392,-0.017342912033200264,-0.01947464421391487
1772788942158822700,10.02682275390625,-0.02053653448820114,-0.06133263185620308,-0.005765470676124096
1772788942178855400,10.04685546875,-0.002577289007604122,-0.022457364946603775,-0.01599862053990364
1772788942198887700,10.0668876953125,0.031907662749290466,0.04448150843381882,-0.01748623698949814
1772788942218920400,10.08692041015625,0.03659748286008835,0.05144498124718666,-0.008408036082983017
1772788942238952400,10.106952392578124,0.005076714791357517,-0.002910229377448559,0.023882362991571426
1772788942258985500,10.1269853515625,-0.038764193654060364,-0.053066663444042206,0.03245824947953224
1772788942279018500,10.1470185546875,-0.02681918255984783,-0.026174327358603477,0.0016098516061902046
1772788942299050500,10.167050537109375,0.011746661737561226,0.04134947806596756,-0.03817971795797348
1772788942319083500,10.18708349609375,0.02034653350710869,0.06376328319311142,-0.021873697638511658
1772788942339116500,10.207116455078125,-0.01177213154733181,0.01060749962925911,0.02767215669155121
1772788942359148500,10.2271484375,-0.03060515969991684,-0.043300509452819824,0.03863448277115822
1772788942379181300,10.247181396484375,-0.022096578031778336,-0.02062107063829899,0.013225214555859566
1772788942399214600,10.267214599609375,-0.00896134041249752,0.04701072350144386,-0.013017863966524601
1772788942419246300,10.287246337890625,-0.011240620166063309,0.03524055704474449,0.018240902572870255
1772788942439279600,10.307279541015625,-0.02132442593574524,-0.04913146048784256,0.035807907581329346
1772788942459312400,10.3273125,-0.022592458873987198,-0.03103030100464821,0.022618183866143227
1772788942479344600,10.3473447265625,-0.005064025521278381,0.009296419098973274,-0.005051556508988142
1772788942499377400,10.36737744140625,0.003373968880623579,0.022201117128133774,-0.02166786789894104
1772788942519409400,10.387409423828124,0.009978396818041801,0.010799978859722614,-0.02255929261445999
1772788942539442400,10.4074423828125,0.002683582017198205,0.0028759660199284554,-0.020181730389595032
1772788942559475500,10.427475341796875,-0.00869331881403923,0.00021585077047348022,-0.012751637026667595
1772788942579507700,10.4475078125,-0.020955011248588562,-0.0000582793727517128,0.0028395624831318855
1772788942599540500,10.46754052734375,0.01214016042649746,-0.003058423288166523,-0.006573215126991272
1772788942619573500,10.487573486328126,0.01819472759962082,0.023570779711008072,-0.02973644807934761
1772788942639605500,10.50760546875,-0.0006350027397274971,0.024604396894574165,-0.008566339500248432
1772788942659638500,10.527638427734376,-0.022636771202087402,-0.017954261973500252,0.030035730451345444
1772788942679671600,10.547671630859375,-0.004143096972256899,-0.015308634378015995,0.03473152220249176
1772788942699703600,10.56770361328125,0.01788109540939331,0.0199089627712965,-0.0007991469465196133
1772788942719736600,10.587736572265625,0.00301561551168561,0.04802079498767853,-0.022799532860517502
1772788942739768600,10.6077685546875,-0.01211920939385891,0.00987034197896719,0.018907222896814346
1772788942759801300,10.62780126953125,-0.01219717226922512,-0.034660376608371735,0.015803780406713486
1772788942779834600,10.647834716796876,-0.010730317793786526,0.0035143885761499405,-0.018466273322701454
1772788942799866400,10.667866455078125,-0.0071197920478880405,0.02983447164297104,-0.004337789956480265
1772788942819899600,10.687899658203126,-0.0003624260425567627,-0.02094445563852787,-0.013311149552464485
1772788942839932400,10.707932373046875,0.0012206246610730886,-0.011478252708911896,-0.02876473404467106
1772788942859964400,10.72796435546875,-0.001785551430657506,0.04928016662597656,-0.03358372300863266
1772788942879997400,10.74799755859375,0.0047959815710783005,-0.008052349090576172,-0.007970057427883148
1772788942900030500,10.768030517578126,-0.010884984396398067,-0.05475956201553345,0.011485151946544647
1772788942920062500,10.7880625,-0.002648578956723213,-0.03078582137823105,0.012564484030008316
1772788942940095500,10.808095458984376,0.008790873922407627,0.004621145315468311,0.0030310358852148056
1772788942960128500,10.82812841796875,0.0204468946903944,0.011640624143183231,-0.022106695920228958
1772788942980160500,10.848160400390626,0.005357470829039812,0.008160896599292755,-0.008844466879963875
1772788943000193500,10.868193603515625,-0.01900595985352993,-0.02115127071738243,0.008171851746737957
1772788943020226600,10.8882265625,-0.014851107262074947,-0.039110708981752396,0.013816887512803078
1772788943040257500,10.908257568359375,0.00018100952729582787,-0.02950114756822586,-0.03232388198375702
1772788943060290600,10.92829052734375,0.009218999184668064,0.04827703535556793,-0.04958624020218849
1772788943080322600,10.948322509765624,0.0052694519981741905,0.0462568923830986,-0.015142721123993397
1772788943100355600,10.96835546875,-0.007639656774699688,-0.01799648627638817,0.027844415977597237
1772788943120388600,10.988388671875,-0.013052941299974918,-0.04586688429117203,0.026726294308900833
1772788943140420400,11.00842041015625,-0.0009514617267996073,0.0012264801189303398,0.00851818360388279
1772788943160453600,11.02845361328125,-0.031610552221536636,-0.003974904306232929,-0.006446930579841137
1772788943180486400,11.048486328125,-0.023714449256658554,-0.02340726926922798,-0.008510974235832691
1772788943200518700,11.0685185546875,-0.013477182947099209,0.012192958034574986,-0.013274649158120155
1772788943220551400,11.088551513671876,0.0034203354734927416,0.03076843172311783,-0.01524515450000763
1772788943240584700,11.108584716796875,0.0010526145342737436,-0.003842618316411972,-0.01830814965069294
1772788943260616400,11.128616455078125,-0.034664105623960495,-0.05354519188404083,-0.0157211534678936
1772788943280649500,11.1486494140625,-0.051092829555273056,-0.026457421481609344,-0.010667321272194386
1772788943300682500,11.1686826171875,-0.025699568912386894,0.02503989264369011,-0.004327148199081421
1772788943320714500,11.188714599609375,0.01900099590420723,0.045468367636203766,0.010144245810806751
1772788943340747500,11.20874755859375,0.029599282890558243,0.024519480764865875,0.02872142568230629
1772788943360780500,11.228780517578125,0.006732767913490534,-0.04238290339708328,0.006644183304160833
1772788943380812500,11.2488125,-0.04368102550506592,-0.059051383286714554,-0.014912637881934643
1772788943400845600,11.268845458984375,-0.04236472398042679,-0.013087810948491096,0.007880918681621552
1772788943420877600,11.288877685546876,0.014270156621932983,0.017365094274282455,0.023545006290078163
1772788943440910600,11.30891064453125,0.03410602733492851,0.04216653108596802,0.0283761378377676
1772788943460943400,11.328943359375,0.002130805514752865,0.021907903254032135,0.03838321939110756
1772788943480975600,11.3489755859375,-0.015684649348258972,-0.01862921006977558,0.05088939145207405
1772788943501008400,11.36900830078125,-0.018447857350111008,-0.03625531122088432,0.01485408190637827
1772788943521041700,11.389041748046875,0.0004997423384338617,-0.005702037364244461,-0.007298908196389675
1772788943541073700,11.40907373046875,0.013926363550126553,0.007143914699554443,-0.0016964490059763193
1772788943561106400,11.4291064453125,0.018501436337828636,-0.06336095184087753,-0.0034754727967083454
1772788943581139500,11.449139404296876,0.005046386271715164,-0.05160435661673546,-0.003213446121662855
1772788943601171500,11.46917138671875,0.010355270467698574,0.03371790051460266,-0.004131600726395845
1772788943621204700,11.489204833984376,0.01639755815267563,0.03110140562057495,-0.004798811860382557
1772788943641237500,11.509237548828125,0.005518238991498947,-0.02514755353331566,0.0029390319250524044
1772788943661269500,11.52926953125,-0.0014562061987817287,-0.018696248531341553,0.012549223378300667
1772788943681302500,11.549302490234375,0.009729916229844093,-0.009305449202656746,0.01671436056494713
1772788943701335600,11.56933544921875,0.022171203047037125,-0.0063820816576480865,-0.007226474583148956
1772788943721367600,11.589367431640625,-0.007906723767518997,0.010965351946651936,-0.02249922789633274
1772788943741400600,11.609400634765626,-0.010472310706973076,-0.0002720402553677559,0.011661561205983162
1772788943761433600,11.62943359375,-0.002826196141541004,-0.021022621542215347,0.018431656062602997
1772788943781465600,11.649465576171876,0.0014938726089894772,0.007027147337794304,0.006499760318547487
1772788943801498400,11.669498291015625,-0.00048455409705638885,0.03463489189743996,-0.0009081386961042881
1772788943821530600,11.689530517578126,-0.008471716195344925,-0.036393631249666214,-0.010964687913656235
1772788943841563400,11.7095634765625,-0.01851755753159523,-0.06161857023835182,-0.011619415134191513
1772788943861596700,11.7295966796875,-0.005321947857737541,-0.012259305454790592,0.00959060713648796
1772788943881628400,11.74962841796875,0.010479548946022987,-0.00878263171762228,0.014537539333105087
1772788943901661700,11.76966162109375,-0.010658444836735725,-0.022255070507526398,0.006819652859121561
1772788943921694500,11.789694580078125,-0.013531414791941643,-0.021054288372397423,-0.011845158413052559
1772788943941726500,11.8097265625,-0.005930706392973661,0.008934198878705502,-0.025764215737581253
1772788943961759500,11.829759521484375,0.003990498371422291,0.020869163796305656,-0.01473674364387989
1772788943981792500,11.84979248046875,-0.005895497277379036,0.007307660765945911,-0.0017851789016276598
1772788944001824500,11.869824462890625,-0.03215857595205307,-0.008125320076942444,0.001006393227726221
1772788944021857500,11.889857421875,-0.028792092576622963,-0.01161675713956356,-0.0045577348209917545
1772788944041891300,11.909891357421875,-0.0038077337667346,-0.00386166013777256,-0.016645479947328568
1772788944061923600,11.929923583984374,0.003179955529049039,0.007132163271307945,-0.0008831052109599113
1772788944081956400,11.949956298828125,-0.004605100490152836,0.03884260356426239,0.040685754269361496
1772788944101989600,11.96998974609375,-0.0029273759573698044,0.008212262764573097,0.01939251273870468
1772788944122021400,11.990021484375,-0.01849239319562912,-0.02710399404168129,-0.022943053394556046
1772788944142054400,12.010054443359374,-0.023666031658649445,-0.02378937415778637,-0.035166528075933456
1772788944162087400,12.03008740234375,-0.018313093110919,0.028155794367194176,-0.02035745233297348
1772788944182119400,12.050119384765624,-0.013571991585195065,0.08128894120454788,-0.014943121001124382
1772788944202152400,12.07015234375,-0.030876049771904945,0.10025269538164139,-0.024353226646780968
1772788944222184400,12.090184326171874,-0.035422250628471375,0.04127677530050278,-0.023656373843550682
1772788944242217200,12.11021728515625,-0.03979109972715378,-0.009724093601107597,-0.011957702226936817
1772788944262250500,12.13025048828125,-0.046650759875774384,-0.02878667041659355,-0.0003820960409939289
1772788944282282200,12.1502822265625,-0.047376055270433426,-0.03492547944188118,0.00034345686435699463
1772788944302315500,12.1703154296875,-0.04016575962305069,-0.013345232233405113,0.0068060848861932755
1772788944322348300,12.190348388671875,-0.006244112737476826,0.030628804117441177,-0.007406294811517
1772788944342380500,12.210380615234374,0.007762886583805084,0.021295301616191864,0.008855653926730156
1772788944362413300,12.230413330078125,-0.0027766015846282244,-0.02175302430987358,0.058040544390678406
1772788944382446300,12.2504462890625,-0.02010311186313629,-0.057268090546131134,0.047094911336898804
1772788944402478300,12.270478271484375,-0.02677852474153042,-0.005058418959379196,-0.0012047684285789728
1772788944422511400,12.290511474609374,-0.00387744908221066,0.05271942541003227,-0.005979031324386597
1772788944442544400,12.31054443359375,0.005537091754376888,-0.0068389736115932465,0.034341759979724884
1772788944462576400,12.330576416015624,-0.01334305014461279,-0.05510619282722473,0.041491713374853134
1772788944482609400,12.350609375,-0.02689489535987377,-0.00016203522682189941,0.005368161480873823
1772788944502642400,12.370642333984375,-0.01872112974524498,0.020201928913593292,0.006239299662411213
1772788944522674400,12.39067431640625,0.00790307205170393,-0.01967628300189972,0.026632141321897507
1772788944542707500,12.41070751953125,0.029027627781033516,-0.012954275123775005,-0.0021013286896049976
1772788944562740200,12.430740234375,0.011048590764403343,0.0368851013481617,-0.030299626290798187
1772788944582772500,12.4507724609375,-0.016318755224347115,0.01792651042342186,-0.024495093151926994
1772788944602805500,12.470805419921875,-0.029884222894906998,-0.06839784234762192,-0.002737208269536495
1772788944622838500,12.490838623046875,-0.027114471420645714,-0.058057039976119995,0.0003887270577251911
1772788944642870500,12.51087060546875,0.005356195382773876,0.009893671609461308,-0.01273301336914301
1772788944662903300,12.5309033203125,0.016251178458333015,0.03456157073378563,-0.02854125201702118
1772788944682936300,12.550936279296875,0.00793300662189722,-0.02042723074555397,-0.02002892643213272
1772788944702968300,12.57096826171875,-0.0031251816544681787,-0.07852502912282944,-0.015601485967636108
1772788944723001600,12.591001708984376,-0.006363462191075087,-0.02145710401237011,0.000494000967592001
1772788944743034400,12.611034423828125,-0.009128089994192123,0.018539046868681908,0.008718375116586685
1772788944763066400,12.63106640625,-0.016464252024888992,0.01103262323886156,0.01740982010960579
1772788944783099400,12.651099365234375,-0.009327377192676067,0.021942786872386932,0.00046214088797569275
1772788944803131400,12.67113134765625,-0.01975245028734207,0.027561159804463387,-0.0370747447013855
1772788944823164400,12.691164306640625,-0.03840348869562149,-0.0028277551755309105,-0.026341546326875687
1772788944843197400,12.711197509765626,-0.047352030873298645,-0.023228755220770836,0.02157437801361084
1772788944863229400,12.7312294921875,-0.00782542210072279,-0.00851045735180378,0.029812898486852646
1772788944883262500,12.751262451171876,0.014919579029083252,0.009887885302305222,0.00885273888707161
1772788944903295500,12.77129541015625,-0.006914696656167507,0.0023697325959801674,-0.004545793402940035
1772788944923327500,12.791327392578125,-0.04086492210626602,-0.030889634042978287,0.0012462791055440903
1772788944943360300,12.8113603515625,-0.038169100880622864,-0.009119810536503792,0.02650538831949234
1772788944963393500,12.8313935546875,-0.02366534434258938,0.020829513669013977,0.05965358391404152
1772788944983425300,12.85142529296875,-0.018970325589179993,-0.01697883941233158,0.10267973691225052
1772788945003458600,12.87145849609375,-0.0012196621391922235,-0.029250767081975937,0.10381036251783371
1772788945023491300,12.8914912109375,0.006820973940193653,0.031733524054288864,0.020880045369267464
1772788945043522800,12.911522705078125,0.0017665401101112366,0.032923921942710876,-0.01748810149729252
1772788945063555800,12.931555908203125,0.003966339863836765,0.01687377691268921,0.010900363326072693
1772788945083588900,12.9515888671875,-0.008690877817571163,-0.003956805914640427,0.03242083266377449
1772788945103621000,12.97162109375,-0.025846870616078377,-0.007312116213142872,0.031884949654340744
1772788945123654000,12.99165380859375,-0.006160282995551825,0.057133276015520096,0.008176435716450214
1772788945143687000,13.01168701171875,0.0064580319449305534,0.039415642619132996,-0.020452260971069336
1772788945163719000,13.031718994140626,-0.01668105274438858,-0.04485038295388222,-0.008407913148403168
1772788945183752000,13.051751953125,-0.028530815616250038,-0.05540734529495239,-0.01333712600171566
1772788945203785000,13.071784912109376,-0.017047571018338203,0.022732926532626152,0.00123678520321846
1772788945223817000,13.09181689453125,0.023557648062705994,0.0590275302529335,0.05476980656385422
1772788945243850000,13.11185009765625,0.04813358187675476,0.0028780288994312286,0.07714059203863144
1772788945263882800,13.1318828125,0.013015657663345337,-0.04032168537378311,0.032184191048145294
1772788945283914800,13.151914794921876,-0.027228305116295815,-0.04038425534963608,-0.020038142800331116
1772788945303948000,13.171947998046875,-0.035027071833610535,-0.0018800999969244003,0.00023036636412143707
1772788945323980800,13.191980712890626,-0.02112549915909767,-0.012669993564486504,0.041208796203136444
1772788945344013000,13.212012939453125,0.003143756417557597,-0.028835391625761986,0.034540120512247086
1772788945364045800,13.2320458984375,-0.008163186721503735,-0.05185702070593834,0.00777398981153965
1772788945384079000,13.2520791015625,-0.0419505313038826,-0.048534490168094635,-0.02050551027059555
1772788945404110800,13.27211083984375,-0.04849464073777199,-0.014055720530450344,-0.02183956652879715
1772788945424144000,13.292143798828125,-0.015593953430652618,0.05757854878902435,-0.0017343200743198395
1772788945444177000,13.312177001953126,-0.004590500611811876,0.02498648129403591,-0.010787775740027428
1772788945464209000,13.332208984375,-0.0155327208340168,0.012702979147434235,-0.034790199249982834
1772788945484242000,13.352241943359376,-0.025034045800566673,0.042878810316324234,-0.0320408008992672
1772788945504275000,13.37227490234375,-0.048602815717458725,-0.02262413501739502,-0.028495024889707565
1772788945524307000,13.392306884765626,-0.060012735426425934,-0.06823411583900452,-0.012571312487125397
1772788945544340000,13.412340087890625,-0.07026404142379761,-0.06288035959005356,0.007676169276237488
1772788945564373000,13.432373046875,-0.012597286142408848,0.027746744453907013,0.0015338542871177197
1772788945584405000,13.452405029296875,0.05657606199383736,0.09286794066429138,-0.024371368810534477
1772788945604437800,13.472437744140626,0.04920846223831177,0.04948034510016441,-0.008427339605987072
1772788945624471000,13.492470947265625,0.013686070218682289,-0.013283751904964447,0.03446216508746147
1772788945644502800,13.512502685546876,-0.01514046173542738,-0.024961858987808228,0.0021078912541270256
1772788945664536000,13.5325361328125,-0.021223921328783035,-0.0018586693331599236,-0.04314028099179268
1772788945684568800,13.55256884765625,-0.010059082880616188,0.03878062963485718,-0.042917702347040176
1772788945704600800,13.572600830078125,0.00029275519773364067,0.02703050896525383,-0.01452748291194439
1772788945724633900,13.5926337890625,-0.008021594025194645,0.006696809083223343,0.00438146386295557
1772788945744667000,13.6126669921875,-0.00488469609990716,0.01735125109553337,0.0205460824072361
1772788945764699000,13.632698974609376,-0.0012237997725605965,0.026297293603420258,0.0038183927536010742
1772788945784732000,13.65273193359375,-0.017757093533873558,0.009303548373281956,-0.03493073955178261
1772788945804765000,13.672764892578124,-0.03793446347117424,-0.03654756769537926,-0.026153288781642914
1772788945824797000,13.692796875,-0.015355379320681095,-0.023546919226646423,-0.010385796427726746
1772788945844829700,13.71282958984375,0.020978106185793877,0.006365938112139702,-0.014457489363849163
1772788945864862000,13.732862060546875,0.03595729544758797,-0.016489239409565926,-0.01860985718667507
1772788945884894700,13.752894775390626,0.023442711681127548,-0.029875202104449272,-0.03912166506052017
1772788945904928000,13.772927978515625,0.012978063896298409,-0.00920235738158226,-0.05692058056592941
1772788945924960000,13.7929599609375,0.025271087884902954,0.0008736113086342812,-0.022143054753541946
1772788945944993000,13.812992919921875,0.03078962303698063,-0.029024094343185425,-0.009821079671382904
1772788945965025800,13.83302587890625,0.024589410051703453,-0.015676656737923622,-0.030857034027576447
1772788945985057800,13.853057861328125,0.0008679225575178862,0.04726371914148331,-0.021750163286924362
1772788946005091000,13.873091064453124,0.006916617043316364,0.006663944572210312,0.020294632762670517
1772788946025123800,13.893123779296875,0.010777687653899193,-0.051779624074697495,0.012256665155291557
1772788946045156400,13.91315625,0.009238647297024727,-0.020236611366271973,-0.04074370115995407
1772788946065189000,13.933189208984375,-0.014449181035161018,0.03932882472872734,-0.045511744916439056
1772788946085222100,13.95322216796875,-0.025586826726794243,0.016498275101184845,-0.009629616513848305
1772788946105254100,13.973254150390625,-0.013818715699017048,-0.019753480330109596,0.01885196939110756
1772788946125287200,13.993287109375,0.016435667872428894,-0.017331713810563087,-0.017371362075209618
1772788946145320200,14.0133203125,0.019440047442913055,0.026942800730466843,-0.05080261453986168
1772788946165352400,14.0333525390625,-0.00011505838483572006,0.02768080122768879,-0.027511095628142357
1772788946185385200,14.05338525390625,-0.03010427951812744,-0.054522641003131866,0.010539771988987923
1772788946205418200,14.073418212890624,-0.029464872553944588,-0.08331943303346634,0.014858635142445564
1772788946225450200,14.0934501953125,0.00769846560433507,0.0042528631165623665,-0.015579946339130402
1772788946245483300,14.113483154296874,0.021504512056708336,0.09388638287782669,-0.04950058460235596
1772788946265516300,14.133516357421875,0.005766807124018669,0.060784585773944855,-0.026649579405784607
1772788946285548300,14.15354833984375,-0.019068414345383644,-0.02918149158358574,0.028398947790265083
1772788946305581300,14.173581298828125,-0.0034832735545933247,-0.03159020096063614,0.02552027255296707
1772788946325614300,14.1936142578125,-0.0024698730558156967,0.04782765358686447,-0.03997917100787163
1772788946345646000,14.21364599609375,-0.020505134016275406,0.06487482786178589,-0.03308311849832535
1772788946365679400,14.233679443359375,-0.020511886104941368,0.011383709497749805,0.0397736020386219
1772788946385712000,14.253712158203125,-0.006757029797881842,-0.04320371523499489,0.013178057968616486
1772788946405744400,14.273744384765624,-0.02523401379585266,0.0367959700524807,-0.03629205748438835
1772788946425777200,14.293777099609375,-0.03281033784151077,0.052274346351623535,-0.017203161492943764
1772788946445810400,14.313810546875,-0.03160981461405754,-0.028762618079781532,0.03714344650506973
1772788946465842200,14.33384228515625,-0.012215834110975266,-0.02293398231267929,0.032522052526474
1772788946485875200,14.353875244140625,0.016536174342036247,0.044331200420856476,-0.041936472058296204
1772788946505908200,14.373908203125,0.0127011863514781,0.05364658311009407,-0.06791982054710388
1772788946525940200,14.393940185546874,-0.013696067035198212,-0.004864395596086979,-0.040066350251436234
1772788946545973200,14.41397314453125,-0.0298930536955595,-0.05071902275085449,-0.01849113218486309
1772788946566006300,14.43400634765625,-0.03500426560640335,-0.012618687935173512,-0.027477335184812546
1772788946586038300,14.454038330078125,-0.0033211426343768835,0.04662725329399109,-0.06212509423494339
1772788946606071300,14.4740712890625,0.014888960868120193,0.03945765644311905,-0.07014010101556778
1772788946626104300,14.494104248046876,0.0016300634015351534,0.019632767885923386,-0.03741907328367233
1772788946646136300,14.51413623046875,-0.015033232048153877,-0.011438515037298203,-0.007435453590005636
1772788946666169000,14.534169189453126,-0.01221991702914238,-0.03382633998990059,0.001396434847265482
1772788946686202400,14.554202392578125,0.0037181887309998274,0.005952009931206703,-0.014530492946505547
1772788946706234000,14.574234130859375,-0.002279791049659252,0.05844222381711006,-0.007454987615346909
1772788946726267400,14.594267333984375,-0.01326959952712059,0.02421165443956852,0.014107048511505127
1772788946746300200,14.614300048828126,-0.04014042392373085,-0.04949808865785599,0.008142407983541489
1772788946766332200,14.634332275390625,-0.05113247409462929,-0.022254066541790962,-0.00904124602675438
1772788946786365200,14.654365234375,-0.02805214934051037,0.047395385801792145,-0.019687261432409286
1772788946806398200,14.674398193359375,-0.013835246674716473,0.051901500672101974,-0.010751981288194656
1772788946826430200,14.69443017578125,-0.019111528992652893,0.027241498231887817,0.019836053252220154
1772788946846463200,14.714463134765625,-0.0217336006462574,-0.02826501615345478,0.05921533703804016
1772788946866496300,14.734496337890626,-0.006711568683385849,-0.04698793590068817,0.04263054579496384
1772788946886528300,14.7545283203125,0.0028476209845393896,0.03139322251081467,-0.016593657433986664
1772788946906561000,14.77456103515625,-0.006976931355893612,0.06290343403816223,-0.03109361231327057
1772788946926594300,14.79459423828125,-0.027255931869149208,-0.00022992026060819626,0.016200494021177292
1772788946946626300,14.814626220703126,-0.011497392319142818,-0.06567412614822388,0.046373479068279266
1772788946966659300,14.834659423828125,0.019401077181100845,-0.02193289063870907,0.011824089102447033
1772788946986692000,14.854692138671876,0.0196249820291996,0.06345951557159424,-0.038774579763412476
1772788947006724400,14.874724365234375,-0.0009109261445701122,0.0526711530983448,-0.03131371736526489
1772788947026757000,14.894757080078126,-0.01605977676808834,-0.023643165826797485,0.020678892731666565
1772788947046790000,14.914789794921875,-0.012869727797806263,-0.04581615701317787,0.0448584258556366
1772788947066822100,14.934822265625,0.003009370295330882,-0.01144992746412754,0.009350231848657131
1772788947086855000,14.95485498046875,0.01100813876837492,0.03342238441109657,-0.04837346822023392
1772788947106888000,14.974887939453126,-0.0018530212109908462,0.0594976432621479,-0.05943604186177254
1772788947126920000,14.994919921875,-0.028161153197288513,0.006395887583494186,-0.013254337012767792
1772788947146953200,15.014953125,-0.030719565227627754,-0.05040238797664642,0.038473762571811676
1772788947166986000,15.034986083984375,-0.0032099210657179356,-0.031206727027893066,0.016321850940585136
1772788947187018000,15.05501806640625,0.02854214236140251,0.06444666534662247,-0.03627396374940872
1772788947207051000,15.075051025390625,0.019200189039111137,0.07829887419939041,-0.04238607734441757
1772788947227084000,15.095083984375,-0.02929079905152321,-0.011498963460326195,-0.002932253060862422
1772788947247116000,15.115115966796875,-0.05804286524653435,-0.07870086282491684,0.02312283031642437
1772788947267149000,15.135149169921876,-0.01803181692957878,-0.043600454926490784,0.003315605688840151
1772788947287182000,15.15518212890625,0.03036246821284294,0.06640741229057312,-0.022017862647771835
1772788947307214000,15.175214111328126,0.014624250121414661,0.07102746516466141,-0.013201199471950531
1772788947327246800,15.195246826171875,-0.029461802914738655,-0.01615968905389309,0.013302409090101719
1772788947347280100,15.215280029296874,-0.03564108535647392,-0.038199249655008316,0.010438665747642517
1772788947367312000,15.235311767578125,-0.016477053984999657,0.016050782054662704,-0.03399130329489708
1772788947387345200,15.25534521484375,-0.008395208045840263,0.0885668396949768,-0.04844503104686737
1772788947407378000,15.2753779296875,-0.019748397171497345,0.062330711632966995,-0.021565090864896774
1772788947427410000,15.295409912109376,-0.017235856503248215,-0.03876292705535889,0.007462190464138985
1772788947447443000,15.31544287109375,-0.0054436856880784035,-0.03251468017697334,-0.012571409344673157
1772788947467476000,15.33547607421875,0.006352368742227554,0.05270056799054146,-0.024024441838264465
1772788947487508000,15.355508056640625,-0.0018796161748468876,0.043912120163440704,0.006281402427703142
1772788947507541000,15.375541015625,-0.0002734130248427391,-0.04776806756854057,0.04302714020013809
1772788947527574000,15.395573974609375,0.02168089710175991,-0.03441667929291725,0.01270756684243679
1772788947547606000,15.41560595703125,0.019817844033241272,0.05316581949591637,-0.024379175156354904
1772788947567638800,15.435638671875,0.015977652743458748,0.04921931028366089,0.02197227068245411
1772788947587672000,15.455672119140624,0.009984474629163742,-0.046889908611774445,0.05469293147325516
1772788947607703800,15.475703857421875,0.01024966686964035,-0.06517606973648071,0.04125466197729111
1772788947627737000,15.495737060546874,0.005301990546286106,-0.005934443324804306,-0.013148592785000801
1772788947647769900,15.515769775390625,0.007948790676891804,0.061031848192214966,-0.010176662355661392
1772788947667802000,15.535802001953124,0.006329246796667576,0.03884756565093994,0.05465967208147049
1772788947687835000,15.5558349609375,0.008502633310854435,-0.015297461301088333,0.06733899563550949
1772788947707868200,15.5758681640625,0.0065081557258963585,-0.0021266229450702667,0.015214325860142708
1772788947727900000,15.59589990234375,-0.01185405720025301,0.039130326360464096,-0.010331816971302032
1772788947747933000,15.615932861328124,-0.016611050814390182,0.02199382521212101,0.030864950269460678
1772788947767966000,15.635966064453125,-0.007249373011291027,-0.04320462793111801,0.0741443932056427
1772788947787998000,15.655998046875,-0.015177658759057522,-0.049902863800525665,0.04547073692083359
1772788947808031000,15.676031005859375,-0.020223211497068405,0.02120930515229702,-0.00014611845836043358
1772788947828064000,15.69606396484375,-0.005195316392928362,0.04285908490419388,0.015197748318314552
1772788947848096000,15.716095947265625,0.009186477400362492,0.004947232082486153,0.04786070063710213
1772788947868129000,15.73612890625,-0.004175802227109671,-0.024074550718069077,0.037087537348270416
1772788947888161800,15.756161865234375,-0.0216003879904747,-0.011522132903337479,0.020632993429899216
1772788947908194000,15.776194091796874,-0.019525671377778053,0.008213977329432964,0.003521543927490711
1772788947928227000,15.79622705078125,-0.0055270423181355,0.016617178916931152,0.003998778760433197
1772788947948260000,15.816260009765625,-0.0005329756531864405,0.033867593854665756,0.02268529124557972
1772788947968292000,15.8362919921875,-0.0006792985368520021,-0.02653498202562332,0.019247790798544884
1772788947988324900,15.856324951171874,-0.023533521220088005,-0.026783518493175507,-0.018517136573791504
1772788948008358000,15.87635791015625,-0.03527526184916496,-0.0170318353921175,-0.024855846539139748
1772788948028390000,15.896389892578124,-0.021937143057584763,-0.021338021382689476,-0.005389673635363579
1772788948048422400,15.91642236328125,0.013004889711737633,0.018542475998401642,-0.006499978248029947
1772788948068455400,15.936455322265624,0.02349259704351425,0.093772754073143,-0.019949665293097496
1772788948088487400,15.9564873046875,0.0010256373789161444,0.08348523080348969,-0.009953489527106285
1772788948108520200,15.976520263671874,-0.040806375443935394,-0.012092309072613716,0.007869590073823929
1772788948128553500,15.996553466796875,-0.06348145753145218,-0.05274813622236252,0.004807630553841591
1772788948148585200,16.016585205078126,-0.0807642787694931,0.06269103288650513,-0.04989692568778992
1772788948168618500,16.036618408203125,-0.05142984539270401,0.0695188120007515,-0.05588396638631821
1772788948188651300,16.0566513671875,-0.03229689970612526,-0.0020536407828330994,-0.017705950886011124
1772788948208683300,16.076683349609375,-0.02472441829741001,0.007776315324008465,-0.007313811685889959
1772788948228716300,16.09671630859375,-0.030288193374872208,0.06761496514081955,-0.026106785982847214
1772788948248749300,16.116749267578125,-0.03864404931664467,0.03002484329044819,-0.0264743585139513
1772788948268781300,16.13678125,-0.04593776911497116,-0.01646181382238865,-0.0066304877400398254
1772788948288814300,16.156814453125,-0.04146091267466545,-0.004997387528419495,0.009660770185291767
1772788948308847400,16.176847412109375,-0.012966145761311054,0.008830438368022442,-0.0004760376177728176
1772788948328880400,16.19688037109375,-0.002503031399101019,0.040717557072639465,-0.0019935823511332273
1772788948348912400,16.216912353515625,0.002430168678984046,0.041220031678676605,0.052070748060941696
1772788948368945400,16.2369453125,0.01466191653162241,-0.007731311488896608,0.07744070887565613
1772788948388978400,16.256978515625,0.010229132138192654,-0.006066608242690563,0.040487974882125854
1772788948409010400,16.277010498046874,-0.011434788815677166,0.01392113696783781,-0.008569412864744663
1772788948429043200,16.297043212890625,-0.028384961187839508,0.011728251352906227,-0.017445242032408714
1772788948449076500,16.317076416015624,-0.0218500979244709,-0.009656665846705437,0.00492051662877202
1772788948469108200,16.337108154296875,-0.0029379732441157103,0.01809057965874672,0.019305361434817314
1772788948489141500,16.3571416015625,-0.002692962298169732,0.03609328344464302,0.02440265193581581
1772788948509174300,16.37717431640625,-0.0241195410490036,0.005241673439741135,0.022162508219480515
1772788948529206300,16.397206298828124,-0.04791437089443207,-0.027334677055478096,0.015514472499489784
1772788948549242400,16.417242431640624,-0.042093776166439056,-0.03516000509262085,-0.02291971631348133
1772788948569275400,16.437275390625,-0.024245403707027435,0.005055869929492474,-0.04529121145606041
1772788948589307400,16.457307373046874,-0.01625899039208889,0.014426028355956078,-0.02931048534810543
1772788948609340400,16.47734033203125,-0.007972662337124348,-0.0047670044004917145,0.004295482765883207
1772788948629373200,16.497373291015624,0.004149696324020624,0.01925492286682129,-0.0046521080657839775
1772788948649405400,16.517405517578126,0.007276075892150402,0.04060620814561844,-0.04072445258498192
1772788948669438500,16.5374384765625,-0.011485777795314789,0.0224338136613369,-0.054206278175115585
1772788948689471200,16.55747119140625,-0.014389147982001305,-0.010277098044753075,-0.039334673434495926
1772788948709504300,16.577504150390624,-0.0029045604169368744,0.00515226274728775,-0.020525267347693443
1772788948729536300,16.597536376953126,0.007636469788849354,0.0024625416845083237,0.00017924373969435692
1772788948749569500,16.617569580078126,0.013422424905002117,-0.01802055723965168,0.021082427352666855
1772788948769602300,16.637602294921876,0.02275407314300537,-0.016789371147751808,-0.02495610900223255
1772788948789634600,16.657634521484376,0.009274504147469997,0.028066284954547882,-0.05923393741250038
1772788948809667300,16.677667236328126,-0.002501727780327201,0.022854477167129517,-0.030322659760713577
1772788948829700400,16.697700439453126,0.01736108586192131,0.005088469944894314,0.03802213445305824
1772788948849732400,16.717732421875,0.03547816351056099,-0.04528110846877098,0.02818961627781391
1772788948869765400,16.737765380859376,0.0179732833057642,-0.01152061764150858,-0.04159910976886749
1772788948889798400,16.75779833984375,-0.00011983606964349747,0.031089704483747482,-0.05462530627846718
1772788948909830400,16.777830322265626,0.0033505884930491447,0.009639906696975231,-0.0020974273793399334
1772788948929863400,16.797863525390625,0.008482146076858044,-0.007325789425522089,0.03628545626997948
1772788948949896400,16.817896484375,0.021219007670879364,0.015441503375768661,0.017823059111833572
1772788948969928200,16.83792822265625,0.00811654981225729,0.013164162635803223,-0.025211524218320847
1772788948989961500,16.85796142578125,-0.013184943236410618,-0.029021380469202995,-0.045392751693725586
1772788949009994200,16.877994140625,-0.02896992862224579,-0.010805008932948112,-0.030492477118968964
1772788949030026500,16.898026611328124,-0.00250858417712152,0.03735378757119179,-0.006639761850237846
1772788949050059800,16.918059814453127,0.010191391222178936,0.0155501589179039,-0.005839658435434103
1772788949070092800,16.9380927734375,0.002121452707797289,0.0005369270220398903,-0.02217678725719452
1772788949090124800,16.958124755859377,-0.010511860251426697,0.018070224672555923,-0.030192289501428604
1772788949110158000,16.978157958984376,-0.022078322246670723,0.014282651245594025,-0.030985571444034576
1772788949130190800,16.99819091796875,-0.023929283022880554,-0.000835866667330265,-0.01159794069826603
1772788949150222800,17.018222900390626,-0.03548591211438179,-0.025629956275224686,0.003165115136653185
1772788949170256000,17.038255859375,-0.03439287468791008,-0.007858792319893837,-0.01205466315150261
1772788949190289000,17.058288818359376,-0.014256352558732033,0.039501454681158066,-0.02631811425089836
1772788949210322000,17.078322021484375,-0.013067933730781078,0.048292238265275955,-0.015529224649071693
1772788949230354000,17.09835400390625,-0.02894868701696396,-0.010121900588274002,0.015682267025113106
1772788949250387000,17.118386962890625,-0.041539158672094345,-0.031263384968042374,0.007673206739127636
1772788949270419700,17.138419677734376,-0.039883170276880264,-0.0007312167435884476,-0.02675858698785305
1772788949290451700,17.15845166015625,-0.016491778194904327,0.01836012303829193,-0.039359092712402344
1772788949310485000,17.178485107421874,0.006370545364916325,0.03718764707446098,-0.04170442745089531
1772788949330517800,17.198517822265625,0.0043501295149326324,0.031421758234500885,-0.017848491668701172
1772788949350550000,17.218550048828124,-0.003215732518583536,-0.03656983748078346,0.016332456842064857
1772788949370582800,17.238582763671875,-0.004094365518540144,-0.086148701608181,0.007085227407515049
1772788949390616000,17.258615966796874,0.011536363512277603,-0.013516755774617195,-0.0326433889567852
1772788949410647800,17.278647705078125,0.039988741278648376,0.06787601858377457,-0.050648968666791916
1772788949430680800,17.298680908203124,0.029656244441866875,0.023301444947719574,-0.016050029546022415
1772788949450713900,17.3187138671875,-0.011152436956763268,-0.05758754536509514,0.02207072265446186
1772788949470745900,17.338745849609374,-0.005329225677996874,-0.027548275887966156,0.01386931724846363
1772788949490779000,17.35877880859375,0.01463270466774702,0.03073357790708542,-0.01774209551513195
1772788949510812000,17.37881201171875,0.017643297091126442,0.02650582604110241,-0.04184463992714882
1772788949530844000,17.398843994140623,-0.002006581984460354,0.0026711979880928993,-0.03018505685031414
1772788949550877000,17.418876953125,-0.029514018446207047,0.0015657460317015648,-0.006795920431613922
1772788949570910000,17.438909912109374,-0.023710619658231735,0.013053376227617264,0.00760607747361064
1772788949590942000,17.45894189453125,0.004531478974968195,0.020241934806108475,-0.0014839034993201494
1772788949610974700,17.478974609375,0.016578974202275276,0.005609217099845409,-0.008659128099679947
1772788949631008000,17.499008056640626,0.013284890912473202,-0.017977101728320122,-0.008656185120344162
1772788949651039700,17.519039794921873,0.010814256966114044,-0.028797024860978127,-0.005234008654952049
1772788949671073000,17.539072998046876,0.024145392701029778,0.016329217702150345,0.013692120090126991
1772788949691105800,17.559105712890624,0.040835682302713394,0.0324917808175087,0.01162099651992321
1772788949711137800,17.5791376953125,0.03243960067629814,-0.009243687614798546,0.0002598916180431843
1772788949731170800,17.5991708984375,0.0003800478298217058,-0.030351653695106506,-0.03294612839818001
1772788949751203800,17.619203857421876,-0.0162877906113863,0.012579592876136303,-0.026918405666947365
1772788949771235800,17.63923583984375,0.0026832364965230227,0.027476783841848373,0.02678530104458332
1772788949791268900,17.659268798828126,0.021137965843081474,-0.020033184438943863,0.04320121556520462
1772788949811302000,17.679302001953126,-0.0007990456651896238,-0.026030391454696655,-0.0200568325817585
1772788949831335000,17.6993349609375,-0.03879449889063835,0.019248155876994133,-0.03460289537906647
1772788949851366700,17.71936669921875,-0.05579208582639694,0.015589302405714989,0.014586193487048149
1772788949871400000,17.73939990234375,-0.08833920955657959,-0.05898658558726311,0.048369284719228745
1772788949891432700,17.7594326171875,-0.1559588760137558,-0.1111120879650116,0.05223951116204262
1772788949911465000,17.77946484375,-0.18634340167045593,-0.09409768879413605,0.02055268920958042
1772788949931497700,17.799497802734376,-0.1662043333053589,-0.04954516887664795,0.0017997887916862965
1772788949951531000,17.819531005859375,-0.12958462536334991,-0.08040006458759308,0.011625885032117367
1772788949971562800,17.839562744140625,-0.066374272108078,-0.04116314649581909,0.005811717826873064
1772788949991595800,17.859595703125,0.006071680225431919,0.05998207628726959,-0.010777629911899567
1772788950011628800,17.87962890625,0.024496424943208694,0.06815452873706818,-0.02322571724653244
1772788950031660800,17.899660888671875,-0.005656015127897263,-0.023598840460181236,-0.002621494699269533
1772788950051693300,17.919693359375,-0.008369872346520424,-0.04605107381939888,0.011372445151209831
1772788950071726600,17.9397265625,0.015500156208872795,0.03553321957588196,-0.0018539857119321823
1772788950091758600,17.959758544921876,0.03470798581838608,0.05572100728750229,-0.0014660099986940622
1772788950111791400,17.979791259765626,0.028021149337291718,-0.014308992773294449,0.007738824468106031
1772788950131824400,17.999824462890626,0.014335744082927704,-0.030625954270362854,-0.0022249070461839437
1772788950151856400,18.0198564453125,0.012136862613260746,0.022381871938705444,-0.03498290479183197
1772788950171889700,18.0398896484375,0.008237135596573353,0.019137244671583176,-0.03585371747612953
1772788950191922400,18.05992236328125,0.0020341372583061457,-0.011085016652941704,-0.008844520896673203
1772788950211954700,18.07995458984375,0.0005624657496809959,0.002620246261358261,-0.010029077529907227
1772788950231987500,18.099987548828125,0.013499836437404156,0.030129369348287582,-0.03124275431036949
1772788950252020500,18.1200205078125,0.0081788320094347,0.02639598771929741,-0.0349663645029068
1772788950272052500,18.140052490234375,-0.001387416385114193,0.028633788228034973,-0.015472408384084702
1772788950292085500,18.16008544921875,-0.0247090682387352,0.014796750620007515,0.0060329800471663475
1772788950312118500,18.180118408203125,-0.015426715835928917,-0.03709299862384796,0.019401343539357185
1772788950332150500,18.200150634765624,0.005369384773075581,-0.01670207642018795,-0.006607372313737869
1772788950352183600,18.22018359375,-0.002224941272288561,0.03521745651960373,-0.0324556827545166
1772788950372216600,18.240216552734374,-0.010667980648577213,0.03208421170711517,-0.0016551446169614792
1772788950392249600,18.26024951171875,-0.011268559843301773,-0.0058267731219530106,0.012757135555148125
1772788950412281600,18.280281494140624,-0.010414447635412216,-0.01642260141670704,0.005611024331301451
1772788950432314400,18.300314453125,0.004191631451249123,0.012719908729195595,-0.011281374841928482
1772788950452347400,18.320347412109374,0.017732370644807816,0.03630983829498291,-0.019882474094629288
1772788950472379400,18.34037939453125,0.00864716712385416,0.014370528981089592,0.008650993928313255
1772788950492412700,18.36041259765625,-0.008010782301425934,-0.01976335607469082,0.03590832278132439
1772788950512445400,18.380445556640623,-0.008423675782978535,-0.011990205384790897,0.03654679283499718
1772788950532477400,18.4004775390625,0.006256931461393833,0.02509298548102379,0.018556134775280952
1772788950552510500,18.420510498046873,0.017877349629998207,0.03740634769201279,-0.0052391947247087955
1772788950572543500,18.44054345703125,-0.011423937045037746,-0.0021339887753129005,-0.013942278921604156
1772788950592575500,18.460575439453127,-0.03632952645421028,-0.03298225626349449,0.017923742532730103
1772788950612608500,18.4806083984375,-0.008075926452875137,-0.05048763006925583,0.027935504913330078
1772788950632641500,18.5006416015625,0.03293369337916374,0.029604267328977585,0.010725768283009529
1772788950652673500,18.520673583984376,0.0460224524140358,0.0845259502530098,0.0007835295982658863
1772788950672706600,18.54070654296875,0.010031287558376789,0.00671249907463789,0.010205667465925217
1772788950692739600,18.560739501953126,-0.03560168296098709,-0.09860920161008835,0.02218719571828842
1772788950712771300,18.580771240234377,-0.036192942410707474,-0.0774051770567894,0.028247516602277756
1772788950732804600,18.6008046875,0.017848387360572815,0.04054354131221771,0.031093716621398926
1772788950752837400,18.62083740234375,0.05208766087889671,0.05397242307662964,0.03386039659380913
1772788950772870700,18.64087060546875,0.020276755094528198,-0.0014109089970588684,0.01052363496273756
1772788950792902400,18.66090234375,-0.04026608541607857,-0.018014106899499893,-0.013427915051579475
1772788950812935700,18.680935791015624,-0.053751882165670395,0.005457610823214054,-0.0019554521422833204
1772788950832968400,18.700968505859375,-0.010111082345247269,0.010899737477302551,0.03357473760843277
1772788950853000400,18.72100048828125,0.03572683781385422,0.004210525192320347,0.02610710635781288
1772788950873033500,18.741033447265625,0.02337065525352955,0.007682782597839832,-0.013451296836137772
1772788950893066500,18.76106640625,-0.004778990522027016,-0.004764442332088947,-0.024803031235933304
1772788950913098500,18.781098388671875,-0.016782445833086967,-0.037870585918426514,0.008697202429175377
1772788950933131500,18.801131591796874,-0.005310555454343557,-0.05440499633550644,0.02443644218146801
1772788950953164500,18.82116455078125,0.0056369006633758545,-0.03770165145397186,0.001537784468382597
1772788950973196500,18.841196533203124,0.03292962908744812,0.018370524048805237,-0.01823871023952961
1772788950993229300,18.861229248046875,0.03616008535027504,0.01031479425728321,-0.02277490124106407
1772788951013262600,18.8812626953125,0.0032191486097872257,-0.03306640312075615,-0.007567974738776684
1772788951033294300,18.90129443359375,-0.0193001888692379,-0.05510776489973068,0.015758313238620758
1772788951053327400,18.921327392578124,-0.007039213553071022,-0.018132474273443222,0.014136666432023048
1772788951073360400,18.9413603515625,0.021994788199663162,0.043750640004873276,-0.0038987467996776104
1772788951093392400,18.961392333984374,0.005548141896724701,0.018781177699565887,-0.0014065280556678772
1772788951113425400,18.98142529296875,-0.020781807601451874,-0.03710860759019852,0.031792785972356796
1772788951133458400,19.00145849609375,-0.009309939108788967,-0.03529437258839607,0.049169860780239105
1772788951153490400,19.021490478515624,0.008305558934807777,0.01842108741402626,0.011529259383678436
1772788951173523500,19.0415234375,0.0033358708024024963,0.05644898861646652,-0.004297159146517515
1772788951193556200,19.06155615234375,-0.007449654396623373,0.020558767020702362,0.02918490394949913
1772788951213589500,19.081589599609377,-0.00007957452908158302,-0.06983881443738937,0.02798883430659771
1772788951233621200,19.101621337890624,0.00331323710270226,-0.03708045557141304,-0.011169956997036934
1772788951253654500,19.121654541015626,0.017189349979162216,0.05811047926545143,-0.030390508472919464
1772788951273687300,19.141687255859374,0.02294791303575039,0.02558811381459236,0.009163539856672287
1772788951293719300,19.16171923828125,0.006554673425853252,-0.061936452984809875,0.04882882162928581
1772788951313752300,19.18175244140625,-0.009052184410393238,-0.06783346831798553,0.01732380874454975
1772788951333785300,19.201785400390627,-0.0012983714696019888,-0.0037854788824915886,-0.031175298616290092
1772788951353817300,19.2218173828125,0.01881697028875351,0.0513976514339447,-0.032703906297683716
1772788951373850400,19.241850341796876,0.014909304678440094,0.03400705009698868,0.001277779694646597
1772788951393883400,19.26188330078125,-0.013763003051280975,-0.02597314491868019,0.023058079183101654
1772788951413915400,19.281915283203126,-0.040480565279722214,-0.03662632778286934,0.005752797704190016
1772788951433948400,19.301948486328126,-0.0354250967502594,0.013337073847651482,-0.008809882216155529
1772788951453981400,19.3219814453125,-0.012323608621954918,0.030730359256267548,-0.025611918419599533
1772788951474013400,19.342013427734376,-0.002719005336984992,0.01088472455739975,-0.027664342895150185
1772788951494046500,19.36204638671875,-0.008408240973949432,0.0069077154621481895,-0.017413649708032608
1772788951514079200,19.382079345703126,-0.009979398921132088,-0.007112703286111355,-0.005722993519157171
1772788951534111500,19.402111572265625,-0.015466615557670593,-0.02237853966653347,-0.007777594029903412
1772788951554144300,19.422144287109376,-0.006487939041107893,0.0006489362567663193,-0.009840038605034351
1772788951574177500,19.442177490234375,0.011891057714819908,0.001530572772026062,-0.018912633880972862
1772788951594210300,19.462210205078126,0.005550416186451912,0.0006207004189491272,-0.04286063462495804
1772788951614242300,19.4822421875,-0.02518133446574211,-0.012277500703930855,-0.03959701210260391
1772788951634275300,19.502275390625,-0.019683722406625748,-0.015645373612642288,-0.0004131728783249855
1772788951654308400,19.522308349609375,0.014635864645242691,0.010058299638330936,0.015194065868854523
1772788951674340600,19.542340576171874,0.024659594520926476,0.043042466044425964,-0.008621642366051674
1772788951694373400,19.562373291015625,-0.0008974142838269472,0.0330391600728035,-0.0030809727031737566
1772788951714406400,19.582406494140624,-0.03908572718501091,-0.03644881397485733,0.0030918926931917667
1772788951734438400,19.6024384765625,-0.049833994358778,-0.051121797412633896,-0.00820974912494421
1772788951754471400,19.622471435546874,-0.006191966123878956,0.052124567329883575,-0.013483868911862373
1772788951774504400,19.64250439453125,0.029718076810240746,0.09489942342042923,0.002871681470423937
1772788951794536400,19.662536376953124,0.004165703430771828,-0.009527795016765594,0.0040316288359463215
1772788951814569500,19.682569580078123,-0.023641854524612427,-0.07266486436128616,-0.020322557538747787
1772788951834602200,19.702602294921874,-0.014361328445374966,-0.0027570128440856934,-0.028030214831233025
1772788951854634500,19.722634521484373,0.024074913933873177,0.04395038262009621,-0.017161760479211807
1772788951874667500,19.74266748046875,0.04499022662639618,-0.014964811503887177,-0.01189604215323925
1772788951894700300,19.7627001953125,0.02233690768480301,-0.013152246363461018,-0.02328619919717312
1772788951914733300,19.7827333984375,-0.005971571430563927,0.012567082419991493,-0.018863879144191742
1772788951934765300,19.802765380859373,-0.0145606379956007,-0.030289627611637115,0.006372589617967606
1772788951954798300,19.82279833984375,0.005631961859762669,-0.025002218782901764,0.006019202992320061
1772788951974831400,19.842831298828123,0.026911504566669464,0.041257523000240326,-0.019589830189943314
1772788951994863600,19.862863525390626,0.019213248044252396,0.03582695126533508,-0.006737553980201483
1772788952014896400,19.882896484375,-0.025897875428199768,-0.04165247827768326,0.018603600561618805
1772788952034929400,19.902929443359376,-0.03322321176528931,-0.04961023107171059,0.01177290454506874
1772788952054962400,19.92296240234375,-0.00823279656469822,0.0236210860311985,0.0023009772412478924
1772788952074995200,19.9429951171875,0.013769435696303844,0.03223462402820587,-0.0033494119998067617
1772788952095028500,19.963028564453126,0.006298771593719721,0.0022499188780784607,-0.00738255400210619
1772788952115060200,19.983060302734376,0.0006597945466637611,0.003845684230327606,0.00008681416511535645
1772788952135090400,20.00309033203125,-0.0135769322514534,-0.044250473380088806,-0.002575281774625182
1772788952155123500,20.02312353515625,-0.012345800176262856,-0.04301872104406357,-0.004926539491862059
1772788952175155500,20.043155517578125,0.016076434403657913,0.02370968647301197,-0.0066455346532166
1772788952195188200,20.063188232421876,0.04894670844078064,0.04292906075716019,-0.011896690353751183
1772788952215221500,20.083221435546875,0.030931925401091576,0.006118393503129482,-0.012622574344277382
1772788952235253200,20.103253173828126,-0.015365025028586388,-0.05805119872093201,-0.0099801542237401
1772788952255286500,20.12328662109375,-0.030909210443496704,-0.0421486459672451,-0.002152461325749755
1772788952275319300,20.1433193359375,0.005723671987652779,0.017283879220485687,0.015382274053990841
1772788952295351300,20.163351318359375,0.030085811391472816,0.035489168018102646,0.018311116844415665
1772788952315384300,20.18338427734375,0.013329477980732918,0.01940886676311493,0.0022160406224429607
1772788952335417300,20.203417236328125,-0.01501309871673584,0.013469970785081387,0.0017453520558774471
1772788952355449300,20.223449462890624,-0.019779644906520844,-0.010987997986376286,0.010398775339126587
1772788952375482400,20.243482421875,-0.025172650814056396,-0.017955414950847626,-0.006023517809808254
1772788952395515400,20.263515380859374,-0.016366906464099884,0.0038430597633123398,-0.02583581581711769
1772788952415548400,20.28354833984375,-0.01229778677225113,0.029170677065849304,-0.029079360887408257
1772788952435580200,20.303580078125,-0.006559417583048344,0.0007364964112639427,-0.024271618574857712
1772788952455613400,20.323613525390623,-0.01576397940516472,-0.019567592069506645,-0.028950652107596397
1772788952475646200,20.343646240234374,-0.018365276977419853,-0.0062297917902469635,-0.023918423801660538
1772788952495678500,20.363678466796873,-0.01348076295107603,-0.018438121303915977,-0.01089529599994421
1772788952515711200,20.383711181640624,-0.00020827236585319042,-0.036016128957271576,0.0038987374864518642
1772788952535744500,20.40374462890625,0.01887759380042553,-0.0077438862062990665,-0.009729522280395031
1772788952555778300,20.4237783203125,0.03485953062772751,0.04663260281085968,-0.017857784405350685
1772788952575811300,20.443811279296874,0.020172815769910812,0.006020219996571541,-0.0016005928628146648
1772788952595844400,20.46384423828125,-0.02933168038725853,-0.08413400501012802,0.006215828005224466
1772788952615877400,20.48387744140625,-0.040013447403907776,-0.0564303956925869,-0.008725477382540703
1772788952635909400,20.503909423828127,-0.004648854956030846,0.05444726347923279,-0.030104205012321472
1772788952655942400,20.5239423828125,0.004226594232022762,0.05328693613409996,-0.01724853366613388
1772788952675975400,20.543975341796877,-0.03561991825699806,-0.04515701159834862,0.01063559576869011
1772788952696007200,20.564007080078124,-0.05210019648075104,-0.07096602767705917,0.028030652552843094
1772788952716040400,20.58404052734375,-0.02313455007970333,0.015232834964990616,0.007296318653970957
1772788952736073200,20.6040732421875,0.004552147351205349,0.11313717067241669,-0.02888292446732521
1772788952756105500,20.62410546875,-0.017806153744459152,0.09939579665660858,-0.05361809954047203
1772788952776138200,20.64413818359375,-0.04129420965909958,0.03038283810019493,-0.03207815811038017
1772788952796171500,20.664171630859375,-0.050960808992385864,0.02629077062010765,0.009331725537776947
1772788952816203300,20.684203369140626,-0.04778825119137764,0.037706948816776276,0.04803604260087013
1772788952836236500,20.704236572265625,-0.036397311836481094,0.035109564661979675,0.052470676600933075
1772788952856269300,20.724269287109376,-0.024286456406116486,0.07200661301612854,0.042534809559583664
1772788952876302600,20.744302490234375,-0.0006581756751984358,0.05642413720488548,0.06086517870426178
1772788952896334300,20.764334228515626,-0.011562002822756767,0.08498551696538925,0.04136422649025917
1772788952916367400,20.784367431640625,-0.03836663439869881,0.13967011868953705,0.037910010665655136
1772788952936400400,20.804400390625,-0.046275004744529724,0.15306450426578522,0.028130747377872467
1772788952956432400,20.824432373046875,-0.07304247468709946,0.30735868215560913,0.04866508021950722
1772788952976465400,20.84446533203125,-0.09722727537155151,0.38525792956352234,0.012101852335035801
1772788952996498400,20.86449853515625,-0.010179556906223297,0.3433091938495636,-0.016362717375159264
1772788953016530200,20.8845302734375,0.006928018294274807,0.20036636292934418,0.003362013027071953
1772788953036563500,20.9045634765625,-0.02938409522175789,0.14147856831550598,0.03762004151940346
1772788953056595500,20.924595458984374,-0.07948030531406403,0.16506613790988922,0.054315969347953796
1772788953076628500,20.94462841796875,-0.08808804303407669,0.28681257367134094,0.004351460374891758
1772788953096660500,20.964660400390624,-0.04199746251106262,0.3455871343612671,-0.046957314014434814
1772788953116693500,20.984693603515623,-0.02077563852071762,0.2870851755142212,-0.07473106682300568
1772788953136726300,21.004726318359374,-0.03797382861375809,0.15586835145950317,-0.040212471038103104
1772788953156758500,21.024758544921873,-0.06248033791780472,0.09356735646724701,0.011822612956166267
1772788953176791600,21.04479150390625,-0.023226849734783173,0.005361249670386314,-0.0031686807051301003
1772788953196824600,21.064824462890623,-0.00824276264756918,0.022856511175632477,-0.003817239310592413
1772788953216856600,21.084856689453126,-0.049337249249219894,0.12686525285243988,-0.026899874210357666
1772788953236889600,21.1048896484375,-0.00895567238330841,0.09570491313934326,-0.020655356347560883
1772788953256922400,21.12492236328125,0.03248009830713272,-0.004054191522300243,-0.015674371272325516
1772788953276954400,21.144954345703123,0.07601509988307953,-0.011084074154496193,-0.009456183761358261
1772788953296987600,21.164987548828126,0.10109648108482361,0.07043981552124023,-0.04605254530906677
1772788953317020400,21.1850205078125,-0.0005621027667075396,0.10502363741397858,-0.08462564647197723
1772788953337053400,21.205053466796876,-0.12796376645565033,0.14036783576011658,-0.036537714302539825
1772788953357085400,21.22508544921875,-0.08606638014316559,0.05185236781835556,0.027144858613610268
1772788953377118500,21.245118408203126,-0.0686773881316185,0.007490805350244045,0.06329737603664398
1772788953397151500,21.2651513671875,-0.2733010947704315,0.18190787732601166,0.060316234827041626
1772788953417183500,21.28518359375,-0.19571824371814728,0.2526567280292511,0.0476018525660038
1772788953437216500,21.305216552734375,-0.12517575919628143,0.15090371668338776,0.10081221908330917
1772788953457249300,21.325249267578126,-0.18942444026470184,0.0199703648686409,0.163565531373024
1772788953477281500,21.345281494140625,-0.15463587641716003,-0.0077365911565721035,0.12568451464176178
1772788953497314600,21.365314453125,0.003973574843257666,0.03554438799619675,0.06507618725299835
1772788953517347600,21.38534765625,0.02671782858669758,0.16373734176158905,0.05589915066957474
1772788953537379600,21.405379638671874,0.0035741478204727173,0.16447223722934723,0.06283828616142273
1772788953557412400,21.425412353515625,-0.04024514928460121,0.17519360780715942,0.01690560206770897
1772788953577445600,21.445445556640625,-0.031228916719555855,0.12905417382717133,-0.009142622351646423
1772788953597478400,21.465478515625,0.0151656623929739,0.026872355490922928,0.03690832108259201
1772788953617510700,21.4855107421875,0.00281705055385828,0.020622190088033676,0.03632781282067299
1772788953637543400,21.50554345703125,0.006815007887780666,-0.014606072567403316,-0.005895019508898258
1772788953657576400,21.525576416015625,0.02065560780465603,-0.10158486664295197,-0.017184851691126823
1772788953677608400,21.5456083984375,-0.013030708767473698,-0.18369022011756897,-0.0030080629512667656
1772788953697641500,21.565641357421875,-0.0564851276576519,-0.18615955114364624,-0.0005402197130024433
1772788953717674500,21.585674560546874,-0.06747247278690338,-0.18736746907234192,-0.0021876946557313204
1772788953737706500,21.60570654296875,-0.005786776542663574,-0.25052493810653687,0.025491900742053986
1772788953757739500,21.625739501953124,0.12253398448228836,-0.3297330439090729,0.05162515118718147
1772788953777772500,21.6457724609375,0.27043667435646057,-0.3003179728984833,0.063656747341156
1772788953797804500,21.665804443359374,0.1662551611661911,-0.05253077298402786,-0.024037430062890053
1772788953817837600,21.685837646484377,0.09663135558366776,-0.01623355597257614,-0.07165265083312988
1772788953837870600,21.70587060546875,0.05645141378045082,-0.00797039084136486,-0.01903359964489937
1772788953857903400,21.7259033203125,0.13353489339351654,-0.07819364964962006,0.10180211812257767
1772788953877935400,21.745935302734374,0.24938106536865234,-0.16695255041122437,0.17366458475589752
1772788953897968600,21.76596875,0.2639159560203552,-0.166624516248703,0.17034240067005157
1772788953918001400,21.78600146484375,0.1881125420331955,-0.202880397439003,0.11042527109384537
1772788953938033700,21.80603369140625,0.07831631600856781,-0.2342332899570465,0.11055093258619308
1772788953958066400,21.82606640625,0.0391974076628685,-0.36253082752227783,0.1840302050113678
1772788953978099700,21.846099609375,0.08526714146137238,-0.5249710083007812,0.27686214447021484
1772788953998131500,21.86613134765625,0.09586718678474426,-0.456958144903183,0.26185697317123413
1772788954018164500,21.88616455078125,0.055761441588401794,-0.23936167359352112,0.1332560032606125
1772788954038197500,21.906197509765626,-0.007839616388082504,-0.01884445548057556,0.01567237079143524
1772788954058230000,21.92622998046875,-0.06558753550052643,0.08070985227823257,-0.024905230849981308
1772788954078263000,21.946262939453124,-0.13999781012535095,0.00464300811290741,0.022937877103686333
1772788954098295800,21.9662958984375,-0.18547323346138,-0.17336073517799377,0.12749020755290985
1772788954118329000,21.9863291015625,-0.16985057294368744,-0.21013332903385162,0.15560810267925262
1772788954138361000,22.006361083984373,-0.09978493303060532,-0.13850948214530945,0.10321041196584702
1772788954158394000,22.02639404296875,-0.08008282631635666,-0.08026738464832306,0.03795785456895828
1772788954178427000,22.046427001953123,-0.09576735645532608,-0.046039458364248276,0.025741245597600937
1772788954198459000,22.066458984375,-0.08256689459085464,0.004806214012205601,0.05700625479221344
1772788954218492000,22.086491943359373,-0.019728882238268852,0.006724067032337189,0.04528070613741875
1772788954238525000,22.10652490234375,-0.014244074001908302,-0.006856260821223259,0.01602771319448948
1772788954258558000,22.126557861328124,-0.05289532616734505,-0.11023484170436859,0.015643684193491936
1772788954278590000,22.14658984375,-0.0581212043762207,-0.22049295902252197,0.022145211696624756
1772788954298623000,22.166623046875,-0.07067976146936417,-0.19587966799736023,0.045938845723867416
1772788954318656000,22.186656005859376,-0.048097893595695496,-0.1662335991859436,0.03261277824640274
1772788954338688000,22.20668798828125,-0.047472260892391205,-0.11103363335132599,0.019059374928474426
1772788954358721000,22.226720947265626,-0.035406481474637985,-0.05924195796251297,-0.015577495098114014
1772788954378753800,22.24675390625,-0.009287075139582157,0.0030484264716506004,-0.03191591054201126
1772788954398786000,22.2667861328125,0.008957254700362682,0.013926501385867596,-0.024917712435126305
1772788954418819000,22.286819091796875,0.029080545529723167,-0.03802913427352905,-0.01411266066133976
1772788954438852000,22.30685205078125,0.03685266897082329,-0.024763889610767365,-0.01116875559091568
1772788954458884000,22.326884033203125,0.03426182642579079,0.03340279310941696,-0.010256514884531498
1772788954478916900,22.346916748046876,0.025314854457974434,0.05809690058231354,-0.01426740363240242
1772788954498950000,22.366949951171875,0.005117346066981554,0.01232842355966568,-0.014801008626818657
1772788954518983000,22.38698291015625,-0.020275704562664032,-0.03847632557153702,0.01242669764906168
1772788954539015200,22.40701513671875,-0.0316568948328495,-0.06038859486579895,0.03280535712838173
1772788954559048000,22.4270478515625,-0.011829393915832043,-0.06244218721985817,0.04147689789533615
1772788954579081000,22.4470810546875,-0.01972334459424019,-0.059371452778577805,0.0262527484446764
1772788954599113000,22.467113037109375,-0.03293105587363243,-0.05369109660387039,-0.0031698429957032204
1772788954619146000,22.48714599609375,-0.025200774893164635,-0.07524022459983826,-0.025769349187612534
1772788954639179000,22.507178955078125,-0.0014469565358012915,-0.0853937566280365,-0.010119562968611717
1772788954659211000,22.5272109375,0.007984628900885582,0.03245777636766434,0.005433031357824802
1772788954679244000,22.547244140625,0.029263094067573547,0.025364335626363754,0.005243867170065641
1772788954699276800,22.56727685546875,0.04557305574417114,0.04370863363146782,-0.024088138714432716
1772788954719309000,22.58730908203125,0.061622194945812225,0.032218970358371735,-0.026523476466536522
1772788954739342000,22.607342041015624,0.043304506689310074,0.0459640696644783,-0.026708627119660378
1772788954759375000,22.627375,0.008670173585414886,0.03453527018427849,-0.00856885127723217
1772788954779408000,22.647407958984374,-0.0027366383001208305,-0.030052712187170982,0.017402267083525658
1772788954799440000,22.66743994140625,-0.022181976586580276,-0.05873199924826622,0.022080352529883385
1772788954819473200,22.68747314453125,-0.022767556831240654,0.019830919802188873,-0.0028186296112835407
1772788954839506000,22.707505859375,0.0228838250041008,0.0717930793762207,-0.018659129738807678
1772788954859538200,22.7275380859375,0.032705068588256836,0.0662601888179779,-0.02752644009888172
1772788954879571000,22.747571044921877,-0.0007765714544802904,0.050351280719041824,-0.011569183319807053
1772788954899604000,22.76760400390625,-0.037375472486019135,0.015691423788666725,0.0162934809923172
1772788954919636000,22.787635986328127,-0.06242711469531059,-0.03234590217471123,0.042805593460798264
1772788954939669000,22.8076689453125,-0.03728000074625015,-0.03910815715789795,0.007105964235961437
1772788954959702000,22.827701904296877,-0.0017847882118076086,0.04155711829662323,-0.04330400750041008
1772788954979734800,22.84773486328125,0.02529641054570675,0.11864470690488815,-0.0430673211812973
1772788954999767000,22.86776708984375,0.029625844210386276,0.11642919480800629,0.008305137977004051
1772788955019800000,22.887800048828126,0.019683990627527237,0.0005812598392367363,0.027506547048687935
1772788955039833000,22.9078330078125,-0.014117230661213398,-0.07172511518001556,0.009266398847103119
1772788955059864800,22.92786474609375,-0.019227160140872,-0.05906509608030319,-0.009443778544664383
1772788955079897600,22.947897705078127,-0.008207419887185097,0.028569664806127548,-0.032034970819950104
1772788955099931000,22.967930908203126,0.017780154943466187,0.0835217833518982,-0.01222226582467556
1772788955119962600,22.987962646484377,0.0432223416864872,0.07169777899980545,0.0051314677111804485
1772788955139995600,23.00799560546875,0.029786841943860054,0.03846503794193268,-0.024710476398468018
1772788955160028700,23.028028564453123,-0.010939976200461388,0.0015332065522670746,-0.04375405237078667
1772788955180061700,23.048061767578126,-0.027056541293859482,-0.039025913923978806,-0.02133750170469284
1772788955200093700,23.06809375,-0.030702874064445496,-0.04534293711185455,-0.01179918646812439
1772788955220126700,23.088126708984376,-0.0245269276201725,-0.002600381150841713,-0.02499123476445675
1772788955240159700,23.10815966796875,0.0010437078308314085,0.005171450786292553,-0.018922721967101097
1772788955260191700,23.128191650390626,0.023157598450779915,0.01287650316953659,-0.005249581299722195
1772788955280224500,23.148224609375,0.012406311929225922,0.04436246678233147,-0.03524866700172424
1772788955300257800,23.1682578125,-0.01744435727596283,0.033601775765419006,-0.04332088306546211
1772788955320289500,23.18828955078125,-0.03658439964056015,-0.037120409309864044,0.0030126995407044888
1772788955340322800,23.20832275390625,-0.017036197707057,-0.07307176291942596,0.0280319694429636
1772788955360355600,23.22835546875,0.0038218891713768244,-0.03834373131394386,0.016176974400877953
1772788955380387600,23.2483876953125,0.02555619180202484,-0.006103534251451492,0.028787588700652122
1772788955400420600,23.268420654296875,0.05158765986561775,-0.0297076478600502,0.08058885484933853
1772788955420453600,23.28845361328125,0.1058313325047493,-0.15136867761611938,0.1610204428434372
1772788955440486700,23.308486572265625,0.10588689148426056,-0.1627359390258789,0.13815385103225708
1772788955460518700,23.3285185546875,0.07738211005926132,-0.012390725314617157,0.010191533714532852
1772788955480551700,23.3485517578125,0.0452103354036808,0.11015290021896362,-0.08081959187984467
1772788955500584700,23.368584716796875,0.02651483565568924,0.05174839496612549,-0.024326667189598083
1772788955520616700,23.38861669921875,0.022168489173054695,-0.0860198512673378,0.05844097584486008
1772788955540649700,23.408649658203124,0.01959192007780075,-0.10425684601068497,0.036101289093494415
1772788955560682800,23.428682861328124,0.031186411157250404,-0.019659360870718956,-0.019642293453216553
1772788955580714800,23.44871484375,0.0454220250248909,0.01280913781374693,-0.01872771605849266
1772788955600747500,23.46874755859375,0.06468682736158371,-0.017523832619190216,-0.0014464755076915026
1772788955620780800,23.48878076171875,0.04877031221985817,-0.03765571862459183,-0.0055588060058653355
1772788955640813600,23.5088134765625,0.024143775925040245,-0.042786598205566406,-0.012028941884636879
1772788955660845800,23.528845703125,0.0055033136159181595,-0.01351766474545002,0.0002220701426267624
1772788955680878600,23.548878662109374,0.030227847397327423,-0.004043332301080227,0.03221223130822182
1772788955700911900,23.568911865234377,0.05516446754336357,-0.0036249691620469093,0.03690991923213005
1772788955720943600,23.588943603515624,0.07716597616672516,-0.02016666904091835,0.013305727392435074
1772788955740976600,23.6089765625,0.05502153933048248,0.009827748872339725,-0.024461107328534126
1772788955761009700,23.629009765625,0.014407079666852951,-0.006959598511457443,-0.008593806065618992
1772788955781041700,23.649041748046876,0.0007520830258727074,-0.04066011309623718,0.0025799251161515713
1772788955801074700,23.66907470703125,0.015879865735769272,-0.024767233058810234,-0.013251474127173424
1772788955821107700,23.689107666015627,0.02857276238501072,0.025213539600372314,-0.025653034448623657
1772788955841140700,23.709140625,0.027735060080885887,0.022048726677894592,-0.0064565399661660194
1772788955861172700,23.7291728515625,0.010803812183439732,-0.038532838225364685,0.024874402210116386
1772788955881205500,23.74920556640625,-0.023461930453777313,-0.043636761605739594,-0.01705394871532917
1772788955901238800,23.76923876953125,-0.037228550761938095,0.010136284865438938,-0.04202378913760185
1772788955921270500,23.7892705078125,-0.035077180713415146,0.04126279801130295,-0.00848881620913744
1772788955941303800,23.8093037109375,-0.02060684934258461,0.04558027535676956,0.013417765498161316
1772788955961336600,23.829336669921876,-0.020592186599969864,0.03838953748345375,-0.013455428183078766
1772788955981368600,23.84936865234375,-0.022483134642243385,0.023460566997528076,-0.05248633772134781
1772788956001401600,23.869401611328126,-0.030504697933793068,-0.0049072736874222755,-0.05074770003557205
1772788956021434600,23.8894345703125,-0.03418529033660889,-0.05169670283794403,-0.02374100498855114
1772788956041467600,23.909467529296876,-0.025491002947092056,-0.07526645809412003,0.029997443780303
1772788956061500000,23.9295,-0.013466250151395798,-0.03384049981832504,0.03133377432823181
