time,seconds_elapsed,z,y,x
1772789940187180300,0.06218017578125,-0.96917724609375,-0.12091064453125,0.00775146484375
1772789940207215400,0.08221533203125,-0.9661407470703125,-0.1263427734375,0.0159759521484375
1772789940227249400,0.10224951171875,-0.97857666015625,-0.124481201171875,-0.0022125244140625
1772789940247284500,0.122284423828125,-0.9877471923828125,-0.1227264404296875,-0.0057525634765625
1772789940267319600,0.142319580078125,-0.9987335205078125,-0.11468505859375,0.0077972412109375
1772789940287354000,0.16235400390625,-1.0014190673828125,-0.1175384521484375,0.00927734375
1772789940307389200,0.18238916015625,-0.99688720703125,-0.12188720703125,0.003387451171875
1772789940327423200,0.20242333984375,-0.9946746826171875,-0.1260528564453125,-0.0020904541015625
1772789940347458300,0.222458251953125,-0.9902801513671875,-0.1328887939453125,0.003448486328125
1772789940367493400,0.242493408203125,-0.9945526123046875,-0.1295623779296875,0.0025177001953125
1772789940387528400,0.262528564453125,-0.9826812744140625,-0.1333465576171875,-0.016693115234375
1772789940407563500,0.2825634765625,-0.979248046875,-0.1313323974609375,-0.0199127197265625
1772789940427597300,0.302597412109375,-0.985076904296875,-0.127593994140625,-0.017486572265625
1772789940447632400,0.32263232421875,-0.99139404296875,-0.1212921142578125,-0.0224609375
1772789940467667500,0.34266748046875,-0.989776611328125,-0.117919921875,-0.032379150390625
1772789940487702300,0.362702392578125,-1.0062255859375,-0.1083526611328125,-0.03631591796875
1772789940507736300,0.382736328125,-1.018585205078125,-0.09881591796875,-0.042938232421875
1772789940527771100,0.402771240234375,-1.0130767822265625,-0.099822998046875,-0.044464111328125
1772789940547806200,0.42280615234375,-1.01934814453125,-0.096435546875,-0.0388946533203125
1772789940567841300,0.44284130859375,-1.0115814208984375,-0.1058349609375,-0.0224456787109375
1772789940587876400,0.46287646484375,-1.0091400146484375,-0.116790771484375,-0.0207366943359375
1772789940607910400,0.482910400390625,-1.0148773193359375,-0.1082000732421875,0.001861572265625
1772789940627945500,0.502945556640625,-1.0195770263671875,-0.1154327392578125,0.0087432861328125
1772789940647980500,0.52298046875,-0.9989471435546875,-0.1288604736328125,-0.0066070556640625
1772789940668015400,0.543015380859375,-0.9813079833984375,-0.133026123046875,-0.0005340576171875
1772789940688050200,0.56305029296875,-1.0039520263671875,-0.1293792724609375,-0.0040435791015625
1772789940708084200,0.583084228515625,-1.03961181640625,-0.10394287109375,0.0163726806640625
1772789940728119300,0.603119384765625,-1.0382537841796875,-0.0950775146484375,-0.0489959716796875
1772789940748154400,0.623154296875,-0.9354400634765625,-0.163909912109375,-0.07733154296875
1772789940768189400,0.643189453125,-0.863372802734375,-0.176025390625,-0.0282440185546875
1772789940788223200,0.66322314453125,-0.9140167236328125,-0.1417083740234375,-0.0564422607421875
1772789940808258300,0.68325830078125,-0.9883880615234375,-0.1538848876953125,-0.083740234375
1772789940828293400,0.70329345703125,-0.9663543701171875,-0.140869140625,-0.1330108642578125
1772789940848328400,0.723328369140625,-0.955169677734375,-0.15509033203125,-0.0678863525390625
1772789940868363300,0.74336328125,-0.880615234375,-0.0679931640625,0.0123291015625
1772789940888397600,0.7633974609375,-0.96307373046875,-0.1457061767578125,-0.08795166015625
1772789940908432100,0.78343212890625,-1.021759033203125,-0.1123199462890625,-0.11553955078125
1772789940928467200,0.80346728515625,-0.99066162109375,-0.111328125,-0.1257476806640625
1772789940948502300,0.823502197265625,-0.9452056884765625,-0.119842529296875,-0.1150665283203125
1772789940968536300,0.843536376953125,-0.9450836181640625,-0.1009979248046875,-0.0458526611328125
1772789940988571400,0.8635712890625,-1.0319061279296875,-0.1022491455078125,-0.0254058837890625
1772789941008606500,0.8836064453125,-1.0235595703125,-0.0579071044921875,-0.1474609375
1772789941028641300,0.903641357421875,-1.02191162109375,-0.0691680908203125,-0.313323974609375
1772789941048676400,0.92367626953125,-1.08392333984375,-0.0285491943359375,-0.42449951171875
1772789941068710400,0.94371044921875,-1.1193084716796875,-0.012939453125,-0.2601318359375
1772789941088745500,0.963745361328125,-1.0790252685546875,0.06304931640625,-0.3884124755859375
1772789941108780300,0.9837802734375,-1.0484161376953125,0.062225341796875,-0.1075286865234375
1772789941128815400,1.0038154296875,-1.010589599609375,-0.0279693603515625,0.07952880859375
1772789941148849200,1.02384912109375,-0.939544677734375,0.0070343017578125,0.009918212890625
1772789941168884200,1.04388427734375,-0.904510498046875,-0.0521697998046875,-0.1395416259765625
1772789941188919300,1.063919189453125,-0.8459014892578125,-0.0678253173828125,-0.0718536376953125
1772789941208954400,1.083954345703125,-0.8985748291015625,-0.1530303955078125,0.1027069091796875
1772789941228989400,1.103989501953125,-0.8751068115234375,-0.082763671875,0.1103057861328125
1772789941249023200,1.124023193359375,-0.8350677490234375,-0.0883941650390625,0.0422515869140625
1772789941269058300,1.144058349609375,-0.75238037109375,-0.080078125,0.030975341796875
1772789941289093400,1.16409326171875,-0.806243896484375,-0.03717041015625,0.1556854248046875
1772789941309128200,1.184128173828125,-1.042724609375,0.0643310546875,0.2108306884765625
1772789941329162200,1.204162353515625,-1.26971435546875,0.063262939453125,0.36431884765625
1772789941349197300,1.224197265625,-1.4346466064453125,-0.1642913818359375,0.4560394287109375
1772789941369232400,1.244232421875,-0.7127227783203125,0.0770263671875,-0.0925445556640625
1772789941389267200,1.26426708984375,-0.8412017822265625,0.00244140625,-0.1004638671875
1772789941409302300,1.28430224609375,-1.00738525390625,0.1322479248046875,0.1080780029296875
1772789941429336300,1.30433642578125,-0.99847412109375,0.151153564453125,0.2034454345703125
1772789941449371400,1.324371337890625,-0.9512939453125,0.1576080322265625,0.1944580078125
1772789941469406500,1.344406494140625,-0.9293365478515625,0.0732574462890625,0.142730712890625
1772789941489441300,1.364441162109375,-1.141510009765625,0.04345703125,0.29791259765625
1772789941509475300,1.384475341796875,-1.0601043701171875,0.0721435546875,0.1515655517578125
1772789941529510100,1.40451025390625,-1.0190277099609375,0.08905029296875,0.105804443359375
1772789941549545200,1.424545166015625,-0.8326263427734375,0.0575103759765625,-0.055816650390625
1772789941569580300,1.444580322265625,-0.4806060791015625,0.01812744140625,-0.147674560546875
1772789941589615400,1.464615478515625,-1.6854248046875,-0.0379486083984375,0.1439208984375
1772789941609649200,1.484649169921875,-1.677154541015625,0.08465576171875,-0.2110443115234375
1772789941629684200,1.504684326171875,-0.91314697265625,0.1044158935546875,-0.4155426025390625
1772789941649719300,1.52471923828125,-1.0118255615234375,0.0034332275390625,-0.1381683349609375
1772789941669754400,1.54475439453125,-1.0380401611328125,0.078460693359375,-0.172454833984375
1772789941689788400,1.564788330078125,-1.082489013671875,0.041717529296875,-0.2608489990234375
1772789941709823500,1.584823486328125,-1.0527801513671875,0.0441741943359375,-0.2296142578125
1772789941729858300,1.6048583984375,-0.9864044189453125,0.0390472412109375,-0.1644134521484375
1772789941749893000,1.62489306640625,-1.023956298828125,0.0801544189453125,-0.2005462646484375
1772789941769928200,1.64492822265625,-0.9122314453125,0.04425048828125,-0.2198028564453125
1772789941789962200,1.664962158203125,-0.905029296875,0.0469970703125,-0.1546630859375
1772789941809997300,1.684997314453125,-0.9659576416015625,0.039306640625,-0.2090606689453125
1772789941830032400,1.705032470703125,-0.9998626708984375,0.0653076171875,-0.272705078125
1772789941850067500,1.7250673828125,-1.039520263671875,0.0821380615234375,-0.295989990234375
1772789941870101200,1.745101318359375,-0.959075927734375,0.067108154296875,-0.206573486328125
1772789941890136300,1.76513623046875,-0.918548583984375,0.02557373046875,-0.1478271484375
1772789941910171400,1.78517138671875,-1.01751708984375,0.0342864990234375,-0.0992584228515625
1772789941930206200,1.805206298828125,-1.1317596435546875,0.054931640625,-0.0606689453125
1772789941950240300,1.825240234375,-1.12139892578125,0.0398101806640625,-0.103302001953125
1772789941970275300,1.845275390625,-1.056732177734375,0.0579071044921875,-0.15118408203125
1772789941990310100,1.86531005859375,-0.966094970703125,-0.0164794921875,-0.0754852294921875
1772789942010345200,1.88534521484375,-0.96807861328125,-0.02960205078125,-0.0466766357421875
1772789942030380300,1.90538037109375,-0.999420166015625,-0.0091552734375,-0.105743408203125
1772789942050414600,1.92541455078125,-0.9763641357421875,0.01904296875,-0.166595458984375
1772789942070449400,1.945449462890625,-0.9512481689453125,-0.0042572021484375,-0.1759796142578125
1772789942090484500,1.965484375,-0.92803955078125,-0.0518646240234375,-0.1331634521484375
1772789942110519300,1.985519287109375,-0.9409637451171875,-0.064544677734375,-0.1260833740234375
1772789942130553600,2.0055537109375,-0.986724853515625,-0.0460052490234375,-0.145294189453125
1772789942150588400,2.02558837890625,-1.03631591796875,-0.02056884765625,-0.0849151611328125
1772789942170623500,2.04562353515625,-1.06439208984375,-0.015533447265625,-0.1051025390625
1772789942190658600,2.065658447265625,-1.05682373046875,-0.0194244384765625,-0.1458740234375
1772789942210693400,2.085693359375,-1.027679443359375,-0.030059814453125,-0.1619110107421875
1772789942230727400,2.1057275390625,-1.025115966796875,-0.011505126953125,-0.09326171875
1772789942250762500,2.125762451171875,-1.0042877197265625,-0.026153564453125,-0.049072265625
1772789942270797600,2.145797607421875,-1.0010223388671875,-0.020172119140625,-0.0809478759765625
1772789942290832600,2.16583251953125,-1.0540313720703125,0.0000152587890625,-0.12353515625
1772789942310866400,2.185866455078125,-1.087188720703125,0.0069122314453125,-0.076416015625
1772789942330901500,2.205901611328125,-1.05255126953125,-0.010040283203125,-0.01116943359375
1772789942350936300,2.225936279296875,-1.0896453857421875,0.0239105224609375,-0.0283966064453125
1772789942370971400,2.245971435546875,-1.0946807861328125,0.018890380859375,-0.0261993408203125
1772789942391005400,2.26600537109375,-1.0541229248046875,0.0214691162109375,-0.0340576171875
1772789942411040500,2.28604052734375,-1.043731689453125,0.0308990478515625,-0.0141448974609375
1772789942431075600,2.30607568359375,-1.0030517578125,0.029449462890625,0.02398681640625
1772789942451110400,2.3261103515625,-0.9528045654296875,0.0211334228515625,0.049102783203125
1772789942471145500,2.3461455078125,-0.9361724853515625,0.0143585205078125,0.00701904296875
1772789942491179500,2.366179443359375,-1.007720947265625,0.0576324462890625,-0.0764312744140625
1772789942511214600,2.386214599609375,-1.0381927490234375,0.0867767333984375,0.02685546875
1772789942531249400,2.40624951171875,-0.9532928466796875,0.0494537353515625,0.1381988525390625
1772789942551284500,2.426284423828125,-0.9319610595703125,0.042877197265625,0.077850341796875
1772789942571318300,2.446318359375,-1.0170745849609375,0.0695648193359375,-0.065093994140625
1772789942591353300,2.466353271484375,-0.9573211669921875,0.062835693359375,0.0478668212890625
1772789942611388400,2.486388427734375,-0.90631103515625,0.037506103515625,0.1364593505859375
1772789942631423500,2.506423583984375,-0.94805908203125,0.0478668212890625,0.0826568603515625
1772789942651458600,2.52645849609375,-1.006439208984375,0.060546875,0.03643798828125
1772789942671492600,2.54649267578125,-0.9727325439453125,0.05230712890625,0.0826568603515625
1772789942691527400,2.56652734375,-0.931549072265625,0.0373992919921875,0.1119842529296875
1772789942711562500,2.5865625,-0.932769775390625,0.0213623046875,0.089813232421875
1772789942731597300,2.606597412109375,-0.9451751708984375,0.0258941650390625,0.082427978515625
1772789942751631600,2.626631591796875,-0.9574737548828125,0.033935546875,0.09747314453125
1772789942771666400,2.64666650390625,-0.9942779541015625,0.03948974609375,0.09136962890625
1772789942791701500,2.666701416015625,-0.99932861328125,0.025970458984375,0.055419921875
1772789942811736600,2.686736572265625,-1.0057373046875,0.0243988037109375,0.0458831787109375
1772789942831770400,2.706770263671875,-1.0272979736328125,0.0213623046875,0.0518646240234375
1772789942851805400,2.726805419921875,-1.00885009765625,0.0081024169921875,0.0491790771484375
1772789942871840500,2.746840576171875,-1.0185699462890625,0.018890380859375,0.0399322509765625
1772789942891875600,2.76687548828125,-1.0049591064453125,0.0211944580078125,0.0503082275390625
1772789942911910700,2.78691064453125,-0.997161865234375,0.0225830078125,0.038909912109375
1772789942931944400,2.8069443359375,-1.0175018310546875,0.0249786376953125,-0.002349853515625
1772789942951979500,2.8269794921875,-0.99688720703125,0.0268096923828125,0.0225677490234375
1772789942972014300,2.847014404296875,-0.9894256591796875,0.0278778076171875,0.0284271240234375
1772789942992049400,2.86704931640625,-0.9763946533203125,0.022186279296875,0.0142364501953125
1772789943012083500,2.88708349609375,-0.984832763671875,0.0212860107421875,0.009979248046875
1772789943032118500,2.907118408203125,-0.98016357421875,0.0257110595703125,0.02093505859375
1772789943052153300,2.9271533203125,-0.959503173828125,0.0160980224609375,0.0189971923828125
1772789943072188400,2.9471884765625,-0.978851318359375,0.0086212158203125,0.012237548828125
1772789943092223500,2.967223388671875,-0.972991943359375,-0.0073394775390625,0.01531982421875
1772789943112257500,2.987257568359375,-0.932769775390625,-0.0253448486328125,-0.02685546875
1772789943132292600,3.007292724609375,-0.91571044921875,-0.0304718017578125,-0.050140380859375
1772789943152327400,3.027327392578125,-0.9618988037109375,-0.0208892822265625,-0.0181732177734375
1772789943172362500,3.047362548828125,-1.0104217529296875,-0.0113677978515625,-0.00323486328125
1772789943192396300,3.067396240234375,-1.0081787109375,-0.013580322265625,-0.021697998046875
1772789943212431400,3.087431396484375,-1.017303466796875,-0.0141143798828125,-0.052520751953125
1772789943232466400,3.107466552734375,-1.007843017578125,-0.0216064453125,-0.02923583984375
1772789943252501500,3.12750146484375,-1.0125885009765625,-0.0206146240234375,-0.0129241943359375
1772789943272536600,3.14753662109375,-0.9859466552734375,-0.0320587158203125,-0.0136566162109375
1772789943292570400,3.1675703125,-1.011077880859375,-0.0264434814453125,-0.029327392578125
1772789943312605400,3.18760546875,-1.023681640625,-0.0201416015625,-0.0244293212890625
1772789943332640500,3.207640625,-1.011810302734375,-0.01611328125,-0.036529541015625
1772789943352675300,3.22767529296875,-1.0103607177734375,-0.007537841796875,-0.03143310546875
1772789943372709600,3.247709716796875,-0.993133544921875,0.0020599365234375,-0.02587890625
1772789943392744400,3.267744384765625,-1.0019378662109375,0.0082855224609375,-0.0433502197265625
1772789943412779500,3.287779541015625,-1.013336181640625,0.0092010498046875,-0.0543060302734375
1772789943432814300,3.307814453125,-1.0008392333984375,-0.0023345947265625,-0.0380859375
1772789943452848400,3.327848388671875,-0.971771240234375,-0.01220703125,-0.028900146484375
1772789943472883500,3.347883544921875,-0.9514312744140625,-0.024383544921875,-0.0093231201171875
1772789943492918500,3.36791845703125,-0.9566650390625,-0.0254364013671875,-0.015106201171875
1772789943512953600,3.38795361328125,-0.9786529541015625,-0.017913818359375,-0.016082763671875
1772789943532988700,3.40798876953125,-0.997589111328125,-0.0073699951171875,0.0055084228515625
1772789943553022500,3.4280224609375,-0.999267578125,0.0006866455078125,0.026153564453125
1772789943573057500,3.4480576171875,-0.99786376953125,0.0070648193359375,0.012481689453125
1772789943593092400,3.46809228515625,-0.9915618896484375,0.0104217529296875,-0.00360107421875
1772789943613127400,3.48812744140625,-1.0236053466796875,0.0217742919921875,-0.011566162109375
1772789943633161500,3.508161376953125,-1.023101806640625,0.0183563232421875,0.0057525634765625
1772789943653196500,3.528196533203125,-1.0092620849609375,0.00689697265625,0.0120849609375
1772789943673231400,3.5482314453125,-1.0050201416015625,0.003204345703125,0.005462646484375
1772789943693266400,3.568266357421875,-1.0281219482421875,0.005401611328125,-0.0080718994140625
1772789943713301500,3.588301513671875,-1.06121826171875,0.0107421875,-0.0424652099609375
1772789943733335600,3.60833544921875,-1.0372467041015625,0.002349853515625,-0.0178070068359375
1772789943753370600,3.62837060546875,-0.999237060546875,-0.0114898681640625,0.001068115234375
1772789943773405400,3.648405517578125,-0.9920501708984375,-0.01849365234375,-0.0116119384765625
1772789943793440500,3.6684404296875,-1.01727294921875,-0.01422119140625,-0.0287933349609375
1772789943813474300,3.688474365234375,-1.022613525390625,-0.0087890625,-0.0146026611328125
1772789943833509400,3.70850927734375,-1.019378662109375,-0.0066070556640625,-0.0149383544921875
1772789943853544400,3.72854443359375,-1.0199432373046875,-0.00042724609375,-0.014556884765625
1772789943873579500,3.74857958984375,-1.01800537109375,0.00390625,-0.0045623779296875
1772789943893613600,3.768613525390625,-1.022247314453125,0.0084228515625,-0.0116424560546875
1772789943913648400,3.7886484375,-1.0067138671875,0.0036773681640625,-0.015899658203125
1772789943933683500,3.808683349609375,-1.0005035400390625,0.0001983642578125,-0.018646240234375
1772789943953718500,3.828718505859375,-0.9945831298828125,-0.000457763671875,-0.026458740234375
1772789943973753300,3.84875341796875,-0.9879302978515625,-0.0020751953125,-0.024810791015625
1772789943993787600,3.86878759765625,-0.981536865234375,-0.0067291259765625,-0.022491455078125
1772789944013822500,3.888822509765625,-0.9864501953125,-0.00396728515625,-0.0347442626953125
1772789944033857500,3.908857421875,-0.9858551025390625,-0.0054931640625,-0.024017333984375
1772789944053892900,3.928892822265625,-0.9910736083984375,-0.00439453125,-0.0103912353515625
1772789944073927000,3.948927001953125,-0.9813385009765625,0.00006103515625,0.0003814697265625
1772789944093962000,3.9689619140625,-0.9954071044921875,0.0075225830078125,-0.0045928955078125
1772789944113996800,3.988996826171875,-1.012359619140625,0.0113677978515625,-0.0084686279296875
1772789944134028000,4.009028076171875,-1.039794921875,0.0197296142578125,-0.0213470458984375
1772789944154062800,4.029062744140625,-1.0303497314453125,0.022491455078125,-0.017303466796875
1772789944174097700,4.04909765625,-1.0096893310546875,0.016937255859375,-0.013336181640625
1772789944194132700,4.0691328125,-0.99981689453125,0.0117034912109375,-0.0265045166015625
1772789944214166800,4.089166748046875,-0.999786376953125,0.0151519775390625,-0.039703369140625
1772789944234201900,4.109201904296875,-1.0005950927734375,0.0158233642578125,-0.041107177734375
1772789944254237000,4.12923681640625,-0.993743896484375,0.014434814453125,-0.0331878662109375
1772789944274271700,4.149271728515625,-0.9717254638671875,0.0106353759765625,-0.0209808349609375
1772789944294305800,4.169305908203125,-0.9742889404296875,0.008758544921875,-0.0321197509765625
1772789944314340900,4.1893408203125,-0.973968505859375,0.0108489990234375,-0.0318145751953125
1772789944334376000,4.2093759765625,-0.9848175048828125,0.0160064697265625,-0.0246124267578125
1772789944354411000,4.229410888671875,-0.9783477783203125,0.014892578125,-0.0042572021484375
1772789944374445800,4.24944580078125,-0.9699249267578125,0.0128326416015625,-0.0018157958984375
1772789944394479900,4.26947998046875,-0.9930877685546875,0.017303466796875,-0.010833740234375
1772789944414514700,4.2895146484375,-1.0322418212890625,0.02459716796875,-0.0294036865234375
1772789944434549800,4.3095498046875,-1.0236358642578125,0.0162353515625,-0.0067901611328125
1772789944454584800,4.329584716796875,-1.0066986083984375,0.01116943359375,0.003143310546875
1772789944474619000,4.349618896484375,-1.0211944580078125,0.01568603515625,-0.013702392578125
1772789944494654000,4.369654052734375,-1.016357421875,0.013092041015625,-0.0199432373046875
1772789944514688800,4.389688720703125,-1.0266265869140625,0.01763916015625,-0.017242431640625
1772789944534723800,4.409723876953125,-1.0210418701171875,0.0151824951171875,-0.017822265625
1772789944554759700,4.429759765625,-1.025115966796875,0.02020263671875,-0.02935791015625
1772789944574794800,4.449794677734375,-1.0109405517578125,0.017974853515625,-0.017913818359375
1772789944594828800,4.469828857421875,-0.9925537109375,0.017578125,-0.0123291015625
1772789944614864000,4.48986376953125,-0.9901580810546875,0.0159759521484375,-0.02716064453125
1772789944634899000,4.50989892578125,-0.9932098388671875,0.018707275390625,-0.0313873291015625
1772789944654934000,4.52993408203125,-0.999603271484375,0.0244140625,-0.0242462158203125
1772789944674967800,4.5499677734375,-1.00250244140625,0.0234222412109375,-0.013397216796875
1772789944695003000,4.5700029296875,-0.99615478515625,0.0212554931640625,-0.0043487548828125
1772789944715037700,4.59003759765625,-1.001800537109375,0.024139404296875,-0.0104827880859375
1772789944735072800,4.61007275390625,-1.006561279296875,0.0225982666015625,-0.017852783203125
1772789944755107800,4.63010791015625,-0.984649658203125,0.0167999267578125,-0.0023040771484375
1772789944775142000,4.650141845703125,-0.982421875,0.0135040283203125,-0.0129852294921875
1772789944795176700,4.6701767578125,-0.9975433349609375,0.015869140625,-0.0116424560546875
1772789944815211800,4.690211669921875,-1.003448486328125,0.0146484375,-0.00787353515625
1772789944835246800,4.710246826171875,-0.9975433349609375,0.011474609375,-0.0113983154296875
1772789944855281000,4.730281005859375,-0.991485595703125,0.0044097900390625,-0.0199127197265625
1772789944875316000,4.75031591796875,-0.99908447265625,0.008453369140625,-0.01824951171875
1772789944895351000,4.77035107421875,-1.0098876953125,0.0100250244140625,-0.0255126953125
1772789944915385600,4.790385498046875,-1.03057861328125,0.0162353515625,-0.0288848876953125
1772789944935420700,4.810420654296875,-1.0300445556640625,0.015106201171875,-0.0276031494140625
1772789944955454700,4.830454833984375,-1.015869140625,0.0181427001953125,-0.0272369384765625
1772789944975489800,4.85048974609375,-1.0245819091796875,0.02203369140625,-0.03717041015625
1772789944995524900,4.87052490234375,-1.0299072265625,0.0218048095703125,-0.034027099609375
1772789945015560000,4.890559814453125,-1.0189666748046875,0.0221405029296875,-0.0394134521484375
1772789945035593700,4.91059375,-1.0164947509765625,0.0222320556640625,-0.0344085693359375
1772789945055628800,4.93062890625,-0.9907073974609375,0.015899658203125,-0.0286712646484375
1772789945075664400,4.950664306640625,-0.9847259521484375,0.0163116455078125,-0.0384063720703125
1772789945095699000,4.970698974609375,-0.9820709228515625,0.0175018310546875,-0.0440826416015625
1772789945115734000,4.990734130859375,-0.9811859130859375,0.018310546875,-0.03997802734375
1772789945135768000,5.01076806640625,-0.9785919189453125,0.0181884765625,-0.0364990234375
1772789945155803100,5.03080322265625,-0.96221923828125,0.01513671875,-0.032623291015625
1772789945175838200,5.050838134765625,-0.963623046875,0.0102081298828125,-0.0298004150390625
1772789945195873300,5.070873291015625,-0.97222900390625,0.0096893310546875,-0.0189208984375
1772789945215907000,5.090906982421875,-0.9864959716796875,0.0113525390625,-0.0187835693359375
1772789945235942100,5.110942138671875,-0.9805450439453125,0.0093231201171875,-0.024169921875
1772789945255977200,5.130977294921875,-0.9838714599609375,0.006378173828125,-0.0247650146484375
1772789945276012300,5.15101220703125,-0.9988250732421875,0.0050506591796875,-0.02239990234375
1772789945296047000,5.171047119140625,-0.9944305419921875,0.004669189453125,-0.0207366943359375
1772789945316081400,5.191081298828125,-1.014892578125,0.008209228515625,-0.022247314453125
1772789945336116000,5.211115966796875,-1.021697998046875,0.011566162109375,-0.0262908935546875
1772789945356151000,5.231151123046875,-1.017059326171875,0.0134735107421875,-0.0292816162109375
1772789945376186000,5.25118603515625,-1.0216217041015625,0.009185791015625,-0.0251312255859375
1772789945396221200,5.27122119140625,-1.019622802734375,0.0083770751953125,-0.0270233154296875
1772789945416255200,5.291255126953125,-1.014739990234375,0.0062713623046875,-0.0292816162109375
1772789945436290300,5.311290283203125,-1.016815185546875,0.00946044921875,-0.0340423583984375
1772789945456325000,5.3313251953125,-1.008758544921875,0.0113525390625,-0.0464019775390625
1772789945476360200,5.351360107421875,-1.0145721435546875,0.01141357421875,-0.0267791748046875
1772789945496394200,5.371394287109375,-0.996856689453125,0.0068511962890625,-0.02252197265625
1772789945516429300,5.39142919921875,-0.9731903076171875,-0.0007171630859375,-0.0410919189453125
1772789945536464100,5.411464111328125,-0.9981689453125,0.0124053955078125,-0.0317230224609375
1772789945556499200,5.431499267578125,-1.0122222900390625,0.0126800537109375,-0.014984130859375
1772789945576533000,5.451532958984375,-0.992767333984375,0.00909423828125,-0.01422119140625
1772789945596568000,5.471568115234375,-0.9799652099609375,0.00762939453125,-0.0214080810546875
1772789945616603100,5.49160302734375,-0.9909210205078125,0.008270263671875,-0.018310546875
1772789945636638200,5.51163818359375,-0.98602294921875,0.003265380859375,-0.0050506591796875
1772789945656673300,5.53167333984375,-1.005615234375,0.0077667236328125,-0.0117340087890625
1772789945676707300,5.551707275390625,-1.01190185546875,0.008636474609375,-0.0068206787109375
1772789945696742100,5.5717421875,-0.993927001953125,0.00225830078125,0.0034942626953125
1772789945716777000,5.59177685546875,-0.9913482666015625,-0.000457763671875,-0.004669189453125
1772789945736812000,5.61181201171875,-0.997833251953125,-0.00189208984375,-0.0087432861328125
1772789945756846000,5.63184619140625,-1.0149688720703125,0.003692626953125,-0.013641357421875
1772789945776881200,5.651881103515625,-1.0089111328125,-0.0001373291015625,-0.007537841796875
1772789945796916200,5.671916259765625,-0.9962921142578125,-0.006103515625,-0.0095977783203125
1772789945816951300,5.691951416015625,-0.993499755859375,-0.0125885009765625,-0.020111083984375
1772789945836986000,5.711986083984375,-1.00238037109375,-0.007598876953125,-0.0262908935546875
1772789945857020200,5.732020263671875,-1.0197601318359375,-0.0034332275390625,-0.0299224853515625
1772789945877055200,5.75205517578125,-1.0184783935546875,-0.0045928955078125,-0.0266571044921875
1772789945897090300,5.77209033203125,-1.001373291015625,-0.010894775390625,-0.01776123046875
1772789945917125000,5.792125,-0.9834442138671875,-0.0143280029296875,-0.0124969482421875
1772789945937159200,5.8121591796875,-0.9970703125,-0.0087432861328125,-0.0186004638671875
1772789945957194000,5.832194091796875,-1.0136566162109375,-0.0011138916015625,-0.020965576171875
1772789945977229000,5.85222900390625,-1.010009765625,0.004913330078125,-0.00469970703125
1772789945997264100,5.87226416015625,-1.0094451904296875,0.00714111328125,-0.003143310546875
1772789946017299200,5.89229931640625,-1.003662109375,0.0075225830078125,-0.007904052734375
1772789946037333200,5.912333251953125,-0.99212646484375,0.0027008056640625,-0.01678466796875
1772789946057367300,5.9323671875,-0.9956817626953125,-0.0011749267578125,-0.014190673828125
1772789946077402400,5.95240234375,-0.9968719482421875,0.00201416015625,-0.018157958984375
1772789946097437400,5.9724375,-0.9945831298828125,-0.0002899169921875,-0.023895263671875
1772789946117471500,5.992471435546875,-0.99737548828125,-0.0010528564453125,-0.031341552734375
1772789946137506300,6.01250634765625,-0.99224853515625,-0.003204345703125,-0.0239715576171875
1772789946157541400,6.032541259765625,-0.987579345703125,-0.0083160400390625,-0.0267333984375
1772789946177576200,6.052576171875,-0.9879913330078125,-0.009765625,-0.031768798828125
1772789946197611300,6.072611328125,-0.9886627197265625,-0.009368896484375,-0.0319671630859375
1772789946217645300,6.092645263671875,-0.9964599609375,-0.00360107421875,-0.0291748046875
1772789946237680400,6.112680419921875,-1.000885009765625,-0.003143310546875,-0.0231781005859375
1772789946257715200,6.132715087890625,-1.0017852783203125,-0.002532958984375,-0.02325439453125
1772789946277750300,6.152750244140625,-1.0089263916015625,-0.000457763671875,-0.0254058837890625
1772789946297785300,6.172785400390625,-1.014862060546875,0.00152587890625,-0.0195159912109375
1772789946317819400,6.1928193359375,-1.01220703125,0.0025482177734375,-0.0218505859375
1772789946337854500,6.2128544921875,-1.008087158203125,0.0004730224609375,-0.028961181640625
1772789946357889500,6.2328896484375,-1.002105712890625,-0.00146484375,-0.0271759033203125
1772789946377924400,6.25292431640625,-1.0067596435546875,-0.0033416748046875,-0.030303955078125
1772789946397958400,6.27295849609375,-1.0087890625,-0.0043487548828125,-0.0323486328125
1772789946417993200,6.2929931640625,-0.99908447265625,-0.003875732421875,-0.03057861328125
1772789946438028300,6.3130283203125,-0.9929962158203125,-0.004180908203125,-0.0264892578125
1772789946458063400,6.3330634765625,-0.996612548828125,-0.004119873046875,-0.0233154296875
1772789946478097400,6.353097412109375,-0.9957733154296875,0.0019378662109375,-0.027374267578125
1772789946498132200,6.37313232421875,-1.01104736328125,0.0073394775390625,-0.0229949951171875
1772789946518167300,6.393167236328125,-1.0204925537109375,0.0103759765625,-0.0157928466796875
1772789946538202400,6.413202392578125,-0.9998779296875,0.0070037841796875,-0.010986328125
1772789946558237400,6.433237548828125,-0.9818878173828125,-0.0030059814453125,-0.0103912353515625
1772789946578271500,6.453271484375,-0.965911865234375,-0.008331298828125,-0.00823974609375
1772789946598306300,6.473306396484375,-0.98736572265625,0.00018310546875,-0.0225067138671875
1772789946618341400,6.49334130859375,-1.0092926025390625,0.009307861328125,-0.0256195068359375
1772789946638376200,6.513376220703125,-1.003662109375,0.009735107421875,-0.0103912353515625
1772789946658411300,6.533411376953125,-0.99090576171875,0.0054931640625,-0.0163116455078125
1772789946678445300,6.5534453125,-0.967010498046875,-0.0052947998046875,-0.0159149169921875
1772789946698480400,6.57348046875,-0.979461669921875,-0.0027923583984375,-0.016357421875
1772789946718515500,6.593515380859375,-1.0172271728515625,0.0096893310546875,-0.02105712890625
1772789946738550500,6.613550537109375,-1.0236358642578125,0.012298583984375,-0.007293701171875
1772789946758584300,6.633584228515625,-1.00543212890625,0.008331298828125,-0.0015106201171875
1772789946778619400,6.653619384765625,-0.9977874755859375,0.0037994384765625,-0.000946044921875
1772789946798654200,6.673654296875,-1.0109710693359375,0.0092620849609375,-0.012054443359375
1772789946818689300,6.693689208984375,-1.029266357421875,0.01220703125,-0.0045623779296875
1772789946838724400,6.713724365234375,-1.0275726318359375,0.0097808837890625,-0.008056640625
1772789946858758400,6.73375830078125,-1.007904052734375,0.0079193115234375,-0.009246826171875
1772789946878793200,6.753793212890625,-1.01507568359375,0.008636474609375,-0.0167236328125
1772789946898828300,6.773828369140625,-1.010528564453125,0.00714111328125,-0.0117950439453125
1772789946918863400,6.79386328125,-1.0009613037109375,0.0048370361328125,-0.0224151611328125
1772789946938897400,6.8138974609375,-0.998291015625,0.002471923828125,-0.01239013671875
1772789946958932500,6.833932373046875,-0.992279052734375,0.0039215087890625,-0.0029296875
1772789946978967600,6.853967529296875,-0.9999237060546875,0.0100555419921875,-0.0056610107421875
1772789946999002400,6.87400244140625,-1.0038909912109375,0.0123291015625,0.0008087158203125
1772789947019037200,6.894037109375,-1.0155792236328125,0.01641845703125,-0.003387451171875
1772789947039071200,6.9140712890625,-1.0030364990234375,0.00958251953125,0.0013580322265625
1772789947059106800,6.93410693359375,-0.967681884765625,0.000946044921875,0.001190185546875
1772789947079142000,6.954141845703125,-0.9989166259765625,0.0094757080078125,-0.0104522705078125
1772789947099177000,6.974177001953125,-1.024017333984375,0.019866943359375,-0.0019989013671875
1772789947119210800,6.994210693359375,-1.024810791015625,0.024078369140625,-0.0070953369140625
1772789947139245800,7.014245849609375,-1.0147247314453125,0.01959228515625,0.0005645751953125
1772789947159281000,7.034281005859375,-0.9972991943359375,0.01019287109375,0.000701904296875
1772789947179315700,7.054315673828125,-0.9975433349609375,0.0066375732421875,-0.0089874267578125
1772789947199350800,7.074350830078125,-1.008148193359375,0.0095367431640625,-0.0065155029296875
1772789947219384800,7.094384765625,-1.0165557861328125,0.014007568359375,-0.0062408447265625
1772789947239419600,7.114419677734375,-1.00958251953125,0.0130615234375,-0.0137939453125
1772789947259454700,7.134454833984375,-0.998260498046875,0.0108184814453125,-0.0159759521484375
1772789947279489800,7.15448974609375,-0.99224853515625,0.008941650390625,-0.006622314453125
1772789947299524900,7.17452490234375,-0.99505615234375,0.01007080078125,-0.0123138427734375
1772789947319559000,7.194558837890625,-0.9957275390625,0.01031494140625,-0.014068603515625
1772789947339594000,7.214593994140625,-0.9973297119140625,0.0139617919921875,-0.0107269287109375
1772789947359628800,7.23462890625,-0.995758056640625,0.0140228271484375,-0.0067596435546875
1772789947379663600,7.25466357421875,-0.9904022216796875,0.0120391845703125,-0.0070953369140625
1772789947399697700,7.27469775390625,-0.98138427734375,0.0066986083984375,-0.0080413818359375
1772789947419732700,7.294732666015625,-0.9757080078125,-0.0007171630859375,-0.0166473388671875
1772789947439767800,7.314767822265625,-0.9747161865234375,-0.006134033203125,-0.016571044921875
1772789947459803000,7.334802978515625,-0.9688873291015625,-0.0141448974609375,-0.0175018310546875
1772789947479838000,7.354837890625,-0.96612548828125,-0.007659912109375,-0.0297698974609375
1772789947499871700,7.374871826171875,-0.979583740234375,0.000762939453125,-0.0311737060546875
1772789947519906800,7.39490673828125,-0.9994049072265625,0.011566162109375,-0.0208892822265625
1772789947539942000,7.41494189453125,-1.0226593017578125,0.0211944580078125,-0.019378662109375
1772789947559976700,7.434976806640625,-1.015777587890625,0.0245513916015625,-0.0083465576171875
1772789947580011000,7.455010986328125,-1.014892578125,0.0209808349609375,-0.0089111328125
1772789947600045600,7.475045654296875,-1.023193359375,0.018463134765625,-0.0194549560546875
1772789947620080600,7.49508056640625,-1.02880859375,0.0205230712890625,-0.0244598388671875
1772789947640115700,7.51511572265625,-1.0332183837890625,0.022186279296875,-0.030609130859375
1772789947660150800,7.53515087890625,-1.029388427734375,0.0164031982421875,-0.0347747802734375
1772789947680184800,7.555184814453125,-1.0106201171875,0.0030364990234375,-0.0339813232421875
1772789947700220000,7.575219970703125,-1.0060272216796875,-0.0014801025390625,-0.0387725830078125
1772789947720255000,7.5952548828125,-1.0076751708984375,-0.0015106201171875,-0.050811767578125
1772789947740289800,7.615289794921875,-1.007598876953125,0.00152587890625,-0.0537261962890625
1772789947760323800,7.63532373046875,-1.010284423828125,0.001495361328125,-0.0471954345703125
1772789947780359000,7.65535888671875,-1.001739501953125,0.0004730224609375,-0.039459228515625
1772789947800393700,7.675393798828125,-0.9906463623046875,0.0005340576171875,-0.0373687744140625
1772789947820428800,7.6954287109375,-0.99169921875,0.005279541015625,-0.0398406982421875
1772789947840464000,7.7154638671875,-0.9993896484375,0.008056640625,-0.0272064208984375
1772789947860497700,7.73549755859375,-0.9921112060546875,0.003387451171875,-0.0296173095703125
1772789947880532700,7.75553271484375,-0.9711761474609375,-0.0031585693359375,-0.0265655517578125
1772789947900567800,7.77556787109375,-0.97003173828125,-0.0028228759765625,-0.0276031494140625
1772789947920603000,7.795602783203125,-0.9785003662109375,0.0005950927734375,-0.0323638916015625
1772789947940638000,7.815637939453125,-0.979766845703125,0.005157470703125,-0.02630615234375
1772789947960672000,7.835672119140625,-0.9919891357421875,0.0091705322265625,-0.0254974365234375
1772789947980706800,7.855706787109375,-0.99200439453125,0.005157470703125,-0.0316314697265625
1772789948000741600,7.87574169921875,-0.9951019287109375,0.0057373046875,-0.03466796875
1772789948020776700,7.895776611328125,-1.002960205078125,0.008270263671875,-0.0302581787109375
1772789948040810800,7.915810791015625,-1.00836181640625,0.007354736328125,-0.036651611328125
1772789948060845800,7.935845703125,-1.0110015869140625,0.0074005126953125,-0.0428619384765625
1772789948080881000,7.955880859375,-1.0074005126953125,0.00384521484375,-0.0418243408203125
1772789948100916000,7.975916015625,-1.0037841796875,0.0027618408203125,-0.043212890625
1772789948120951000,7.995950927734375,-1.00970458984375,0.003875732421875,-0.0477447509765625
1772789948140984000,8.015984130859374,-1.0021209716796875,0.00494384765625,-0.0528106689453125
1772789948161019000,8.036018798828126,-1.0080718994140625,0.005035400390625,-0.0561676025390625
1772789948181054000,8.056053955078125,-1.0052337646484375,0.00006103515625,-0.0466766357421875
1772789948201089000,8.076089111328125,-0.9900360107421875,-0.0003662109375,-0.042083740234375
1772789948221123000,8.096123046875,-0.994903564453125,0.0046234130859375,-0.0450286865234375
1772789948241158000,8.116157958984376,-1.006103515625,0.0100555419921875,-0.0400543212890625
1772789948261193000,8.13619287109375,-1.011016845703125,0.0121612548828125,-0.031524658203125
1772789948281228000,8.15622802734375,-1.006805419921875,0.0112152099609375,-0.0331878662109375
1772789948301261800,8.17626171875,-1.0009918212890625,0.0094757080078125,-0.032806396484375
1772789948321297000,8.196296875,-1.0002593994140625,0.0070343017578125,-0.0333251953125
1772789948341332000,8.21633203125,-1.0122528076171875,0.0060882568359375,-0.0356292724609375
1772789948361367000,8.236366943359375,-1.0041961669921875,0.0038299560546875,-0.037689208984375
1772789948381402000,8.256402099609375,-0.9981231689453125,0.00390625,-0.033935546875
1772789948401436000,8.276435791015626,-0.995269775390625,0.0050048828125,-0.035247802734375
1772789948421471000,8.296470947265625,-0.9992218017578125,0.00604248046875,-0.0312957763671875
1772789948441505800,8.316505859375,-1.0054779052734375,0.010986328125,-0.0258636474609375
1772789948461540900,8.336540771484374,-1.0032501220703125,0.0122222900390625,-0.0296630859375
1772789948481575000,8.356574951171876,-1.0073699951171875,0.0174102783203125,-0.032073974609375
1772789948501610000,8.37660986328125,-1.0047454833984375,0.0191497802734375,-0.0217437744140625
1772789948521645000,8.39664501953125,-0.99322509765625,0.0156707763671875,-0.0263519287109375
1772789948541679900,8.416679931640624,-0.9947357177734375,0.01483154296875,-0.0339813232421875
1772789948561715000,8.43671484375,-0.9867401123046875,0.0134735107421875,-0.036224365234375
1772789948581749000,8.4567490234375,-0.9915924072265625,0.0144500732421875,-0.0338134765625
1772789948601784000,8.4767841796875,-0.99627685546875,0.0143280029296875,-0.032318115234375
1772789948621819100,8.496819091796874,-0.9830169677734375,0.0097198486328125,-0.0324859619140625
1772789948641854000,8.51685400390625,-0.9839630126953125,0.0092926025390625,-0.0410003662109375
1772789948661889000,8.536888916015625,-0.99945068359375,0.012542724609375,-0.0365142822265625
1772789948681922800,8.5569228515625,-0.995269775390625,0.0095977783203125,-0.027496337890625
1772789948701958000,8.5769580078125,-0.989044189453125,0.006622314453125,-0.0345001220703125
1772789948721993000,8.596992919921876,-0.9849700927734375,0.006805419921875,-0.0342254638671875
1772789948742028000,8.617028076171875,-0.9905853271484375,0.00927734375,-0.027008056640625
1772789948762062000,8.63706201171875,-1.012847900390625,0.0130767822265625,-0.0330657958984375
1772789948782097000,8.657096923828124,-1.01385498046875,0.015777587890625,-0.0367584228515625
1772789948802132000,8.677132080078126,-1.0136566162109375,0.016754150390625,-0.0312957763671875
1772789948822167000,8.6971669921875,-1.0107574462890625,0.017974853515625,-0.0286407470703125
1772789948842201900,8.717201904296875,-1.0100860595703125,0.0159149169921875,-0.030670166015625
1772789948862236000,8.73723583984375,-1.011474609375,0.01776123046875,-0.0343017578125
1772789948882271000,8.75727099609375,-1.006103515625,0.01495361328125,-0.033966064453125
1772789948902306000,8.77730615234375,-1.00848388671875,0.014739990234375,-0.033172607421875
1772789948922340900,8.7973408203125,-1.0133209228515625,0.015228271484375,-0.0321502685546875
1772789948942375000,8.817375,-1.001190185546875,0.01385498046875,-0.0320892333984375
1772789948962410000,8.837409912109376,-1.0026702880859375,0.015533447265625,-0.035491943359375
1772789948982445000,8.857445068359375,-1.0095367431640625,0.0213775634765625,-0.028411865234375
1772789949002480000,8.877480224609375,-1.0148162841796875,0.023681640625,-0.0213470458984375
1772789949022515000,8.897514892578124,-1.0060577392578125,0.0214080810546875,-0.0233612060546875
1772789949042549000,8.917549072265626,-0.9968414306640625,0.0183563232421875,-0.024810791015625
1772789949062584000,8.937583984375,-0.9953155517578125,0.01263427734375,-0.0219879150390625
1772789949082619100,8.957619140625,-0.9987640380859375,0.015228271484375,-0.0237274169921875
1772789949102654000,8.977654052734374,-1.001220703125,0.01934814453125,-0.0267791748046875
1772789949122689000,8.99768896484375,-1.004425048828125,0.0208282470703125,-0.02667236328125
1772789949142723000,9.01772314453125,-0.9954376220703125,0.0152435302734375,-0.0178680419921875
1772789949162758100,9.037758056640625,-0.9850311279296875,0.009796142578125,-0.022796630859375
1772789949182793200,9.057793212890624,-0.989990234375,0.00848388671875,-0.0302581787109375
1772789949202828300,9.077828369140626,-1.0034027099609375,0.01141357421875,-0.02740478515625
1772789949222862000,9.097862060546875,-1.010894775390625,0.0133056640625,-0.03436279296875
1772789949242897200,9.117897216796875,-1.0025634765625,0.0123291015625,-0.0281982421875
1772789949262932000,9.137931884765624,-0.992279052734375,0.009613037109375,-0.0278778076171875
1772789949282967000,9.157967041015626,-1.0042724609375,0.0127410888671875,-0.0324554443359375
1772789949303002000,9.178002197265625,-1.0149688720703125,0.014801025390625,-0.0257110595703125
1772789949323036200,9.1980361328125,-0.9981842041015625,0.008636474609375,-0.02423095703125
1772789949343071000,9.218071044921874,-0.9835357666015625,0.0077667236328125,-0.0274200439453125
1772789949363106000,9.23810595703125,-0.979156494140625,0.008819580078125,-0.022705078125
1772789949383141000,9.25814111328125,-0.9927978515625,0.0135955810546875,-0.0265350341796875
1772789949403175200,9.278175048828125,-0.998809814453125,0.0167388916015625,-0.0250091552734375
1772789949423210200,9.298210205078124,-1.003814697265625,0.0196533203125,-0.021240234375
1772789949443245000,9.3182451171875,-1.001434326171875,0.01654052734375,-0.01898193359375
1772789949463280000,9.338280029296875,-0.9963836669921875,0.0118408203125,-0.02484130859375
1772789949483315000,9.35831494140625,-0.99786376953125,0.009307861328125,-0.0251617431640625
1772789949503349000,9.378348876953124,-1.0001373291015625,0.009002685546875,-0.0227813720703125
1772789949523384000,9.398384033203126,-1.0098419189453125,0.012420654296875,-0.03143310546875
1772789949543419100,9.418419189453125,-1.0142059326171875,0.015869140625,-0.02862548828125
1772789949563454200,9.4384541015625,-1.0112152099609375,0.0175933837890625,-0.03131103515625
1772789949583489300,9.4584892578125,-1.000885009765625,0.0119476318359375,-0.02996826171875
1772789949603523000,9.478523193359376,-1.009490966796875,0.011383056640625,-0.0303802490234375
1772789949623558100,9.49855810546875,-1.009521484375,0.0118865966796875,-0.0265350341796875
1772789949643593000,9.518593017578125,-0.9965362548828125,0.011016845703125,-0.02447509765625
1772789949663628000,9.5386279296875,-0.9840850830078125,0.0081787109375,-0.0227508544921875
1772789949683662000,9.558662109375,-0.9872894287109375,0.0090484619140625,-0.019195556640625
1772789949703697200,9.578697265625,-0.997283935546875,0.014190673828125,-0.0182647705078125
1772789949723732000,9.59873193359375,-1.01129150390625,0.0215606689453125,-0.021728515625
1772789949743767000,9.61876708984375,-1.015625,0.0233001708984375,-0.0231475830078125
1772789949763802000,9.638802001953126,-1.00933837890625,0.0202789306640625,-0.024078369140625
1772789949783836200,9.658836181640625,-1.000885009765625,0.015533447265625,-0.0249481201171875
1772789949803871200,9.678871337890625,-1.00799560546875,0.0128936767578125,-0.0311431884765625
1772789949823906300,9.69890625,-1.013580322265625,0.014190673828125,-0.0303497314453125
1772789949843940900,9.71894091796875,-1.003265380859375,0.0114593505859375,-0.0298614501953125
1772789949863975200,9.73897509765625,-0.98907470703125,0.0069732666015625,-0.0278472900390625
1772789949884010000,9.759010009765625,-0.984588623046875,0.003997802734375,-0.0283050537109375
1772789949904045000,9.779045166015624,-0.9849853515625,0.0074005126953125,-0.0258636474609375
1772789949924080000,9.799080078125,-0.9917449951171875,0.0122833251953125,-0.020355224609375
1772789949944115200,9.819115234375,-0.9958038330078125,0.014984130859375,-0.0240478515625
1772789949964149000,9.83914892578125,-0.9947509765625,0.01953125,-0.0238800048828125
1772789949984184000,9.85918408203125,-1.002777099609375,0.0224761962890625,-0.0218505859375
1772789950004219100,9.87921923828125,-1.0090179443359375,0.021148681640625,-0.019317626953125
1772789950024254200,9.899254150390625,-0.9990081787109375,0.01654052734375,-0.0218353271484375
1772789950044288300,9.919288330078125,-0.9922027587890625,0.01165771484375,-0.023651123046875
1772789950064322600,9.939322509765624,-0.99298095703125,0.0079193115234375,-0.0259552001953125
1772789950084357400,9.959357421875,-1.0020599365234375,0.0118408203125,-0.024658203125
1772789950104392400,9.979392333984375,-1.008636474609375,0.01568603515625,-0.0245819091796875
1772789950124427500,9.999427490234375,-1.0065765380859375,0.0178375244140625,-0.0271759033203125
1772789950144461600,10.019461669921874,-1.0109100341796875,0.019500732421875,-0.0241851806640625
1772789950164496600,10.03949658203125,-1.0068511962890625,0.0146026611328125,-0.018341064453125
1772789950184531500,10.059531494140625,-1.0013427734375,0.013153076171875,-0.024688720703125
1772789950204566500,10.07956640625,-1.0025787353515625,0.0143280029296875,-0.032073974609375
1772789950224601600,10.0996015625,-0.9957122802734375,0.0167083740234375,-0.0203094482421875
1772789950244635600,10.1196357421875,-1.0057373046875,0.0186004638671875,-0.0280914306640625
1772789950264670700,10.139670654296875,-1.0024871826171875,0.01702880859375,-0.018798828125
1772789950284705500,10.15970556640625,-1.0061187744140625,0.017669677734375,-0.0234375
1772789950304740600,10.17974072265625,-1.003448486328125,0.0184783935546875,-0.02227783203125
1772789950324774400,10.1997744140625,-1.0028533935546875,0.01605224609375,-0.0263824462890625
1772789950344809500,10.2198095703125,-1.0001068115234375,0.01849365234375,-0.0206146240234375
1772789950364844500,10.239844482421875,-1.0009002685546875,0.015533447265625,-0.0245208740234375
1772789950384879600,10.259879638671874,-0.9893646240234375,0.0080718994140625,-0.014404296875
1772789950404914700,10.279914794921876,-0.9838104248046875,0.0089111328125,-0.023162841796875
1772789950424948500,10.299948486328125,-0.99652099609375,0.0163116455078125,-0.0228424072265625
1772789950444983600,10.319983642578125,-1.010162353515625,0.024200439453125,-0.0216827392578125
1772789950465018600,10.3400185546875,-1.0143280029296875,0.0243682861328125,-0.0206451416015625
1772789950485053400,10.360053466796876,-1.0065460205078125,0.017974853515625,-0.020355224609375
1772789950505087500,10.38008740234375,-0.983184814453125,0.00494384765625,-0.0227203369140625
1772789950525122600,10.40012255859375,-0.9981842041015625,0.0079193115234375,-0.0322265625
1772789950545157400,10.420157470703124,-1.0048370361328125,0.0130462646484375,-0.03704833984375
1772789950565192400,10.4401923828125,-1.0028533935546875,0.01177978515625,-0.0325164794921875
1772789950585227500,10.4602275390625,-0.99859619140625,0.0088958740234375,-0.029632568359375
1772789950605261600,10.480261474609375,-0.99591064453125,0.0094757080078125,-0.028778076171875
1772789950625296600,10.500296630859374,-0.9934844970703125,0.0093994140625,-0.0284881591796875
1772789950645331700,10.520331787109376,-1.012847900390625,0.0173492431640625,-0.0309906005859375
1772789950665366500,10.540366455078125,-1.0242462158203125,0.021759033203125,-0.02789306640625
1772789950685401300,10.5604013671875,-1.0189208984375,0.0210113525390625,-0.02618408203125
1772789950705435400,10.580435302734376,-1.000244140625,0.015899658203125,-0.027801513671875
1772789950725470500,10.600470458984375,-0.996795654296875,0.01129150390625,-0.0249481201171875
1772789950745505500,10.620505615234375,-1.0032501220703125,0.0096893310546875,-0.0204315185546875
1772789950765540600,10.64054052734375,-0.9989166259765625,0.0103302001953125,-0.0256195068359375
1772789950785574400,10.660574462890626,-0.9979248046875,0.0118408203125,-0.03228759765625
1772789950805609500,10.680609375,-0.9970855712890625,0.01043701171875,-0.0192718505859375
1772789950825644500,10.70064453125,-0.9940032958984375,0.010162353515625,-0.0213775634765625
1772789950845679600,10.7206796875,-0.99066162109375,0.009552001953125,-0.02593994140625
1772789950865714400,10.74071435546875,-0.992462158203125,0.0102081298828125,-0.020782470703125
1772789950885748700,10.760748779296875,-1.0010986328125,0.015777587890625,-0.024078369140625
1772789950905783600,10.780783447265625,-1.009002685546875,0.0164337158203125,-0.0209503173828125
1772789950925818400,10.800818359375,-0.9998626708984375,0.01214599609375,-0.0202789306640625
1772789950945853400,10.820853515625,-0.9927215576171875,0.0081939697265625,-0.0302734375
1772789950965887500,10.840887451171875,-0.998748779296875,0.0088653564453125,-0.033447265625
1772789950985922600,10.860922607421875,-0.997283935546875,0.01031494140625,-0.0256805419921875
1772789951005957600,10.88095751953125,-1.0010528564453125,0.01031494140625,-0.032073974609375
1772789951025992700,10.90099267578125,-0.996795654296875,0.009490966796875,-0.032318115234375
1772789951046027800,10.92102783203125,-0.9889984130859375,0.0064697265625,-0.0297393798828125
1772789951066061800,10.941061767578125,-1.012786865234375,0.0128021240234375,-0.032470703125
1772789951086096600,10.9610966796875,-1.0137481689453125,0.0159149169921875,-0.02593994140625
1772789951106131700,10.981131591796874,-1.0101470947265625,0.0129852294921875,-0.02044677734375
1772789951126166800,11.001166748046876,-0.9994659423828125,0.0090484619140625,-0.0186920166015625
1772789951146200600,11.02120068359375,-1.0009613037109375,0.00909423828125,-0.0247650146484375
1772789951166235600,11.041235595703125,-1.0101318359375,0.0135955810546875,-0.0220794677734375
1772789951186270700,11.061270751953124,-1.0146942138671875,0.0131378173828125,-0.0194549560546875
1772789951206305800,11.081305908203126,-0.997222900390625,0.0071868896484375,-0.0193328857421875
1772789951226340900,11.1013408203125,-0.990875244140625,0.004638671875,-0.0242767333984375
1772789951246374700,11.121374755859375,-0.9906768798828125,0.007568359375,-0.02362060546875
1772789951266409700,11.14140966796875,-1.0064849853515625,0.009307861328125,-0.0275115966796875
1772789951286444500,11.161444580078125,-0.99737548828125,0.00921630859375,-0.0259552001953125
1772789951306479600,11.181479736328125,-0.9884185791015625,0.0077667236328125,-0.0214691162109375
1772789951326514700,11.2015146484375,-0.9987335205078125,0.008941650390625,-0.0214691162109375
1772789951346548700,11.221548828125,-1.000274658203125,0.0081329345703125,-0.0244903564453125
1772789951366583800,11.241583740234375,-1.0016937255859375,0.008453369140625,-0.0290679931640625
1772789951386618600,11.26161865234375,-0.99920654296875,0.0106658935546875,-0.0215911865234375
1772789951406653700,11.28165380859375,-0.9986114501953125,0.0104522705078125,-0.0185546875
1772789951426687700,11.301687744140626,-1.004302978515625,0.0076751708984375,-0.027435302734375
1772789951446722800,11.321722900390625,-0.9987640380859375,0.005218505859375,-0.025909423828125
1772789951466758000,11.3417578125,-0.9957733154296875,0.0080413818359375,-0.0239715576171875
1772789951486792700,11.361792724609375,-1.00384521484375,0.0098876953125,-0.0258636474609375
1772789951506827800,11.381827880859374,-1.001983642578125,0.008758544921875,-0.021728515625
1772789951526861600,11.401861572265625,-0.9904022216796875,0.0068817138671875,-0.02423095703125
1772789951546896600,11.421896728515625,-0.989532470703125,0.0099029541015625,-0.023040771484375
1772789951566931700,11.441931640625,-1.003509521484375,0.01165771484375,-0.0202178955078125
1772789951586966800,11.461966796875,-0.9967803955078125,0.0109100341796875,-0.023651123046875
1772789951607000800,11.482000732421875,-0.99169921875,0.01007080078125,-0.023284912109375
1772789951627035600,11.50203564453125,-0.9850006103515625,0.007965087890625,-0.0233001708984375
1772789951647070700,11.52207080078125,-0.9967498779296875,0.0107269287109375,-0.0318756103515625
1772789951667105800,11.542105712890624,-1.0078277587890625,0.0151824951171875,-0.0327301025390625
1772789951687140600,11.562140625,-1.0054473876953125,0.01263427734375,-0.0310211181640625
1772789951707174700,11.582174560546875,-0.99237060546875,0.0072784423828125,-0.0274505615234375
1772789951727209700,11.602209716796875,-0.9893951416015625,0.0031280517578125,-0.026947021484375
1772789951747244500,11.62224462890625,-0.9933319091796875,0.0097198486328125,-0.02532958984375
1772789951767279600,11.642279541015625,-1.0083465576171875,0.016387939453125,-0.0247039794921875
1772789951787314700,11.662314697265625,-1.0181732177734375,0.0209197998046875,-0.0279083251953125
1772789951807348700,11.6823486328125,-1.0143280029296875,0.020599365234375,-0.02130126953125
1772789951827383800,11.7023837890625,-1.0077667236328125,0.017913818359375,-0.0254058837890625
1772789951847419000,11.7224189453125,-0.99810791015625,0.0142669677734375,-0.0251312255859375
1772789951867453700,11.74245361328125,-1.0106048583984375,0.0160369873046875,-0.034637451171875
1772789951887487700,11.76248779296875,-1.0167236328125,0.0182037353515625,-0.033416748046875
1772789951907522600,11.7825224609375,-1.0097808837890625,0.0208282470703125,-0.034088134765625
1772789951927557600,11.8025576171875,-1.0105743408203125,0.0194244384765625,-0.033721923828125
1772789951947592700,11.8225927734375,-0.9806671142578125,0.0078125,-0.0162506103515625
1772789951967627800,11.842627685546875,-0.9764251708984375,0.00201416015625,-0.0248565673828125
1772789951987661600,11.86266162109375,-0.997100830078125,0.011932373046875,-0.03155517578125
1772789952007696600,11.882696533203125,-1.011199951171875,0.0208740234375,-0.021514892578125
1772789952027731700,11.902731689453125,-1.0009918212890625,0.015716552734375,-0.0197601318359375
1772789952047766800,11.922766845703125,-0.9949951171875,0.0137176513671875,-0.0229644775390625
1772789952067801000,11.942801025390626,-0.9919281005859375,0.0121612548828125,-0.0203094482421875
1772789952087836000,11.9628359375,-1.00286865234375,0.0125885009765625,-0.023895263671875
1772789952107871000,11.98287109375,-1.0090484619140625,0.0157623291015625,-0.01995849609375
1772789952127905800,12.00290576171875,-0.99945068359375,0.012451171875,-0.0207061767578125
1772789952147940900,12.02294091796875,-1.00250244140625,0.0152740478515625,-0.0250396728515625
1772789952167975000,12.042974853515625,-1.0003204345703125,0.0152740478515625,-0.0203857421875
1772789952188010000,12.063010009765625,-1.0052642822265625,0.0171356201171875,-0.0209808349609375
1772789952208045000,12.083045166015625,-1.00799560546875,0.0175323486328125,-0.01776123046875
1772789952228080000,12.103080078125,-0.995025634765625,0.013336181640625,-0.02032470703125
1772789952248115000,12.123114990234376,-0.98614501953125,0.00958251953125,-0.0196990966796875
1772789952268149000,12.14314892578125,-0.9937896728515625,0.01165771484375,-0.0240020751953125
1772789952288183800,12.163183837890625,-1.0058441162109375,0.0179901123046875,-0.0264739990234375
1772789952308219000,12.183218994140624,-1.00830078125,0.0200653076171875,-0.020416259765625
1772789952328254000,12.20325390625,-1.0002899169921875,0.016632080078125,-0.027618408203125
1772789952348288000,12.2232880859375,-0.9918670654296875,0.0135345458984375,-0.0263519287109375
1772789952368322800,12.24332275390625,-0.9946746826171875,0.0128631591796875,-0.0220794677734375
1772789952388358000,12.26335791015625,-1.000091552734375,0.0133514404296875,-0.0273895263671875
1772789952408393000,12.28339306640625,-1.0038604736328125,0.0160064697265625,-0.023284912109375
1772789952428428000,12.303427978515625,-1.0094146728515625,0.021026611328125,-0.0205841064453125
1772789952448462000,12.323462158203125,-1.006439208984375,0.0222015380859375,-0.021636962890625
1772789952468497200,12.3434970703125,-1.004241943359375,0.019561767578125,-0.022186279296875
1772789952488532000,12.363531982421875,-1.003692626953125,0.0166015625,-0.0200958251953125
1772789952508566800,12.38356689453125,-1.0012054443359375,0.0159912109375,-0.0269317626953125
1772789952528600800,12.403600830078124,-0.9980010986328125,0.0154266357421875,-0.0276947021484375
1772789952548639000,12.423638916015625,-1.00738525390625,0.0169525146484375,-0.0231475830078125
1772789952568672800,12.4436728515625,-0.9998626708984375,0.0160980224609375,-0.0246429443359375
1772789952588707800,12.463707763671875,-0.9969940185546875,0.0176239013671875,-0.0274505615234375
1772789952608743000,12.483742919921875,-0.9923858642578125,0.0132904052734375,-0.01904296875
1772789952628778000,12.503778076171875,-0.9895477294921875,0.0115509033203125,-0.0235137939453125
1772789952648813000,12.52381298828125,-0.9850616455078125,0.013427734375,-0.0258636474609375
1772789952668847000,12.54384716796875,-0.9951629638671875,0.0234222412109375,-0.02410888671875
1772789952688882000,12.5638818359375,-1.0113372802734375,0.02996826171875,-0.022003173828125
1772789952708917000,12.5839169921875,-1.01715087890625,0.0302886962890625,-0.0242919921875
1772789952728951800,12.603951904296874,-1.00445556640625,0.0269775390625,-0.0222015380859375
1772789952748986000,12.623986083984375,-1.0126953125,0.02423095703125,-0.02252197265625
1772789952769021000,12.64402099609375,-1.00628662109375,0.0186309814453125,-0.025543212890625
1772789952789056000,12.664055908203125,-1.0013885498046875,0.0167694091796875,-0.027008056640625
1772789952809090800,12.6840908203125,-1.005523681640625,0.0194549560546875,-0.028289794921875
1772789952829126000,12.7041259765625,-1.008056640625,0.0182037353515625,-0.0244903564453125
1772789952849160000,12.724159912109375,-1.0006561279296875,0.0164794921875,-0.02764892578125
1772789952869195000,12.744195068359375,-0.9929351806640625,0.0147857666015625,-0.0313873291015625
1772789952889230000,12.76422998046875,-1.0025787353515625,0.0168914794921875,-0.024993896484375
1772789952909265200,12.78426513671875,-0.9967041015625,0.0169525146484375,-0.029754638671875
1772789952929299000,12.804298828125,-0.995452880859375,0.0188751220703125,-0.034698486328125
1772789952949334000,12.824333984375,-1.003387451171875,0.02685546875,-0.0243988037109375
1772789952969368800,12.844368896484376,-1.015869140625,0.0300140380859375,-0.02362060546875
1772789952989404000,12.86440380859375,-0.9988250732421875,0.0198974609375,-0.023345947265625
1772789953009439000,12.88443896484375,-0.9845123291015625,0.0122528076171875,-0.024566650390625
1772789953029473000,12.90447314453125,-0.9773406982421875,0.01263427734375,-0.0258636474609375
1772789953049507800,12.9245078125,-0.9976043701171875,0.0170440673828125,-0.0263824462890625
1772789953069543400,12.94454345703125,-1.0041046142578125,0.018463134765625,-0.02056884765625
1772789953089578500,12.96457861328125,-0.99810791015625,0.019500732421875,-0.02496337890625
1772789953109613300,12.98461328125,-1.0003509521484375,0.02239990234375,-0.0272369384765625
1772789953129647600,13.004647705078124,-1.006866455078125,0.0227203369140625,-0.0274658203125
1772789953149682400,13.024682373046875,-1.0163421630859375,0.02337646484375,-0.034515380859375
1772789953169717200,13.04471728515625,-1.01153564453125,0.0187225341796875,-0.0311737060546875
1772789953189752300,13.06475244140625,-0.9951629638671875,0.01483154296875,-0.0291290283203125
1772789953209786400,13.084786376953126,-0.99554443359375,0.01519775390625,-0.035125732421875
1772789953229821400,13.104821533203125,-1.0002288818359375,0.0169677734375,-0.031982421875
1772789953249856500,13.1248564453125,-1.00909423828125,0.020721435546875,-0.0318756103515625
1772789953269891600,13.1448916015625,-0.999237060546875,0.0197906494140625,-0.0216827392578125
1772789953289926700,13.1649267578125,-0.99090576171875,0.0154876708984375,-0.0250701904296875
1772789953309960400,13.18496044921875,-0.997802734375,0.017181396484375,-0.028778076171875
1772789953329995500,13.20499560546875,-1.0048828125,0.0194244384765625,-0.028656005859375
1772789953350030300,13.2250302734375,-1.0064849853515625,0.023895263671875,-0.0220794677734375
1772789953370065400,13.2450654296875,-0.9982757568359375,0.0204620361328125,-0.02392578125
1772789953390099500,13.265099365234375,-0.9865875244140625,0.01446533203125,-0.0243072509765625
1772789953410134300,13.28513427734375,-0.9998931884765625,0.01580810546875,-0.0307159423828125
1772789953430169300,13.30516943359375,-1.00335693359375,0.01873779296875,-0.0255584716796875
1772789953450204400,13.325204345703124,-0.9984283447265625,0.0181884765625,-0.0258026123046875
1772789953470239500,13.345239501953126,-1.0003814697265625,0.019134521484375,-0.028656005859375
1772789953490273500,13.3652734375,-0.9959716796875,0.01806640625,-0.0249176025390625
1772789953510308600,13.38530859375,-0.99896240234375,0.014801025390625,-0.02734375
1772789953530343400,13.405343505859374,-0.994354248046875,0.0152740478515625,-0.02703857421875
1772789953550378200,13.425378173828125,-1.000701904296875,0.013916015625,-0.0294647216796875
1772789953570413300,13.445413330078125,-1.0018463134765625,0.017852783203125,-0.0237884521484375
1772789953590447400,13.465447265625,-1.00701904296875,0.017822265625,-0.0220184326171875
1772789953610482400,13.485482421875,-1.0030059814453125,0.0175018310546875,-0.0207672119140625
1772789953630517500,13.505517578125,-1.0017242431640625,0.0156097412109375,-0.024169921875
1772789953650552600,13.525552490234375,-1.0002593994140625,0.0156402587890625,-0.022216796875
1772789953670586400,13.54558642578125,-0.9993133544921875,0.0146942138671875,-0.02203369140625
1772789953690621400,13.565621337890626,-0.9984588623046875,0.013214111328125,-0.0214996337890625
1772789953710656500,13.585656494140625,-0.9935302734375,0.0174560546875,-0.0179290771484375
1772789953730691300,13.60569140625,-1.003082275390625,0.0200042724609375,-0.020233154296875
1772789953750725600,13.6257255859375,-1.0083160400390625,0.021881103515625,-0.013397216796875
1772789953770760400,13.645760498046876,-1.0060577392578125,0.022552490234375,-0.0177459716796875
1772789953790795300,13.665795166015625,-1.00433349609375,0.0200347900390625,-0.0226898193359375
1772789953810830300,13.685830322265625,-0.9981842041015625,0.021240234375,-0.0184478759765625
1772789953830865400,13.705865478515625,-1.0022430419921875,0.0207366943359375,-0.0265350341796875
1772789953850899500,13.7258994140625,-1.00323486328125,0.018402099609375,-0.0260162353515625
1772789953870934500,13.7459345703125,-1.0000152587890625,0.0204620361328125,-0.0312347412109375
1772789953890969600,13.765969482421875,-1.0051116943359375,0.022552490234375,-0.0374298095703125
1772789953911004400,13.78600439453125,-1.0035858154296875,0.0214996337890625,-0.02301025390625
1772789953931039200,13.806039306640624,-1.0035247802734375,0.0210113525390625,-0.0271148681640625
1772789953951073500,13.826073486328125,-0.9920806884765625,0.017852783203125,-0.02825927734375
1772789953971108400,13.8461083984375,-0.9989776611328125,0.0193328857421875,-0.02215576171875
1772789953991143400,13.866143310546875,-1.007568359375,0.0224151611328125,-0.0233612060546875
1772789954011178500,13.886178466796874,-1.0062255859375,0.0237274169921875,-0.0292205810546875
1772789954031212300,13.90621240234375,-1.0009307861328125,0.022369384765625,-0.0230560302734375
1772789954051247400,13.926247314453125,-0.99749755859375,0.0164642333984375,-0.02349853515625
1772789954071282400,13.946282470703125,-1.0017242431640625,0.015228271484375,-0.0279083251953125
1772789954091317500,13.9663173828125,-1.0066680908203125,0.01800537109375,-0.0248565673828125
1772789954111352300,13.986352294921875,-1.0057220458984375,0.01776123046875,-0.02294921875
1772789954131386600,14.00638671875,-1.0048675537109375,0.016937255859375,-0.0190887451171875
1772789954151421200,14.026421142578124,-1.0018157958984375,0.01690673828125,-0.016204833984375
1772789954171456300,14.046456298828126,-1.0031280517578125,0.01873779296875,-0.018829345703125
1772789954191491300,14.0664912109375,-1.0095977783203125,0.017486572265625,-0.017547607421875
1772789954211525400,14.086525390625,-1.00372314453125,0.017425537109375,-0.016448974609375
1772789954231560400,14.106560546875,-0.9931640625,0.0132293701171875,-0.0177154541015625
1772789954251595500,14.126595458984376,-1.0038299560546875,0.014434814453125,-0.0190582275390625
1772789954271630600,14.146630615234375,-1.0091705322265625,0.016143798828125,-0.018646240234375
1772789954291665400,14.16666552734375,-0.991485595703125,0.0105438232421875,-0.0227508544921875
1772789954311699500,14.186699462890624,-0.995147705078125,0.013153076171875,-0.0230255126953125
1772789954331734500,14.206734619140626,-1.0010528564453125,0.017059326171875,-0.02203369140625
1772789954351769300,14.226769287109375,-0.99334716796875,0.01507568359375,-0.025299072265625
1772789954371804400,14.246804443359375,-0.9913177490234375,0.013336181640625,-0.0240325927734375
1772789954391838200,14.266838134765624,-0.988128662109375,0.0099945068359375,-0.020904541015625
1772789954411873300,14.286873291015626,-0.9818878173828125,0.0084686279296875,-0.01971435546875
1772789954431908400,14.306908447265625,-0.99517822265625,0.0126800537109375,-0.022735595703125
1772789954451943400,14.326943359375,-1.009857177734375,0.0199127197265625,-0.02374267578125
1772789954471978500,14.346978515625,-1.0070343017578125,0.019287109375,-0.020111083984375
1772789954492012500,14.367012451171876,-0.9992523193359375,0.0139923095703125,-0.0238037109375
1772789954512047600,14.387047607421875,-1.0032196044921875,0.014190673828125,-0.027130126953125
1772789954532082400,14.40708251953125,-1.006256103515625,0.012908935546875,-0.02789306640625
1772789954552117200,14.4271171875,-1.0065155029296875,0.0131072998046875,-0.0302734375
1772789954572151300,14.4471513671875,-1.0035400390625,0.0122833251953125,-0.0276336669921875
1772789954592186400,14.467186279296875,-1.0005340576171875,0.006988525390625,-0.02764892578125
1772789954612221400,14.487221435546875,-0.989715576171875,0.0011444091796875,-0.0232696533203125
1772789954632256500,14.507256591796875,-0.9998626708984375,0.0056915283203125,-0.0216522216796875
1772789954652291600,14.52729150390625,-1.0018310546875,0.0090484619140625,-0.0127716064453125
1772789954672325400,14.547325439453125,-1.0076141357421875,0.0085601806640625,-0.0155029296875
1772789954692360400,14.5673603515625,-0.9969024658203125,0.00860595703125,-0.008880615234375
1772789954712395500,14.5873955078125,-0.989105224609375,0.007659912109375,-0.008575439453125
1772789954732430300,14.607430419921876,-1.0032196044921875,0.011749267578125,-0.0089569091796875
1772789954752464600,14.627464599609375,-1.009735107421875,0.0102996826171875,-0.008453369140625
1772789954772499200,14.647499267578125,-1.00653076171875,0.0091400146484375,-0.0107574462890625
1772789954792534300,14.6675341796875,-0.9984130859375,0.006866455078125,-0.011566162109375
1772789954812569300,14.6875693359375,-1.0040283203125,0.0071258544921875,-0.0186767578125
1772789954832604400,14.7076044921875,-1.004058837890625,0.0052032470703125,-0.0189361572265625
1772789954852638500,14.727638427734375,-1.0066070556640625,0.0096282958984375,-0.0207672119140625
1772789954872673500,14.747673583984374,-1.0087738037109375,0.0108489990234375,-0.02386474609375
1772789954892708600,14.76770849609375,-1.00726318359375,0.009002685546875,-0.023681640625
1772789954912743400,14.787743408203125,-0.9983673095703125,0.00506591796875,-0.024017333984375
1772789954932777500,14.807777587890625,-1.00030517578125,0.00677490234375,-0.02685546875
1772789954952812500,14.8278125,-1.00067138671875,0.0073699951171875,-0.022125244140625
1772789954972847400,14.847847412109376,-1.0048370361328125,0.0099945068359375,-0.020751953125
1772789954992882400,14.86788232421875,-0.9895172119140625,0.0067901611328125,-0.020111083984375
1772789955012917500,14.88791748046875,-0.988128662109375,0.00836181640625,-0.0157623291015625
1772789955032951300,14.907951416015624,-0.9953460693359375,0.0107269287109375,-0.0055694580078125
1772789955052986400,14.927986328125,-0.9967041015625,0.0079803466796875,-0.0096282958984375
1772789955073020700,14.948020751953125,-0.9912261962890625,0.0103607177734375,-0.0044708251953125
1772789955093055700,14.9680556640625,-0.998504638671875,0.0118255615234375,-0.007781982421875
1772789955113090800,14.9880908203125,-1.0049285888671875,0.0146331787109375,-0.01165771484375
1772789955133124600,15.00812451171875,-1.01171875,0.018524169921875,-0.011962890625
1772789955153159700,15.02815966796875,-1.0108795166015625,0.0193023681640625,-0.010284423828125
1772789955173194800,15.04819482421875,-1.0054779052734375,0.0157470703125,-0.0144195556640625
1772789955193229600,15.0682294921875,-0.9925537109375,0.0124053955078125,-0.0203094482421875
1772789955213264000,15.088263916015626,-0.9984893798828125,0.012908935546875,-0.0221099853515625
1772789955233298700,15.108298583984375,-0.9946746826171875,0.01507568359375,-0.01959228515625
1772789955253333500,15.12833349609375,-0.98785400390625,0.0111541748046875,-0.022918701171875
1772789955273368600,15.14836865234375,-0.9797821044921875,0.0124969482421875,-0.0155029296875
1772789955293403600,15.168403564453126,-0.990936279296875,0.01220703125,-0.0203094482421875
1772789955313437700,15.188437744140625,-1.00146484375,0.0169219970703125,-0.017547607421875
1772789955333472800,15.20847265625,-1.0023040771484375,0.0205078125,-0.016082763671875
1772789955353507800,15.2285078125,-1.00128173828125,0.02374267578125,-0.019500732421875
1772789955373543000,15.24854296875,-1.001129150390625,0.0242156982421875,-0.0151824951171875
1772789955393576700,15.26857666015625,-0.9973297119140625,0.0205841064453125,-0.0156707763671875
1772789955413611800,15.28861181640625,-1.0016632080078125,0.0229949951171875,-0.0203704833984375
1772789955433646600,15.308646484375,-1.0072174072265625,0.024139404296875,-0.01922607421875
1772789955453681700,15.328681640625,-1.012725830078125,0.024017333984375,-0.0208587646484375
1772789955473716700,15.348716796875,-1.011016845703125,0.0233001708984375,-0.026885986328125
1772789955493750500,15.36875048828125,-1.002166748046875,0.0186614990234375,-0.02435302734375
1772789955513785600,15.38878564453125,-0.9986572265625,0.018218994140625,-0.0231170654296875
1772789955533820700,15.408820556640626,-1.004241943359375,0.01947021484375,-0.028656005859375
1772789955553855700,15.428855712890625,-1.0121307373046875,0.021514892578125,-0.0250244140625
1772789955573889800,15.448889892578125,-1.0110015869140625,0.0251007080078125,-0.0181427001953125
1772789955593924900,15.4689248046875,-1.0037994384765625,0.0223541259765625,-0.0207061767578125
1772789955613959700,15.488959716796876,-0.986236572265625,0.02093505859375,-0.0180816650390625
1772789955633994500,15.508994384765625,-1.002593994140625,0.0275726318359375,-0.02008056640625
1772789955654029600,15.529029541015625,-1.00927734375,0.0279083251953125,-0.024444580078125
1772789955674063600,15.549063720703124,-1.00634765625,0.030181884765625,-0.0226593017578125
1772789955694098700,15.5690986328125,-0.9947662353515625,0.0216064453125,-0.0160064697265625
1772789955714133800,15.5891337890625,-0.986968994140625,0.0218658447265625,-0.0178375244140625
1772789955734168800,15.6091689453125,-0.993011474609375,0.02197265625,-0.02288818359375
1772789955754202600,15.62920263671875,-0.9962158203125,0.0264892578125,-0.0177154541015625
1772789955774237700,15.64923779296875,-1.0124664306640625,0.0313720703125,-0.027496337890625
1772789955794272800,15.669272705078125,-1.010009765625,0.03326416015625,-0.020782470703125
1772789955814307600,15.6893076171875,-0.99700927734375,0.0263671875,-0.01885986328125
1772789955834342700,15.7093427734375,-0.9886627197265625,0.0206451416015625,-0.022064208984375
1772789955854376400,15.72937646484375,-0.9798126220703125,0.0140380859375,-0.024932861328125
1772789955874411500,15.74941162109375,-0.999755859375,0.0214691162109375,-0.0341796875
1772789955894446600,15.769446533203125,-1.009429931640625,0.024658203125,-0.024627685546875
1772789955914481700,15.789481689453124,-1.0016937255859375,0.022979736328125,-0.022979736328125
1772789955934515700,15.809515625,-0.997589111328125,0.023956298828125,-0.0159912109375
1772789955954550800,15.82955078125,-1.0024261474609375,0.02301025390625,-0.0106658935546875
1772789955974585900,15.8495859375,-1.0032958984375,0.0218658447265625,-0.014739990234375
1772789955994620700,15.86962060546875,-1.0033416748046875,0.02325439453125,-0.01495361328125
1772789956014655500,15.889655517578126,-1.0038909912109375,0.0266571044921875,-0.005157470703125
1772789956034689800,15.909689697265625,-1.00927734375,0.029541015625,-0.0073089599609375
1772789956054724600,15.929724609375,-1.002899169921875,0.03045654296875,-0.0078125
1772789956074759700,15.949759765625,-1.0080413818359375,0.0337371826171875,-0.005401611328125
1772789956094794800,15.969794677734376,-1.01171875,0.0355987548828125,-0.0032806396484375
1772789956114828800,15.989828857421875,-1.002532958984375,0.031036376953125,-0.0041656494140625
1772789956134861800,16.00986181640625,-0.9973907470703125,0.029510498046875,-0.010833740234375
1772789956154896600,16.029896728515624,-0.9879302978515625,0.024444580078125,-0.004364013671875
1772789956174930700,16.0499306640625,-0.9899139404296875,0.0224761962890625,-0.0081329345703125
1772789956194965800,16.0699658203125,-1.001220703125,0.0264434814453125,-0.0152740478515625
1772789956215000800,16.090000732421874,-0.999969482421875,0.0274810791015625,-0.012725830078125
1772789956235036000,16.110035888671874,-1.0056610107421875,0.0256805419921875,-0.0167236328125
1772789956255070700,16.13007080078125,-0.9983673095703125,0.017547607421875,-0.020050048828125
1772789956275104800,16.150104736328124,-0.9906158447265625,0.0164031982421875,-0.0215911865234375
1772789956295139800,16.170139892578124,-1.0045928955078125,0.020111083984375,-0.027130126953125
1772789956315175000,16.1901748046875,-1.0140380859375,0.023712158203125,-0.021697998046875
1772789956335209700,16.210209716796875,-1.0106353759765625,0.0220947265625,-0.019561767578125
1772789956355243800,16.230243896484374,-0.9936981201171875,0.018157958984375,-0.013641357421875
1772789956375278600,16.250278564453126,-1.0046234130859375,0.0252838134765625,-0.0166015625
1772789956395313700,16.270313720703125,-1.0151214599609375,0.029022216796875,-0.0127410888671875
1772789956415348700,16.2903486328125,-1.0175018310546875,0.0306854248046875,-0.009735107421875
1772789956435383800,16.3103837890625,-1.0052032470703125,0.02862548828125,-0.0061798095703125
1772789956455417900,16.33041796875,-0.9933624267578125,0.0215911865234375,-0.00689697265625
1772789956475453000,16.350452880859375,-1.00390625,0.0218048095703125,-0.0183258056640625
1772789956495487700,16.37048779296875,-1.0075836181640625,0.023712158203125,-0.018096923828125
1772789956515522800,16.390522705078126,-0.998260498046875,0.0205841064453125,-0.0131378173828125
1772789956535556900,16.410556884765626,-0.9874725341796875,0.017425537109375,-0.013671875
1772789956555592000,16.430592041015625,-0.9935302734375,0.0194244384765625,-0.0169830322265625
1772789956575626800,16.450626708984377,-0.995330810546875,0.022003173828125,-0.0110931396484375
1772789956595661800,16.470661865234376,-0.9959259033203125,0.020904541015625,-0.01483154296875
1772789956615697000,16.49069677734375,-1.00091552734375,0.02325439453125,-0.014892578125
1772789956635730700,16.510730712890624,-1.003753662109375,0.02374267578125,-0.0121307373046875
1772789956655765800,16.530765869140627,-1.0015106201171875,0.0218658447265625,-0.014495849609375
1772789956675800800,16.55080078125,-0.99755859375,0.0169219970703125,-0.0213623046875
1772789956695836000,16.5708359375,-1.0007171630859375,0.0176239013671875,-0.0229034423828125
1772789956715870000,16.590869873046874,-1.007232666015625,0.0169677734375,-0.0179595947265625
1772789956735904800,16.61090478515625,-1.0024566650390625,0.016632080078125,-0.0207366943359375
1772789956755939800,16.63093994140625,-0.9956207275390625,0.0168304443359375,-0.0256195068359375
1772789956775974700,16.650974609375,-1.00518798828125,0.0177154541015625,-0.02032470703125
1772789956796009700,16.671009765625,-1.00689697265625,0.0194854736328125,-0.0165252685546875
1772789956816043800,16.691043701171875,-1.0021514892578125,0.018341064453125,-0.015106201171875
1772789956836078800,16.711078857421874,-0.9976654052734375,0.02001953125,-0.012908935546875
1772789956856114000,16.731114013671874,-1.001953125,0.0217132568359375,-0.0124664306640625
1772789956876148700,16.751148681640625,-0.99981689453125,0.0202484130859375,-0.0119171142578125
1772789956896183800,16.771183837890625,-1.0040130615234375,0.021759033203125,-0.0167236328125
1772789956916217900,16.7912177734375,-1.0068817138671875,0.0232391357421875,-0.0161590576171875
1772789956936253000,16.8112529296875,-1.0079498291015625,0.023101806640625,-0.014495849609375
1772789956956287700,16.831287841796875,-0.99871826171875,0.0200653076171875,-0.017852783203125
1772789956976322800,16.85132275390625,-0.9933319091796875,0.018280029296875,-0.017730712890625
1772789956996356600,16.871356689453126,-0.9896392822265625,0.0144195556640625,-0.0216217041015625
1772789957016391700,16.8913916015625,-0.9826812744140625,0.013671875,-0.0170135498046875
1772789957036426800,16.9114267578125,-0.9899139404296875,0.012542724609375,-0.022491455078125
1772789957056461800,16.9314619140625,-0.998504638671875,0.02081298828125,-0.0181427001953125
1772789957076496600,16.95149658203125,-0.9987030029296875,0.022674560546875,-0.0204315185546875
1772789957096530700,16.97153076171875,-1.0043792724609375,0.024688720703125,-0.015533447265625
1772789957116565800,16.991565673828124,-1.00030517578125,0.021820068359375,-0.0226593017578125
1772789957136600600,17.0116005859375,-1.0023193359375,0.0191650390625,-0.030609130859375
1772789957156635600,17.0316357421875,-1.0123748779296875,0.01898193359375,-0.0308990478515625
1772789957176669700,17.051669677734374,-1.006011962890625,0.014495849609375,-0.0266571044921875
1772789957196704500,17.07170458984375,-0.9898223876953125,0.0131378173828125,-0.025299072265625
1772789957216739600,17.091739501953125,-0.9993896484375,0.0119781494140625,-0.0313568115234375
1772789957236774700,17.111774658203124,-1.0125732421875,0.01385498046875,-0.04315185546875
1772789957256809500,17.1318095703125,-1.0117034912109375,0.024383544921875,-0.01068115234375
1772789957276843500,17.151843505859375,-1.0004119873046875,0.013916015625,-0.0198822021484375
1772789957296878600,17.171878662109375,-0.9918975830078125,0.0202484130859375,-0.0268096923828125
1772789957316913700,17.19191357421875,-1.013153076171875,0.0228424072265625,-0.0347900390625
1772789957336948700,17.21194873046875,-1.008544921875,0.0229644775390625,-0.0378875732421875
1772789957356982800,17.231982666015625,-0.997344970703125,0.0160980224609375,-0.03985595703125
1772789957377017600,17.252017578125,-0.99005126953125,0.0097198486328125,-0.0319976806640625
1772789957397052400,17.272052490234376,-0.99359130859375,0.0093536376953125,-0.0250701904296875
1772789957417087500,17.29208740234375,-0.991058349609375,0.0126190185546875,-0.0348358154296875
1772789957437122600,17.31212255859375,-1.004913330078125,0.02130126953125,-0.0229644775390625
1772789957457156600,17.332156494140627,-0.9993743896484375,0.024688720703125,-0.0275726318359375
1772789957477191700,17.352191650390626,-1.00262451171875,0.02435302734375,-0.0336761474609375
1772789957497226500,17.3722265625,-1.013275146484375,0.0276336669921875,-0.028045654296875
1772789957517261600,17.392261474609374,-1.0068206787109375,0.0238037109375,-0.0266571044921875
1772789957537295600,17.412295654296877,-1.0074310302734375,0.0202789306640625,-0.0296478271484375
1772789957557330700,17.43233056640625,-1.0047149658203125,0.0185089111328125,-0.03875732421875
1772789957577365800,17.45236572265625,-1.0030364990234375,0.018646240234375,-0.0402679443359375
1772789957597400600,17.472400634765624,-1.0074920654296875,0.0170745849609375,-0.032470703125
1772789957617435600,17.492435546875,-1.001129150390625,0.015289306640625,-0.0365753173828125
1772789957637469400,17.512469482421874,-1.000823974609375,0.01605224609375,-0.0400238037109375
1772789957657504500,17.53250439453125,-1.0017547607421875,0.0181121826171875,-0.0397796630859375
1772789957677539600,17.55253955078125,-0.99725341796875,0.0149078369140625,-0.0412445068359375
1772789957697574700,17.57257470703125,-0.9884796142578125,0.0096588134765625,-0.02606201171875
1772789957717608700,17.592608642578124,-0.9786376953125,0.0094146728515625,-0.0246734619140625
1772789957737643500,17.6126435546875,-0.9920654296875,0.0160064697265625,-0.0265655517578125
1772789957757678600,17.6326787109375,-1.00714111328125,0.021728515625,-0.026336669921875
1772789957777713700,17.652713623046875,-1.0068511962890625,0.023956298828125,-0.0207977294921875
1772789957797747700,17.672747802734374,-0.99395751953125,0.0213470458984375,-0.02557373046875
1772789957817782500,17.692782470703126,-0.997955322265625,0.0191802978515625,-0.023345947265625
1772789957837817600,17.712817626953125,-1.01104736328125,0.020599365234375,-0.028656005859375
1772789957857852700,17.732852783203125,-1.009552001953125,0.0195159912109375,-0.0275726318359375
1772789957877887500,17.752887451171876,-0.9945068359375,0.0155792236328125,-0.0273895263671875
1772789957897921500,17.772921630859376,-0.9965667724609375,0.0147247314453125,-0.0382843017578125
1772789957917956600,17.79295654296875,-1.0008544921875,0.0196380615234375,-0.037200927734375
1772789957937991700,17.81299169921875,-1.009857177734375,0.01739501953125,-0.0389251708984375
1772789957958026800,17.83302685546875,-1.013092041015625,0.018218994140625,-0.0406341552734375
1772789957978061600,17.8530615234375,-0.9970245361328125,0.0132293701171875,-0.036163330078125
1772789957998095600,17.873095703125,-1.000946044921875,0.013641357421875,-0.040130615234375
1772789958018130400,17.89313037109375,-0.9960784912109375,0.016357421875,-0.0366058349609375
1772789958038165500,17.91316552734375,-1.0052947998046875,0.017242431640625,-0.046417236328125
1772789958058200600,17.93320068359375,-1.00518798828125,0.0198516845703125,-0.0304412841796875
1772789958078235000,17.95323486328125,-0.9943084716796875,0.0129241943359375,-0.0328216552734375
1772789958098270000,17.97327001953125,-0.9901275634765625,0.0102081298828125,-0.0328521728515625
1772789958118305000,17.993304931640626,-0.9945831298828125,0.0129241943359375,-0.025177001953125
1772789958138340000,18.013340087890626,-1.0044403076171875,0.0200042724609375,-0.02630615234375
1772789958158374100,18.0333740234375,-1.009918212890625,0.022918701171875,-0.03240966796875
1772789958178409000,18.053408935546877,-1.004852294921875,0.0196990966796875,-0.0244598388671875
1772789958198443800,18.07344384765625,-1.0029144287109375,0.0195159912109375,-0.01226806640625
1772789958218478800,18.093478759765624,-0.999847412109375,0.01666259765625,-0.024993896484375
1772789958238514000,18.113513916015624,-1.003936767578125,0.016815185546875,-0.030426025390625
1772789958258548000,18.1335478515625,-0.9991302490234375,0.0181427001953125,-0.026092529296875
1772789958278583000,18.1535830078125,-0.9990234375,0.0169525146484375,-0.0225372314453125
1772789958298618000,18.1736181640625,-1.0037994384765625,0.0186767578125,-0.0341033935546875
1772789958318653000,18.19365283203125,-0.9894866943359375,0.0137786865234375,-0.031524658203125
1772789958338687000,18.21368701171875,-0.9948883056640625,0.0119476318359375,-0.0354156494140625
1772789958358722000,18.23372216796875,-0.9928436279296875,0.0075531005859375,-0.02978515625
1772789958378757000,18.253757080078124,-0.983856201171875,0.0081939697265625,-0.0327606201171875
1772789958398792000,18.2737919921875,-0.9960174560546875,0.0123443603515625,-0.026611328125
1772789958418827000,18.293826904296875,-1.0080413818359375,0.0177459716796875,-0.0220794677734375
1772789958438860800,18.31386083984375,-0.9997100830078125,0.0169677734375,-0.023345947265625
1772789958458896000,18.333895751953126,-1.009185791015625,0.0178375244140625,-0.027008056640625
1772789958478931000,18.353930908203125,-1.0101776123046875,0.0185394287109375,-0.0166168212890625
1772789958498966000,18.373966064453125,-1.0031585693359375,0.0110015869140625,-0.0205841064453125
1772789958519000000,18.394,-0.9856414794921875,0.006591796875,-0.0207366943359375
1772789958539035100,18.41403515625,-1.0073699951171875,0.01385498046875,-0.028411865234375
1772789958559070000,18.434070068359375,-1.016265869140625,0.0186004638671875,-0.0301055908203125
1772789958579105000,18.45410498046875,-1.0050048828125,0.0186767578125,-0.0231475830078125
1772789958599139800,18.474139892578126,-0.9916229248046875,0.00982666015625,-0.0198974609375
1772789958619174000,18.494173828125,-0.9909210205078125,0.00482177734375,-0.022216796875
1772789958639209000,18.514208984375,-0.9969482421875,0.007843017578125,-0.0259857177734375
1772789958659244000,18.534244140625,-0.9997100830078125,0.0115203857421875,-0.0255126953125
1772789958679278800,18.55427880859375,-0.9954681396484375,0.011932373046875,-0.0200042724609375
1772789958699313000,18.57431298828125,-0.9910430908203125,0.0118560791015625,-0.0190887451171875
1772789958719348000,18.594347900390623,-1.0042572021484375,0.0169830322265625,-0.022613525390625
1772789958739383000,18.614383056640627,-1.018096923828125,0.0189971923828125,-0.0291290283203125
1772789958759418000,18.634418212890626,-1.0029144287109375,0.0124969482421875,-0.01824951171875
1772789958779453000,18.654452880859374,-0.9970703125,0.0107421875,-0.0241241455078125
1772789958799487000,18.674487060546873,-0.996429443359375,0.0106201171875,-0.0254058837890625
1772789958819521800,18.694521728515625,-0.999267578125,0.01318359375,-0.02490234375
1772789958839556900,18.714556884765624,-0.998291015625,0.0127716064453125,-0.0284423828125
1772789958859592000,18.734592041015624,-1.0094451904296875,0.017181396484375,-0.03045654296875
1772789958879626000,18.7546259765625,-1.0029296875,0.0143280029296875,-0.03057861328125
1772789958899661000,18.7746611328125,-0.9932861328125,0.01080322265625,-0.0278167724609375
1772789958919696000,18.79469580078125,-1.0001220703125,0.0087738037109375,-0.036163330078125
1772789958939731000,18.81473095703125,-1.004638671875,0.0139007568359375,-0.037872314453125
1772789958959766000,18.83476611328125,-1.007904052734375,0.01544189453125,-0.0392913818359375
1772789958979800000,18.854800048828125,-1.0022125244140625,0.01416015625,-0.0356597900390625
1772789958999835100,18.874835205078124,-0.99871826171875,0.010894775390625,-0.033721923828125
1772789959019870000,18.894869873046876,-0.999176025390625,0.007598876953125,-0.0345458984375
1772789959039905000,18.914905029296875,-0.99310302734375,0.0084686279296875,-0.032135009765625
1772789959059938800,18.934938720703126,-1.0009307861328125,0.0136566162109375,-0.029205322265625
1772789959079974000,18.954973876953126,-1.0050201416015625,0.0156402587890625,-0.03033447265625
1772789959100009000,18.975009033203126,-1.006500244140625,0.0172119140625,-0.02764892578125
1772789959120044000,18.9950439453125,-0.9989471435546875,0.015289306640625,-0.03253173828125
1772789959140079000,19.0150791015625,-1.0051116943359375,0.0130615234375,-0.0306854248046875
1772789959160113000,19.03511279296875,-0.9947052001953125,0.0089111328125,-0.0283966064453125
1772789959180148000,19.05514794921875,-0.9866790771484375,0.0060577392578125,-0.0305938720703125
1772789959200183000,19.07518310546875,-0.997467041015625,0.0130157470703125,-0.0276336669921875
1772789959220217900,19.0952177734375,-1.0032958984375,0.014617919921875,-0.0303497314453125
1772789959240252000,19.115251953125,-1.000335693359375,0.0157928466796875,-0.0276031494140625
1772789959260286700,19.13528662109375,-0.99468994140625,0.0125732421875,-0.02032470703125
1772789959280321800,19.15532177734375,-0.9917755126953125,0.010589599609375,-0.0193328857421875
1772789959300356900,19.17535693359375,-0.9925537109375,0.010498046875,-0.028839111328125
1772789959320392000,19.195391845703124,-0.995819091796875,0.01611328125,-0.0266571044921875
1772789959340426000,19.215426025390624,-1.0102386474609375,0.0206146240234375,-0.032440185546875
1772789959360461000,19.2354609375,-1.006439208984375,0.0164947509765625,-0.0262298583984375
1772789959380496100,19.25549609375,-0.997833251953125,0.0141448974609375,-0.032684326171875
1772789959400530700,19.27553076171875,-0.9949188232421875,0.012939453125,-0.0378570556640625
1772789959420565000,19.29556494140625,-1.0122222900390625,0.014862060546875,-0.0349884033203125
1772789959440599800,19.315599853515625,-1.0097198486328125,0.0144500732421875,-0.0415191650390625
1772789959460635000,19.335634765625,-1.0014495849609375,0.0154876708984375,-0.038909912109375
1772789959480670000,19.355669921875,-0.9919586181640625,0.0170135498046875,-0.0357208251953125
1772789959500705000,19.375705078125,-0.9985198974609375,0.0186309814453125,-0.0328216552734375
1772789959520738800,19.39573876953125,-0.9950103759765625,0.0170745849609375,-0.0334930419921875
1772789959540774000,19.41577392578125,-0.997833251953125,0.02117919921875,-0.0267791748046875
1772789959560809000,19.43580908203125,-0.9915313720703125,0.021331787109375,-0.0223541259765625
1772789959580844000,19.455843994140626,-0.9922332763671875,0.019622802734375,-0.031494140625
1772789959600878000,19.475878173828125,-0.994415283203125,0.0212554931640625,-0.030487060546875
1772789959620913200,19.4959130859375,-1.0029296875,0.0216064453125,-0.02685546875
1772789959640947700,19.51594775390625,-0.9910888671875,0.0156097412109375,-0.0287017822265625
1772789959660982800,19.535982666015624,-0.9879608154296875,0.0140533447265625,-0.025482177734375
1772789959681017900,19.556017822265623,-0.9994049072265625,0.0181732177734375,-0.0231170654296875
1772789959701052000,19.576052001953126,-1.00982666015625,0.0248565673828125,-0.02752685546875
1772789959721087000,19.5960869140625,-1.0204620361328125,0.031524658203125,-0.0287628173828125
1772789959741122000,19.6161220703125,-1.0185394287109375,0.0318756103515625,-0.0198822021484375
1772789959761157000,19.6361572265625,-1.002685546875,0.0232696533203125,-0.0233001708984375
1772789959781191000,19.65619091796875,-0.99993896484375,0.0205841064453125,-0.030242919921875
1772789959801226000,19.67622607421875,-1.0003814697265625,0.020111083984375,-0.038909912109375
1772789959821261000,19.696260986328124,-1.0094146728515625,0.024658203125,-0.038482666015625
1772789959841296000,19.7162958984375,-1.01251220703125,0.0274200439453125,-0.0347442626953125
1772789959861331000,19.7363310546875,-1.005218505859375,0.0276336669921875,-0.0334320068359375
1772789959881364700,19.75636474609375,-0.9883270263671875,0.023590087890625,-0.0272064208984375
1772789959901399800,19.77639990234375,-1.0021514892578125,0.025360107421875,-0.0247039794921875
1772789959921435000,19.796434814453125,-0.998382568359375,0.0238800048828125,-0.02764892578125
1772789959941470000,19.816469970703125,-0.9901580810546875,0.0261383056640625,-0.0262451171875
1772789959961504000,19.83650390625,-0.9980926513671875,0.02593994140625,-0.027984619140625
1772789959981539000,19.8565390625,-0.9903411865234375,0.02783203125,-0.023406982421875
1772789960001574100,19.87657421875,-1.00726318359375,0.0294647216796875,-0.0276031494140625
1772789960021608700,19.896608642578126,-0.9967041015625,0.0271148681640625,-0.0234375
1772789960041643000,19.91664306640625,-0.9899749755859375,0.0216827392578125,-0.0261383056640625
1772789960061677800,19.936677734375,-1.0076904296875,0.024871826171875,-0.0344696044921875
1772789960081712000,19.956712158203125,-1.0093231201171875,0.02789306640625,-0.029388427734375
1772789960101747200,19.976747314453124,-1.004913330078125,0.0272979736328125,-0.0321502685546875
1772789960121782000,19.996781982421876,-1.007415771484375,0.0272064208984375,-0.026611328125
1772789960141816000,20.016816162109375,-1.0112457275390625,0.027313232421875,-0.0344390869140625
1772789960161851100,20.03685107421875,-1.003753662109375,0.0263824462890625,-0.035797119140625
1772789960181886200,20.05688623046875,-1.0126495361328125,0.02899169921875,-0.033538818359375
1772789960201921300,20.07692138671875,-1.00726318359375,0.0248565673828125,-0.0325775146484375
1772789960221955000,20.096955078125,-0.9869537353515625,0.02142333984375,-0.0271148681640625
1772789960241990100,20.116990234375,-0.987823486328125,0.0250244140625,-0.029541015625
1772789960262025200,20.137025146484376,-0.9981842041015625,0.0329742431640625,-0.0295562744140625
1772789960282060000,20.15706005859375,-1.0068359375,0.0382843017578125,-0.0302886962890625
1772789960302095000,20.17709521484375,-0.9989013671875,0.036529541015625,-0.0191650390625
1772789960322129200,20.197129150390627,-0.992462158203125,0.0352020263671875,-0.0168914794921875
1772789960342164200,20.217164306640626,-0.9871063232421875,0.0350799560546875,-0.0203704833984375
1772789960362199000,20.237198974609374,-0.9928436279296875,0.033416748046875,-0.02667236328125
1772789960382234000,20.257234130859374,-0.9983062744140625,0.0355072021484375,-0.0272369384765625
1772789960402268200,20.27726806640625,-1.0033111572265625,0.035308837890625,-0.0244903564453125
1772789960422303200,20.29730322265625,-0.9982757568359375,0.028839111328125,-0.0311126708984375
1772789960442338300,20.31733837890625,-0.993194580078125,0.022247314453125,-0.0293121337890625
1772789960462373400,20.337373291015624,-0.995574951171875,0.01983642578125,-0.030487060546875
1772789960482408200,20.357408203125,-1.002197265625,0.0228118896484375,-0.036773681640625
1772789960502442200,20.377442138671874,-1.0172271728515625,0.02825927734375,-0.03460693359375
1772789960522477000,20.39747705078125,-1.0183258056640625,0.034210205078125,-0.0279083251953125
1772789960542512000,20.41751220703125,-1.015411376953125,0.036376953125,-0.0254669189453125
1772789960562548200,20.43754833984375,-1.0134429931640625,0.035797119140625,-0.020172119140625
1772789960582583300,20.457583251953125,-1.0160675048828125,0.0355987548828125,-0.0227813720703125
1772789960602617300,20.477617431640624,-1.0046234130859375,0.03240966796875,-0.019012451171875
1772789960622652400,20.49765234375,-1.0084381103515625,0.036407470703125,-0.017303466796875
1772789960642687000,20.51768701171875,-0.99932861328125,0.034912109375,-0.018646240234375
1772789960662722000,20.53772216796875,-0.9924163818359375,0.0317535400390625,-0.033233642578125
1772789960682757000,20.557757080078126,-0.9841156005859375,0.0286865234375,-0.0219879150390625
1772789960702791200,20.577791259765625,-0.9769744873046875,0.0252532958984375,-0.0177154541015625
1772789960722826200,20.597826171875,-0.9814910888671875,0.0283203125,-0.0308837890625
1772789960742861300,20.617861328125,-0.989990234375,0.03131103515625,-0.022003173828125
1772789960762896100,20.637896240234376,-0.9888916015625,0.029815673828125,-0.0255584716796875
1772789960782930200,20.65793017578125,-0.9882049560546875,0.0319061279296875,-0.0193023681640625
1772789960802965200,20.67796533203125,-0.9962005615234375,0.0314788818359375,-0.0259857177734375
1772789960823000300,20.698000244140626,-1.000030517578125,0.0308837890625,-0.0258636474609375
1772789960843035100,20.71803515625,-1.0065765380859375,0.03125,-0.0313568115234375
1772789960863070200,20.7380703125,-0.9888458251953125,0.0260772705078125,-0.0074310302734375
1772789960883104000,20.75810400390625,-1.012908935546875,0.02362060546875,-0.0263214111328125
1772789960903139000,20.77813916015625,-1.0068817138671875,0.032867431640625,-0.019989013671875
1772789960923174100,20.798174072265624,-1.023590087890625,0.03082275390625,-0.0080108642578125
1772789960943209200,20.818209228515624,-1.0157012939453125,0.03460693359375,0.0054931640625
1772789960963243300,20.8382431640625,-1.0238037109375,0.03265380859375,0.0076141357421875
1772789960983278300,20.8582783203125,-1.0198211669921875,0.0443878173828125,-0.0335540771484375
1772789961003313200,20.878313232421874,-1.0116119384765625,0.0419464111328125,-0.0468597412109375
1772789961023348000,20.898347900390625,-1.0252227783203125,0.0412750244140625,-0.023681640625
1772789961043383000,20.918383056640625,-1.0387420654296875,0.039459228515625,-0.02789306640625
1772789961063417000,20.9384169921875,-0.999359130859375,0.029541015625,-0.043060302734375
1772789961083452700,20.95845263671875,-0.9642333984375,0.0152740478515625,-0.037994384765625
1772789961103487700,20.97848779296875,-0.98046875,0.013763427734375,-0.0571441650390625
1772789961123522800,20.998522705078123,-0.9815826416015625,0.0127410888671875,-0.0417022705078125
1772789961143556900,21.018556884765626,-0.9904632568359375,0.0137481689453125,-0.042755126953125
1772789961163591700,21.038591796875,-1.0007171630859375,0.01593017578125,-0.043182373046875
1772789961183626800,21.058626708984374,-1.003326416015625,0.0251007080078125,-0.0286407470703125
1772789961203661600,21.07866162109375,-1.0092620849609375,0.0295257568359375,-0.031097412109375
1772789961223696600,21.098696533203125,-1.01434326171875,0.0446929931640625,-0.0346832275390625
1772789961243730700,21.118730712890624,-1.015228271484375,0.0428924560546875,-0.0337982177734375
1772789961263765800,21.138765869140624,-0.9862823486328125,0.0221710205078125,-0.04437255859375
1772789961283800600,21.158800537109375,-0.96453857421875,0.0082244873046875,-0.0419921875
1772789961303835600,21.178835693359375,-0.95208740234375,-0.0001983642578125,-0.0249786376953125
1772789961323869700,21.19886962890625,-0.9715118408203125,0.00360107421875,-0.0287322998046875
1772789961343904800,21.21890478515625,-0.99505615234375,0.0193023681640625,-0.0161895751953125
1772789961363939800,21.23893994140625,-1.0052337646484375,0.0302734375,-0.0006561279296875
1772789961383975000,21.258974853515625,-1.0279083251953125,0.04052734375,-0.0069732666015625
1772789961404009700,21.279009765625,-1.01153564453125,0.0413818359375,-0.002532958984375
1772789961424043800,21.299043701171875,-1.005096435546875,0.03997802734375,0.0028839111328125
1772789961444078600,21.31907861328125,-0.9929656982421875,0.033721923828125,-0.00518798828125
1772789961464113700,21.33911376953125,-0.9933929443359375,0.029205322265625,-0.0160980224609375
1772789961484148700,21.359148681640626,-0.9924774169921875,0.0284271240234375,-0.026947021484375
1772789961504182800,21.379182861328125,-0.9971466064453125,0.0373077392578125,-0.03985595703125
1772789961524217600,21.399217529296877,-1.0157470703125,0.038787841796875,-0.0347900390625
1772789961544252700,21.419252685546876,-1.0127716064453125,0.029083251953125,-0.0319671630859375
1772789961564287700,21.439287841796876,-1.00445556640625,0.025604248046875,-0.034942626953125
1772789961584321800,21.45932177734375,-1.014801025390625,0.0307464599609375,-0.036529541015625
1772789961604356900,21.47935693359375,-1.0265655517578125,0.032806396484375,-0.038299560546875
1772789961624391700,21.4993916015625,-1.0169677734375,0.0317840576171875,-0.02984619140625
1772789961644426800,21.5194267578125,-0.9989013671875,0.023284912109375,-0.0296478271484375
1772789961664461600,21.539461669921874,-0.99591064453125,0.0250244140625,-0.0325927734375
1772789961684495600,21.55949560546875,-1.0051727294921875,0.0293731689453125,-0.0387725830078125
1772789961704530700,21.57953076171875,-1.0118865966796875,0.03271484375,-0.045257568359375
1772789961724565800,21.599565673828124,-1.00750732421875,0.025238037109375,-0.0223388671875
1772789961744600800,21.619600830078124,-1.0036773681640625,0.0243377685546875,-0.0078125
1772789961764634600,21.639634521484375,-1.01348876953125,0.0292816162109375,-0.0107269287109375
1772789961784669700,21.659669677734374,-1.0139312744140625,0.027618408203125,-0.0124969482421875
1772789961804704800,21.679704833984374,-0.9988250732421875,0.02239990234375,-0.0115966796875
1772789961824739600,21.699739501953125,-0.9843902587890625,0.0129547119140625,-0.00787353515625
1772789961844774700,21.719774658203125,-0.9776458740234375,0.0115203857421875,-0.0130157470703125
1772789961864808700,21.73980859375,-0.992706298828125,0.0151824951171875,-0.02459716796875
1772789961884843800,21.75984375,-1.00689697265625,0.014068603515625,-0.04193115234375
1772789961904878600,21.779878662109375,-1.007568359375,0.01116943359375,-0.026397705078125
1772789961924913700,21.79991357421875,-0.9993896484375,0.005859375,-0.0175323486328125
1772789961944947700,21.81994775390625,-0.995697021484375,0.0041351318359375,-0.0166168212890625
1772789961964982800,21.839982666015626,-1.004547119140625,0.0019378662109375,-0.0134735107421875
1772789961985017900,21.860017822265625,-1.002166748046875,0.0020904541015625,-0.0211639404296875
1772789962005053000,21.880052978515625,-0.984832763671875,0.001373291015625,-0.006317138671875
1772789962025086700,21.900086669921876,-0.9872283935546875,0.000457763671875,-0.0009307861328125
1772789962045121800,21.920121826171876,-0.983245849609375,-0.0051422119140625,0.0062103271484375
1772789962065156600,21.940156494140624,-0.990692138671875,-0.0011444091796875,0.0047454833984375
1772789962085191700,21.960191650390627,-1.0013275146484375,0.00323486328125,0.0009002685546875
1772789962105226800,21.980226806640626,-1.018157958984375,0.003631591796875,-0.0107421875
1772789962125260800,22.0002607421875,-1.0040130615234375,-0.00054931640625,-0.0098419189453125
1772789962145296000,22.0202958984375,-1.00933837890625,-0.0037689208984375,-0.0150299072265625
1772789962165331000,22.0403310546875,-1.0155181884765625,-0.0033111572265625,-0.0177154541015625
1772789962185366000,22.060365966796876,-1.0109710693359375,-0.0047760009765625,-0.0207977294921875
1772789962205399800,22.08039990234375,-1.010650634765625,-0.008026123046875,-0.0221405029296875
1772789962225435000,22.100434814453124,-1.01007080078125,-0.0079345703125,-0.0245819091796875
1772789962245469700,22.1204697265625,-1.0041656494140625,-0.0114593505859375,-0.021820068359375
1772789962265504800,22.1405048828125,-0.986724853515625,-0.0159759521484375,-0.0208740234375
1772789962285538800,22.160538818359374,-0.978118896484375,-0.0211639404296875,-0.01702880859375
1772789962305573600,22.18057373046875,-0.9775543212890625,-0.019989013671875,-0.015167236328125
1772789962325608700,22.200608642578125,-0.9776611328125,-0.02020263671875,-0.0082855224609375
1772789962345643800,22.220643798828124,-0.9874114990234375,-0.0182037353515625,-0.015960693359375
1772789962365677800,22.240677734375,-0.9891204833984375,-0.01678466796875,-0.017608642578125
1772789962385713000,22.260712890625,-1.008453369140625,-0.0110321044921875,-0.019744873046875
1772789962405748000,22.280748046875,-1.008941650390625,-0.014739990234375,-0.02825927734375
1772789962425782800,22.30078271484375,-1.00079345703125,-0.01812744140625,-0.0349884033203125
1772789962445817600,22.320817626953126,-1.0014801025390625,-0.0165557861328125,-0.0304718017578125
1772789962465852000,22.340851806640625,-1.015716552734375,-0.013427734375,-0.046875
1772789962485886700,22.36088671875,-1.024200439453125,-0.00762939453125,-0.050262451171875
1772789962505921800,22.380921875,-1.0269927978515625,-0.00555419921875,-0.0415802001953125
1772789962525956900,22.400956787109376,-1.018218994140625,-0.0070037841796875,-0.0349273681640625
1772789962545990700,22.42099072265625,-1.010467529296875,-0.0115814208984375,-0.04107666015625
1772789962566025700,22.441025634765627,-0.9990997314453125,-0.0110321044921875,-0.0351409912109375
1772789962586060800,22.461060791015626,-1.0030670166015625,-0.00750732421875,-0.0384063720703125
1772789962606096000,22.481095947265626,-0.9967193603515625,-0.0055694580078125,-0.032073974609375
1772789962626130000,22.5011298828125,-0.9896697998046875,-0.007232666015625,-0.02923583984375
1772789962646165000,22.5211650390625,-0.9817962646484375,-0.0090179443359375,-0.015380859375
1772789962666199800,22.54119970703125,-0.973114013671875,-0.013336181640625,-0.0091705322265625
1772789962686234600,22.561234619140624,-0.9684295654296875,-0.0163421630859375,-0.0157012939453125
1772789962706269700,22.581269775390624,-0.9781646728515625,-0.01361083984375,-0.0099334716796875
1772789962726303700,22.6013037109375,-0.9951171875,-0.0089569091796875,-0.010498046875
1772789962746338800,22.6213388671875,-0.99560546875,-0.0099945068359375,-0.0083770751953125
1772789962766374000,22.641373779296874,-0.97808837890625,-0.0195159912109375,-0.0009613037109375
1772789962786409000,22.661408935546874,-0.9789276123046875,-0.0222320556640625,-0.0079498291015625
1772789962806442800,22.68144287109375,-0.9814605712890625,-0.026336669921875,-0.0101470947265625
1772789962826477800,22.701477783203124,-0.9808349609375,-0.0277252197265625,-0.0120391845703125
1772789962846513000,22.721512939453124,-0.997711181640625,-0.01934814453125,-0.014129638671875
1772789962866547700,22.741547607421875,-1.0120849609375,-0.0102996826171875,-0.0044403076171875
1772789962886582000,22.76158203125,-1.03277587890625,-0.002838134765625,-0.0059814453125
1772789962906616600,22.781616455078126,-1.029327392578125,0.0012664794921875,-0.009735107421875
1772789962926651600,22.801651611328126,-1.0273284912109375,0.0024261474609375,-0.0187225341796875
1772789962946686700,22.821686767578125,-1.0175933837890625,0.0026092529296875,-0.0096893310546875
1772789962966721800,22.8417216796875,-1.00738525390625,0.0019073486328125,-0.0053863525390625
1772789962986755800,22.861755859375,-1.004425048828125,0.00054931640625,-0.0105743408203125
1772789963006791000,22.881791015625,-1.0075836181640625,0.0055389404296875,-0.016998291015625
1772789963026826000,22.901825927734375,-1.01171875,0.0058441162109375,-0.0139007568359375
1772789963046860800,22.92186083984375,-0.999481201171875,-0.00030517578125,-0.003875732421875
1772789963066894800,22.941894775390626,-0.9805755615234375,-0.0099334716796875,-0.003021240234375
1772789963086929400,22.961929443359374,-0.98895263671875,-0.011322021484375,-0.010162353515625
1772789963106964200,22.981964111328125,-1.0076446533203125,-0.0020294189453125,-0.012664794921875
1772789963126999300,23.001999267578125,-1.0089263916015625,-0.001190185546875,-0.0081329345703125
1772789963147033000,23.022033203125,-1.0032501220703125,-0.0013427734375,-0.0115203857421875
1772789963167068200,23.042068115234375,-0.9891815185546875,-0.0025787353515625,-0.007232666015625
1772789963187103200,23.062103271484375,-0.9835052490234375,-0.0019378662109375,-0.014007568359375
1772789963207138300,23.08213818359375,-0.986541748046875,-0.00103759765625,-0.0168304443359375
1772789963227172400,23.10217236328125,-0.9932403564453125,-0.000885009765625,-0.0127105712890625
1772789963247207400,23.12220751953125,-0.99713134765625,0.0019683837890625,-0.012298583984375
1772789963267242200,23.1422421875,-0.9887542724609375,-0.0016021728515625,-0.01336669921875
1772789963287277300,23.16227734375,-1.00518798828125,0.000579833984375,-0.0167999267578125
1772789963307312000,23.18231201171875,-1.0047149658203125,0.0005645751953125,-0.0059814453125
1772789963327346400,23.202346435546875,-0.9961090087890625,0.0000457763671875,0.0029144287109375
1772789963347381200,23.22238134765625,-0.987823486328125,-0.0003814697265625,0.002716064453125
1772789963367416300,23.242416259765626,-0.9921722412109375,0.0085906982421875,0.002197265625
1772789963387451400,23.262451416015626,-1.0245208740234375,0.0181732177734375,-0.0137939453125
1772789963407485200,23.282485107421873,-1.0118560791015625,0.0133819580078125,-0.0076446533203125
1772789963427520300,23.302520263671877,-0.9833831787109375,0.0035858154296875,-0.0043182373046875
1772789963447555300,23.322555419921876,-0.9990692138671875,-0.00146484375,-0.0073394775390625
1772789963467590400,23.34259033203125,-1.01513671875,0.002838134765625,-0.008697509765625
1772789963487624400,23.36262451171875,-1.0097808837890625,0.004058837890625,-0.0102996826171875
1772789963507659300,23.3826591796875,-1.0196990966796875,0.009033203125,-0.0143585205078125
1772789963527694300,23.4026943359375,-1.02923583984375,0.01275634765625,-0.015960693359375
1772789963547729200,23.422729248046874,-1.028594970703125,0.013427734375,-0.0121917724609375
1772789963567763500,23.442763427734373,-0.9998626708984375,0.006561279296875,-0.003326416015625
1772789963587798300,23.46279833984375,-0.9977874755859375,0.008392333984375,-0.008026123046875
1772789963607833300,23.482833251953124,-0.9999542236328125,0.0105743408203125,-0.0094451904296875
1772789963627868400,23.502868408203124,-1.0028533935546875,0.0137939453125,-0.0158843994140625
1772789963647903200,23.5229033203125,-0.996856689453125,0.017791748046875,-0.014404296875
1772789963667937300,23.542937255859375,-0.9964599609375,0.017974853515625,-0.0105133056640625
1772789963687972400,23.562972412109374,-0.9982757568359375,0.0143585205078125,-0.0123748779296875
1772789963708007400,23.58300732421875,-0.9952850341796875,0.012939453125,-0.01776123046875
1772789963728042200,23.603042236328125,-1.0077362060546875,0.010894775390625,-0.01904296875
1772789963748076300,23.623076171875,-1.0045318603515625,0.0077667236328125,-0.0176544189453125
1772789963768111000,23.643111083984376,-0.9897918701171875,0.0018768310546875,-0.0228271484375
1772789963788146200,23.663146240234376,-0.987335205078125,0.001251220703125,-0.011199951171875
1772789963808181200,23.68318115234375,-0.995941162109375,0.00384521484375,-0.01153564453125
1772789963828215300,23.70321533203125,-0.995758056640625,0.005401611328125,-0.0146026611328125
1772789963848250400,23.72325048828125,-0.9976043701171875,0.010223388671875,-0.0154266357421875
1772789963868285200,23.74328515625,-0.9987945556640625,0.0115203857421875,-0.00714111328125
1772789963888320300,23.7633203125,-1.0006561279296875,0.0125885009765625,-0.0089263916015625
1772789963908354300,23.783354248046876,-1.005889892578125,0.0153656005859375,-0.0106353759765625
1772789963928389400,23.803389404296876,-1.0167236328125,0.0173797607421875,-0.002410888671875
1772789963948424400,23.823424560546876,-1.0098876953125,0.0145111083984375,-0.0027923583984375
1772789963968459300,23.843459228515623,-1.004180908203125,0.0151214599609375,-0.0047454833984375
1772789963988493300,23.863493408203126,-1.0052337646484375,0.0156097412109375,-0.002197265625
1772789964008528100,23.883528076171874,-1.019256591796875,0.025970458984375,-0.0155487060546875
1772789964028563200,23.903563232421874,-1.0286865234375,0.030975341796875,-0.017791748046875
1772789964048598300,23.923598388671873,-1.0130157470703125,0.023162841796875,-0.0144195556640625
1772789964068633300,23.94363330078125,-0.9963531494140625,0.0118865966796875,-0.0268402099609375
1772789964088668200,23.963668212890624,-0.992706298828125,0.007171630859375,-0.03387451171875
1772789964108703200,23.983703125,-0.9954833984375,0.0104217529296875,-0.032867431640625
1772789964128738000,24.003738037109375,-0.9978790283203125,0.012969970703125,-0.0336761474609375
1772789964148773000,24.023773193359375,-1.003265380859375,0.0144195556640625,-0.0286865234375
1772789964168807200,24.04380712890625,-1.0010986328125,0.015289306640625,-0.0201568603515625
1772789964188842000,24.063842041015626,-1.0015411376953125,0.01641845703125,-0.023834228515625
1772789964208877000,24.083876953125,-0.9948883056640625,0.0159149169921875,-0.0139312744140625
1772789964228912000,24.103912109375,-0.9973297119140625,0.01190185546875,-0.014862060546875
1772789964248946200,24.1239462890625,-0.999969482421875,0.0139007568359375,-0.0174102783203125
1772789964268981200,24.143981201171876,-1.00360107421875,0.017730712890625,-0.015350341796875
1772789964289016300,24.164016357421875,-1.0025787353515625,0.0183563232421875,-0.0092010498046875
1772789964309051400,24.184051513671875,-1.003692626953125,0.0166473388671875,-0.008514404296875
1772789964329085200,24.204085205078126,-0.996856689453125,0.013702392578125,-0.0094757080078125
1772789964349120300,24.224120361328126,-0.9918060302734375,0.0134124755859375,-0.0169525146484375
1772789964369155000,24.244155029296873,-1.0077667236328125,0.017486572265625,-0.0260009765625
1772789964389190100,24.264190185546877,-1.00543212890625,0.0156402587890625,-0.022125244140625
1772789964409224200,24.28422412109375,-0.991790771484375,0.011260986328125,-0.0212554931640625
1772789964429259000,24.304259033203124,-0.978668212890625,0.0081787109375,-0.018096923828125
1772789964449294000,24.324294189453123,-0.9955902099609375,0.01361083984375,-0.0216827392578125
1772789964469329200,24.3443291015625,-1.007171630859375,0.01812744140625,-0.0229949951171875
1772789964489363200,24.36436328125,-0.9967803955078125,0.015869140625,-0.0142974853515625
1772789964509398300,24.384398193359374,-0.9994354248046875,0.01470947265625,-0.02197265625
1772789964529433300,24.404433349609373,-1.0052642822265625,0.0140228271484375,-0.01751708984375
1772789964549468200,24.42446826171875,-1.00469970703125,0.0126953125,-0.0159912109375
1772789964569503000,24.4445029296875,-1.0027008056640625,0.0137176513671875,-0.0181732177734375
1772789964589537000,24.464537109375,-1.01361083984375,0.016448974609375,-0.022552490234375
1772789964609572000,24.484572021484375,-1.0174713134765625,0.0212860107421875,-0.0167236328125
1772789964629607200,24.504607177734375,-1.0129547119140625,0.0204315185546875,-0.01422119140625
1772789964649642200,24.524642333984374,-1.0025177001953125,0.0163421630859375,-0.011871337890625
1772789964669676000,24.544676025390626,-0.9909515380859375,0.0142364501953125,-0.0141754150390625
1772789964689711000,24.564711181640625,-0.998504638671875,0.01739501953125,-0.015594482421875
1772789964709746200,24.58474609375,-1.0027313232421875,0.0173492431640625,-0.014404296875
1772789964729781200,24.60478125,-0.9975738525390625,0.019439697265625,-0.0178070068359375
1772789964749815300,24.624815185546876,-0.9983062744140625,0.0188140869140625,-0.0190887451171875
1772789964769850400,24.644850341796875,-0.9979705810546875,0.0180816650390625,-0.0214080810546875
1772789964789885200,24.66488525390625,-0.99932861328125,0.0165863037109375,-0.02423095703125
1772789964809920000,24.684919921875,-0.9977264404296875,0.0135955810546875,-0.02264404296875
1772789964829954000,24.7049541015625,-0.992889404296875,0.01434326171875,-0.0157623291015625
1772789964849989000,24.724989013671873,-0.993377685546875,0.0136566162109375,-0.0219573974609375
1772789964870024200,24.745024169921876,-1.0015411376953125,0.0174713134765625,-0.0250701904296875
1772789964890059300,24.765059326171876,-1.0168914794921875,0.0205230712890625,-0.0222625732421875
1772789964910093000,24.785093017578124,-1.01226806640625,0.0184173583984375,-0.0212860107421875
1772789964930128100,24.805128173828123,-1.0048675537109375,0.01422119140625,-0.0257720947265625
1772789964950163200,24.8251630859375,-1.012481689453125,0.0133056640625,-0.0291290283203125
1772789964970198300,24.8451982421875,-1.0079193115234375,0.011322021484375,-0.0269317626953125
1772789964990232300,24.865232421875,-1.001373291015625,0.0101470947265625,-0.0295867919921875
1772789965010267100,24.88526708984375,-0.9980926513671875,0.008209228515625,-0.0217742919921875
1772789965030302200,24.90530224609375,-0.9937286376953125,0.0072021484375,-0.0217437744140625
1772789965050337000,24.9253369140625,-0.9962005615234375,0.0102691650390625,-0.0204010009765625
1772789965070371000,24.94537109375,-0.9997711181640625,0.0146636962890625,-0.0142059326171875
1772789965090405600,24.965405517578127,-0.9990692138671875,0.0124359130859375,-0.0109710693359375
1772789965110440700,24.985440673828126,-0.9933319091796875,0.0115509033203125,-0.0089874267578125
1772789965130475800,25.005475830078126,-0.9906768798828125,0.00970458984375,-0.0131683349609375
1772789965150510800,25.0255107421875,-0.987823486328125,0.0084381103515625,-0.0163421630859375
1772789965170545000,25.045544921875,-0.999664306640625,0.010589599609375,-0.013519287109375
1772789965190580000,25.065580078125,-1.00433349609375,0.0099334716796875,-0.01055908203125
1772789965210614800,25.08561474609375,-0.9963531494140625,0.0074310302734375,-0.0136871337890625
1772789965230649600,25.105649658203124,-1.00030517578125,0.00970458984375,-0.0194244384765625
1772789965250684000,25.125683837890627,-1.0114898681640625,0.010498046875,-0.0173492431640625
1772789965270718700,25.14571875,-1.002593994140625,0.0055694580078125,-0.0144500732421875
1772789965290753800,25.16575390625,-1.0005035400390625,0.0051727294921875,-0.0186920166015625
1772789965310788900,25.185788818359374,-0.9992218017578125,0.005584716796875,-0.0134735107421875
1772789965330822700,25.20582275390625,-1.0083160400390625,0.0069732666015625,-0.0191497802734375
1772789965350857700,25.225857666015624,-1.0157470703125,0.0124664306640625,-0.02349853515625
1772789965370892800,25.245892822265624,-1.00604248046875,0.013702392578125,-0.0162353515625
1772789965390928000,25.265927978515624,-1.0001678466796875,0.0104217529296875,-0.0199737548828125
1772789965410962000,25.2859619140625,-0.9956207275390625,0.0063629150390625,-0.0225830078125
1772789965430997000,25.3059970703125,-0.995941162109375,0.0017242431640625,-0.0212249755859375
1772789965451031800,25.32603173828125,-0.98687744140625,0.00128173828125,-0.0196380615234375
1772789965471066600,25.346066650390625,-0.9924163818359375,0.0059967041015625,-0.022003173828125
1772789965491100700,25.3661005859375,-1.0015106201171875,0.0082855224609375,-0.0183258056640625
1772789965511135700,25.3861357421875,-1.0009307861328125,0.0092926025390625,-0.0192413330078125
1772789965531170800,25.4061708984375,-0.9994354248046875,0.0078887939453125,-0.019561767578125
1772789965551206000,25.426205810546875,-0.9941864013671875,0.0092010498046875,-0.014862060546875
1772789965571239700,25.44623974609375,-0.997161865234375,0.00775146484375,-0.019683837890625
1772789965591274800,25.466274658203126,-0.991455078125,0.004974365234375,-0.0227813720703125
1772789965611309800,25.486309814453126,-0.99603271484375,0.00579833984375,-0.0203704833984375
1772789965631345000,25.506344970703125,-1.00238037109375,0.0059356689453125,-0.0214080810546875
1772789965651379000,25.52637890625,-0.993804931640625,0.00115966796875,-0.0188140869140625
1772789965671414000,25.5464140625,-0.99609375,0.0008087158203125,-0.0237884521484375
1772789965691448600,25.566448486328124,-1.01025390625,0.0057525634765625,-0.018463134765625
1772789965711483600,25.586483642578123,-1.0118255615234375,0.0087127685546875,-0.0198211669921875
1772789965731518700,25.606518798828127,-1.017242431640625,0.012420654296875,-0.0218353271484375
1772789965751552800,25.626552734375,-1.009765625,0.00885009765625,-0.0130157470703125
1772789965771587800,25.646587890625,-0.9923095703125,0.00189208984375,-0.01171875
1772789965791623000,25.666622802734373,-0.988922119140625,-0.0029144287109375,-0.0184173583984375
1772789965811656700,25.68665673828125,-0.9911956787109375,-0.000518798828125,-0.019500732421875
