time,seconds_elapsed,z,y,x
1772789940187180300,0.06218017578125,0.04743489250540733,0.040164995938539505,0.07395278662443161
1772789940207215400,0.08221533203125,0.039329830557107925,-0.1294970065355301,-0.023964188992977142
1772789940227249400,0.10224951171875,0.027690216898918152,-0.14434120059013367,-0.04198659956455231
1772789940247284500,0.122284423828125,0.05092523247003555,-0.03916284814476967,-0.009029713459312916
1772789940267319600,0.142319580078125,0.09017916023731232,0.008330633863806725,0.030288929119706154
1772789940287354000,0.16235400390625,0.08314815163612366,-0.04177940636873245,0.031071633100509644
1772789940307389200,0.18238916015625,0.0408765934407711,-0.1402500569820404,-0.004252535756677389
1772789940327423200,0.20242333984375,0.02003629319369793,-0.12929967045783997,-0.013038037344813347
1772789940347458300,0.222458251953125,0.04595151171088219,-0.0968937873840332,-0.0265360027551651
1772789940367493400,0.242493408203125,0.07001610100269318,-0.10931743681430817,-0.004267449490725994
1772789940387528400,0.262528564453125,0.058161042630672455,-0.04890469089150429,-0.012219115160405636
1772789940407563500,0.2825634765625,0.07424120604991913,-0.012583702802658081,-0.03133155778050423
1772789940427597300,0.302597412109375,0.07683911919593811,-0.05078355222940445,-0.05841324105858803
1772789940447632400,0.32263232421875,0.05317533761262894,-0.1298578679561615,-0.08584726601839066
1772789940467667500,0.34266748046875,0.0349595807492733,-0.16316016018390656,-0.13046613335609436
1772789940487702300,0.362702392578125,0.044735245406627655,-0.12584075331687927,-0.1073288545012474
1772789940507736300,0.382736328125,0.03756149113178253,-0.07651155441999435,-0.044024448841810226
1772789940527771100,0.402771240234375,0.023608656600117683,0.003591006388887763,-0.02755413018167019
1772789940547806200,0.42280615234375,-0.014740063808858395,0.004077832214534283,-0.019216038286685944
1772789940567841300,0.44284130859375,-0.030907582491636276,-0.059416189789772034,-0.02304220199584961
1772789940587876400,0.46287646484375,-0.025655562058091164,-0.05200674384832382,-0.034339066594839096
1772789940607910400,0.482910400390625,0.01501277182251215,-0.14320430159568787,-0.04253441095352173
1772789940627945500,0.502945556640625,0.05431889742612839,-0.22752583026885986,-0.02015134133398533
1772789940647980500,0.52298046875,0.059185825288295746,-0.2821560502052307,-0.007201720029115677
1772789940668015400,0.543015380859375,0.09683573246002197,-0.22616788744926453,0.006962302140891552
1772789940688050200,0.56305029296875,0.15857766568660736,0.16637086868286133,0.19629760086536407
1772789940708084200,0.583084228515625,0.3755999803543091,0.3141576647758484,0.5363036394119263
1772789940728119300,0.603119384765625,0.4346119165420532,0.41203629970550537,0.7569678425788879
1772789940748154400,0.623154296875,0.29031652212142944,0.5458531975746155,0.5906795263290405
1772789940768189400,0.643189453125,0.25758999586105347,0.3068307638168335,0.07323905825614929
1772789940788223200,0.66322314453125,0.18242120742797852,-0.09118690341711044,-0.19979088008403778
1772789940808258300,0.68325830078125,0.039435289800167084,-0.05272792652249336,-0.159427210688591
1772789940828293400,0.70329345703125,-0.09262607246637344,0.25264662504196167,-0.14053447544574738
1772789940848328400,0.723328369140625,-0.09270863234996796,0.5378900766372681,-0.16796769201755524
1772789940868363300,0.74336328125,0.17177309095859528,-0.0015824503498151898,-0.42315739393234253
1772789940888397600,0.7633974609375,0.04352111369371414,-0.2017885148525238,-0.5430084466934204
1772789940908432100,0.78343212890625,-0.05668538436293602,0.03206925466656685,-0.38758528232574463
1772789940928467200,0.80346728515625,-0.018819494172930717,0.22747176885604858,-0.23349450528621674
1772789940948502300,0.823502197265625,0.09206175059080124,0.3226933479309082,-0.3342519998550415
1772789940968536300,0.843536376953125,0.24172741174697876,-0.0201548021286726,-0.553137481212616
1772789940988571400,0.8635712890625,0.3503316342830658,-0.7381627559661865,-0.6936184167861938
1772789941008606500,0.8836064453125,0.2065342664718628,-0.853344202041626,-0.7862301468849182
1772789941028641300,0.903641357421875,0.034923095256090164,-0.43450406193733215,-0.7345240712165833
1772789941048676400,0.92367626953125,-0.28737637400627136,0.6190941333770752,-0.34851083159446716
1772789941068710400,0.94371044921875,-0.4556543529033661,0.919397234916687,0.008187090046703815
1772789941088745500,0.963745361328125,-0.8952908515930176,0.10560472309589386,0.028121383860707283
1772789941108780300,0.9837802734375,-1.0723644495010376,-0.2316417545080185,-0.01954520493745804
1772789941128815400,1.0038154296875,-0.844834566116333,-0.021954834461212158,0.0777970626950264
1772789941148849200,1.02384912109375,-0.5039885640144348,-0.24212580919265747,0.0338067002594471
1772789941168884200,1.04388427734375,-0.3952764868736267,-0.2628510594367981,-0.07172025740146637
1772789941188919300,1.063919189453125,-0.5052536129951477,0.0017502295086160302,-0.1485692411661148
1772789941208954400,1.083954345703125,-0.4715195894241333,0.6356661915779114,-0.005387042183429003
1772789941228989400,1.103989501953125,-0.17042526602745056,0.5767016410827637,0.12487109750509262
1772789941249023200,1.124023193359375,0.13997547328472137,0.7365259528160095,0.12280768156051636
1772789941269058300,1.144058349609375,0.27408722043037415,1.5107585191726685,-0.08314468711614609
1772789941289093400,1.16409326171875,0.2325296550989151,1.9384212493896484,-0.4097369313240051
1772789941309128200,1.184128173828125,0.01925705187022686,0.914908230304718,-0.3190610706806183
1772789941329162200,1.204162353515625,0.15173865854740143,-1.3673547506332397,-0.1414700448513031
1772789941349197300,1.224197265625,-0.11311270296573639,-0.9878963828086853,-0.3521798849105835
1772789941369232400,1.244232421875,-0.1434684842824936,0.24397431313991547,-0.45681360363960266
1772789941389267200,1.26426708984375,-0.5348058938980103,1.2653917074203491,-0.40714672207832336
1772789941409302300,1.28430224609375,-0.7949383854866028,0.3117014169692993,-0.6705402731895447
1772789941429336300,1.30433642578125,-0.6872122287750244,0.1658685952425003,-0.5543407201766968
1772789941449371400,1.324371337890625,-0.45779818296432495,-0.5303216576576233,-0.3585333824157715
1772789941469406500,1.344406494140625,-0.13684600591659546,-0.8800538182258606,-0.2865968644618988
1772789941489441300,1.364441162109375,0.29350990056991577,-0.9171252846717834,-0.07319165766239166
1772789941509475300,1.384475341796875,0.4937750995159149,-1.1265978813171387,-0.0033369408920407295
1772789941529510100,1.40451025390625,0.6130335927009583,-1.4113928079605103,0.15290352702140808
1772789941549545200,1.424545166015625,0.4677400290966034,-2.080315113067627,-0.13368642330169678
1772789941569580300,1.444580322265625,0.3073365092277527,-3.6675963401794434,-1.1885815858840942
1772789941589615400,1.464615478515625,0.4733249545097351,-2.602076292037964,-0.11062904447317123
1772789941609649200,1.484649169921875,0.44558465480804443,-1.6558481454849243,0.6049231886863708
1772789941629684200,1.504684326171875,0.13522599637508392,-0.26006966829299927,-0.04733901843428612
1772789941649719300,1.52471923828125,0.1092870756983757,0.002481533447280526,-0.23688870668411255
1772789941669754400,1.54475439453125,0.19302138686180115,0.3787212073802948,-0.2914084196090698
1772789941689788400,1.564788330078125,0.06465542316436768,0.5043725967407227,-0.07501032948493958
1772789941709823500,1.584823486328125,-0.02009221911430359,0.3407282829284668,0.17008225619792938
1772789941729858300,1.6048583984375,0.03196112811565399,0.17051661014556885,0.30492714047431946
1772789941749893000,1.62489306640625,0.2045491486787796,0.319978803396225,0.530124306678772
1772789941769928200,1.64492822265625,0.29480475187301636,0.5073676109313965,0.5653741955757141
1772789941789962200,1.664962158203125,0.40679624676704407,0.5018119812011719,0.4603407084941864
1772789941809997300,1.684997314453125,0.40595337748527527,0.5118984580039978,0.2911977469921112
1772789941830032400,1.705032470703125,0.3212302327156067,0.6115714907646179,0.25255075097084045
1772789941850067500,1.7250673828125,0.14192357659339905,0.8249138593673706,0.39599260687828064
1772789941870101200,1.745101318359375,0.158943310379982,0.941813588142395,0.22158752381801605
1772789941890136300,1.76513623046875,0.2249596118927002,0.7088626623153687,0.07118869572877884
1772789941910171400,1.78517138671875,0.3054792284965515,0.13168345391750336,0.2812894582748413
1772789941930206200,1.805206298828125,0.33262428641319275,-0.23403966426849365,0.4468608498573303
1772789941950240300,1.825240234375,0.3786327838897705,0.4258173406124115,0.3706779181957245
1772789941970275300,1.845275390625,0.42763522267341614,0.9946491122245789,0.09166174381971359
1772789941990310100,1.86531005859375,0.2960127592086792,0.7044934630393982,-0.23783253133296967
1772789942010345200,1.88534521484375,0.27848806977272034,0.09398508816957474,-0.19119764864444733
1772789942030380300,1.90538037109375,0.32053887844085693,0.19346533715724945,0.01661279797554016
1772789942050414600,1.92541455078125,0.29392775893211365,0.333538293838501,0.10696772485971451
1772789942070449400,1.945449462890625,0.19036328792572021,0.21468007564544678,0.16843241453170776
1772789942090484500,1.965484375,0.11074302345514297,-0.1297135204076767,0.1523360162973404
1772789942110519300,1.985519287109375,0.0240789707750082,-0.1447920799255371,0.07434453815221786
1772789942130553600,2.0055537109375,0.013203419744968414,0.021282918751239777,0.007261108607053757
1772789942150588400,2.02558837890625,0.10686306655406952,0.19978821277618408,0.012408998794853687
1772789942170623500,2.04562353515625,0.1829674243927002,0.29935503005981445,0.058031611144542694
1772789942190658600,2.065658447265625,0.04814941808581352,0.14665494859218597,0.07466944307088852
1772789942210693400,2.085693359375,-0.17294514179229736,0.11834981292486191,0.07824207097291946
1772789942230727400,2.1057275390625,-0.1382974237203598,0.2401934266090393,0.059671320021152496
1772789942250762500,2.125762451171875,0.020988905802369118,0.4120083153247833,-0.0011741877533495426
1772789942270797600,2.145797607421875,0.06161409616470337,0.5423423647880554,-0.1515413224697113
1772789942290832600,2.16583251953125,-0.11033529788255692,0.5253588557243347,-0.18985195457935333
1772789942310866400,2.185866455078125,-0.26554539799690247,0.2981744408607483,-0.11406824737787247
1772789942330901500,2.205901611328125,-0.3040595054626465,0.042026013135910034,-0.1923886239528656
1772789942350936300,2.225936279296875,-0.32465478777885437,0.08847686648368835,-0.21594375371932983
1772789942370971400,2.245971435546875,-0.3593786656856537,0.07501006126403809,-0.1475100964307785
1772789942391005400,2.26600537109375,-0.44100961089134216,0.0782197043299675,-0.17733004689216614
1772789942411040500,2.28604052734375,-0.4644710123538971,0.20287881791591644,-0.15619413554668427
1772789942431075600,2.30607568359375,-0.44531354308128357,0.04992707818746567,-0.0882723405957222
1772789942451110400,2.3261103515625,-0.4113691747188568,-0.25995486974716187,-0.08713649958372116
1772789942471145500,2.3461455078125,-0.4367789328098297,-0.13102565705776215,-0.16907531023025513
1772789942491179500,2.366179443359375,-0.5921429395675659,0.4875108003616333,-0.2125876247882843
1772789942511214600,2.386214599609375,-0.6429927945137024,0.3119421899318695,0.042884618043899536
1772789942531249400,2.40624951171875,-0.5420677661895752,-0.4797767102718353,0.13324567675590515
1772789942551284500,2.426284423828125,-0.5104811191558838,-0.5748150944709778,0.07027309387922287
1772789942571318300,2.446318359375,-0.6822893619537354,0.014708371832966805,0.09426312148571014
1772789942591353300,2.466353271484375,-0.6226337552070618,0.11891680210828781,0.07147391885519028
1772789942611388400,2.486388427734375,-0.4396543502807617,-0.19373458623886108,-0.02628806233406067
1772789942631423500,2.506423583984375,-0.346019983291626,-0.15498292446136475,-0.030010895803570747
1772789942651458600,2.52645849609375,-0.381133496761322,0.11444295197725296,0.04711771011352539
1772789942671492600,2.54649267578125,-0.3792908489704132,-0.051248274743556976,0.14328019320964813
1772789942691527400,2.56652734375,-0.3091652989387512,-0.26690226793289185,0.12947995960712433
1772789942711562500,2.5865625,-0.254042387008667,-0.11086472868919373,0.058812450617551804
1772789942731597300,2.606597412109375,-0.19613514840602875,-0.014612232334911823,0.038301583379507065
1772789942751631600,2.626631591796875,-0.15506015717983246,-0.09557419270277023,0.05536844953894615
1772789942771666400,2.64666650390625,-0.09170328825712204,-0.12404338270425797,0.12078207731246948
1772789942791701500,2.666701416015625,-0.0696757510304451,0.007765245158225298,0.12410437315702438
1772789942811736600,2.686736572265625,-0.0671960785984993,0.11098989844322205,0.10684549063444138
1772789942831770400,2.706770263671875,-0.05793200805783272,0.053999852389097214,0.15804103016853333
1772789942851805400,2.726805419921875,-0.03901371359825134,0.02123258449137211,0.14337393641471863
1772789942871840500,2.746840576171875,0.011426825076341629,0.17436274886131287,0.11237075179815292
1772789942891875600,2.76687548828125,0.0739956647157669,0.1497141271829605,0.07401670515537262
1772789942911910700,2.78691064453125,0.08540064841508865,0.04976089671254158,0.04164944216609001
1772789942931944400,2.8069443359375,0.04037858173251152,0.13621243834495544,0.04313841462135315
1772789942951979500,2.8269794921875,0.07034367322921753,0.10278523713350296,0.014393320307135582
1772789942972014300,2.847014404296875,0.11925342679023743,0.07885459810495377,-0.040289632976055145
1772789942992049400,2.86704931640625,0.14340803027153015,0.09141113609075546,-0.08854904025793076
1772789943012083500,2.88708349609375,0.13623186945915222,0.047621581703424454,-0.0961369201540947
1772789943032118500,2.907118408203125,0.15774649381637573,-0.08543713390827179,-0.03882516175508499
1772789943052153300,2.9271533203125,0.1817876398563385,-0.14840465784072876,-0.020535368472337723
1772789943072188400,2.9471884765625,0.22015340626239777,-0.15668867528438568,0.04993826523423195
1772789943092223500,2.967223388671875,0.23030804097652435,-0.34232378005981445,0.15966129302978516
1772789943112257500,2.987257568359375,0.16391649842262268,-0.33989790081977844,0.1462099403142929
1772789943132292600,3.007292724609375,0.08390315622091293,-0.13428963720798492,-0.026707777753472328
1772789943152327400,3.027327392578125,0.10285820811986923,-0.05109141394495964,-0.056404419243335724
1772789943172362500,3.047362548828125,0.1866188794374466,-0.07910999655723572,0.03352413699030876
1772789943192396300,3.067396240234375,0.21838772296905518,-0.015007179230451584,0.07299511134624481
1772789943212431400,3.087431396484375,0.17842033505439758,0.18859681487083435,0.06952928006649017
1772789943232466400,3.107466552734375,0.15236397087574005,0.15205611288547516,0.1046164259314537
1772789943252501500,3.12750146484375,0.1637258231639862,0.08768191188573837,0.13133299350738525
1772789943272536600,3.14753662109375,0.14607571065425873,-0.020604610443115234,0.07896112650632858
1772789943292570400,3.1675703125,0.1182323694229126,-0.018727881833910942,0.06626157462596893
1772789943312605400,3.18760546875,0.11498810350894928,0.03581339120864868,0.06579099595546722
1772789943332640500,3.207640625,0.09156986325979233,0.11603259295225143,0.032351281493902206
1772789943352675300,3.22767529296875,0.08204080909490585,0.10966923832893372,0.015692943707108498
1772789943372709600,3.247709716796875,0.08138300478458405,-0.0013819142477586865,-0.007743140682578087
1772789943392744400,3.267744384765625,0.04809029772877693,0.002674079965800047,-0.029076924547553062
1772789943412779500,3.287779541015625,0.015591209754347801,0.05879859998822212,0.0003038666909560561
1772789943432814300,3.307814453125,0.008039018139243126,0.06795322149991989,0.03738492354750633
1772789943452848400,3.327848388671875,-0.0018224010709673166,0.0657569095492363,0.019466375932097435
1772789943472883500,3.347883544921875,-0.0033483924344182014,0.016139555722475052,-0.04777497798204422
1772789943492918500,3.36791845703125,-0.029983198270201683,0.03987764194607735,-0.0960833877325058
1772789943512953600,3.38795361328125,-0.06354515254497528,0.04079989343881607,-0.09767835587263107
1772789943532988700,3.40798876953125,-0.05240488424897194,0.05627259239554405,-0.07219696789979935
1772789943553022500,3.4280224609375,0.006045375484973192,0.014019944705069065,-0.07292240858078003
1772789943573057500,3.4480576171875,0.03700941801071167,0.015368569642305374,-0.06921263039112091
1772789943593092400,3.46809228515625,0.02520815096795559,0.03447222337126732,-0.11664512008428574
1772789943613127400,3.48812744140625,0.00800199992954731,0.09882964193820953,-0.1006949171423912
1772789943633161500,3.508161376953125,0.02467072568833828,0.022783076390624046,-0.050511643290519714
1772789943653196500,3.528196533203125,0.048358213156461716,-0.07014313340187073,-0.037701837718486786
1772789943673231400,3.5482314453125,0.07898163050413132,-0.06191689521074295,-0.06751353293657303
1772789943693266400,3.568266357421875,0.09107132256031036,-0.030010096728801727,-0.042822033166885376
1772789943713301500,3.588301513671875,0.05104241147637367,0.12326467782258987,0.04776912182569504
1772789943733335600,3.60833544921875,0.0473368875682354,0.15137328207492828,0.07380418479442596
1772789943753370600,3.62837060546875,0.05115639418363571,0.03092249669134617,0.03248337283730507
1772789943773405400,3.648405517578125,0.032715070992708206,-0.037328995764255524,-0.01455683819949627
1772789943793440500,3.6684404296875,0.01962190493941307,0.06563040614128113,-0.013331251218914986
1772789943813474300,3.688474365234375,0.03404691815376282,0.13986548781394958,-0.016559269279241562
1772789943833509400,3.70850927734375,0.01525858137756586,0.1229805201292038,-0.018437596037983894
1772789943853544400,3.72854443359375,-0.016440492123365402,0.028501948341727257,-0.005678392015397549
1772789943873579500,3.74857958984375,-0.017739582806825638,-0.05934321880340576,0.0027593011036515236
1772789943893613600,3.768613525390625,-0.00040666470886208117,-0.07113596051931381,0.03506317734718323
1772789943913648400,3.7886484375,0.021350828930735588,-0.010816428810358047,0.02237534709274769
1772789943933683500,3.808683349609375,0.02834349125623703,0.004584631882607937,0.014757107943296432
1772789943953718500,3.828718505859375,0.009408415295183659,-0.021206485107541084,0.014851383864879608
1772789943973753300,3.84875341796875,-0.003966778516769409,-0.08840922266244888,0.02184777520596981
1772789943993787600,3.86878759765625,-0.019111908972263336,-0.12459386140108109,0.0246060099452734
1772789944013822500,3.888822509765625,-0.02985243685543537,-0.038477618247270584,0.012954946607351303
1772789944033857500,3.908857421875,-0.02708621136844158,0.04250271990895271,0.010876350104808807
1772789944053892900,3.928892822265625,-0.02213965728878975,0.037463217973709106,0.0066650933586061
1772789944073927000,3.948927001953125,-0.008955944329500198,-0.05961166322231293,-0.03508661314845085
1772789944093962000,3.9689619140625,0.0019283948931843042,-0.0986807718873024,-0.08195558935403824
1772789944113996800,3.988996826171875,0.010162889026105404,-0.04664899408817291,-0.09249025583267212
1772789944134028000,4.009028076171875,0.018312161788344383,0.034393392503261566,-0.032278578728437424
1772789944154062800,4.029062744140625,0.023307187482714653,0.019145997241139412,0.01751214824616909
1772789944174097700,4.04909765625,0.022436067461967468,-0.039023034274578094,0.021886656060814857
1772789944194132700,4.0691328125,0.020262926816940308,-0.03105325624346733,0.013282782398164272
1772789944214166800,4.089166748046875,0.017307350412011147,0.07247313112020493,-0.016025837510824203
1772789944234201900,4.109201904296875,0.0033814155030995607,0.11282961070537567,-0.003650394966825843
1772789944254237000,4.12923681640625,-0.012772786431014538,0.0771200880408287,0.012967197224497795
1772789944274271700,4.149271728515625,-0.01679708994925022,-0.011462511494755745,-0.01327106449753046
1772789944294305800,4.169305908203125,-0.024946095421910286,0.00951068103313446,-0.04440395161509514
1772789944314340900,4.1893408203125,-0.02064802125096321,0.11748694628477097,-0.05965001508593559
1772789944334376000,4.2093759765625,-0.016087090596556664,0.1723746955394745,-0.04854276776313782
1772789944354411000,4.229410888671875,0.00005725796290789731,0.066591277718544,-0.04512353613972664
1772789944374445800,4.24944580078125,-0.0028154938481748104,-0.05879540741443634,-0.09263219684362411
1772789944394479900,4.26947998046875,-0.020436033606529236,-0.10074285417795181,-0.10069997608661652
1772789944414514700,4.2895146484375,-0.04905382916331291,-0.02677968330681324,-0.04760507121682167
1772789944434549800,4.3095498046875,-0.02395673096179962,0.005507683381438255,-0.016776051372289658
1772789944454584800,4.329584716796875,0.007443801499903202,-0.044971201568841934,-0.031375765800476074
1772789944474619000,4.349618896484375,0.00968511775135994,-0.03281600400805473,-0.043533362448215485
1772789944494654000,4.369654052734375,-0.0022916500456631184,-0.02299586310982704,-0.04366838559508324
1772789944514688800,4.389688720703125,0.007551925722509623,0.009795905090868473,-0.01672864705324173
1772789944534723800,4.409723876953125,0.011236143298447132,0.024639299139380455,-0.0033246902748942375
1772789944554759700,4.429759765625,-0.01522875390946865,0.03733086213469505,0.03902889043092728
1772789944574794800,4.449794677734375,-0.00911333691328764,-0.013879329897463322,0.07238098978996277
1772789944594828800,4.469828857421875,0.009377522394061089,-0.02966202236711979,0.0560627356171608
1772789944614864000,4.48986376953125,-0.009475793689489365,-0.005916744936257601,0.02893577702343464
1772789944634899000,4.50989892578125,-0.02985190413892269,0.024036094546318054,0.006301305256783962
1772789944654934000,4.52993408203125,-0.02321530692279339,0.07985435426235199,-0.008897621184587479
1772789944674967800,4.5499677734375,-0.010132262483239174,0.057741325348615646,-0.004791293293237686
1772789944695003000,4.5700029296875,-0.004877579398453236,-0.025185247883200645,0.0018628811230883002
1772789944715037700,4.59003759765625,-0.0023851271253079176,-0.038960982114076614,0.03425917029380798
1772789944735072800,4.61007275390625,0.0075873457826673985,0.040830519050359726,0.05263817682862282
1772789944755107800,4.63010791015625,0.0423184297978878,0.04068537801504135,0.02797464281320572
1772789944775142000,4.650141845703125,0.03137337043881416,0.00023515711654908955,-0.004721784498542547
1772789944795176700,4.6701767578125,0.028790103271603584,-0.03639928624033928,0.010612164624035358
1772789944815211800,4.690211669921875,0.04806046932935715,-0.06396166980266571,0.03285861387848854
1772789944835246800,4.710246826171875,0.06381706148386002,-0.05769951641559601,0.03965793177485466
1772789944855281000,4.730281005859375,0.07146326452493668,-0.0307517871260643,0.0018367822049185634
1772789944875316000,4.75031591796875,0.08732398599386215,0.002808036981150508,-0.023393206298351288
1772789944895351000,4.77035107421875,0.08445389568805695,0.03904327377676964,-0.039083220064640045
1772789944915385600,4.790385498046875,0.07852170616388321,0.03265168517827988,0.008801214396953583
1772789944935420700,4.810420654296875,0.062014367431402206,-0.04885568842291832,0.054195061326026917
1772789944955454700,4.830454833984375,0.06317417323589325,-0.06625092774629593,0.035706598311662674
1772789944975489800,4.85048974609375,0.06895376741886139,0.008717059157788754,0.0273812897503376
1772789944995524900,4.87052490234375,0.07617679238319397,0.04896301403641701,0.06520510464906693
1772789945015560000,4.890559814453125,0.06009582802653313,0.04846394062042236,0.09587805718183517
1772789945035593700,4.91059375,0.051290884613990784,0.062066566199064255,0.12031789124011993
1772789945055628800,4.93062890625,0.050760913640260696,0.02678847126662731,0.10282731056213379
1772789945075664400,4.950664306640625,0.029106486588716507,0.019687950611114502,0.08804543316364288
1772789945095699000,4.970698974609375,0.010006029158830643,0.04665485396981239,0.07813900709152222
1772789945115734000,4.990734130859375,-0.0035686357878148556,0.06258268654346466,0.08482221513986588
1772789945135768000,5.01076806640625,-0.01588335819542408,0.06364182382822037,0.09005852043628693
1772789945155803100,5.03080322265625,-0.028496889397501945,0.04350220412015915,0.04820774123072624
1772789945175838200,5.050838134765625,-0.043778374791145325,0.021694643422961235,0.004762797150760889
1772789945195873300,5.070873291015625,-0.02629019320011139,-0.008740494959056377,-0.000007989483492565341
1772789945215907000,5.090906982421875,0.003034938359633088,0.026075009256601334,0.006112221162766218
1772789945235942100,5.110942138671875,0.010642523877322674,0.05644330382347107,-0.025895247235894203
1772789945255977200,5.130977294921875,-0.0015110776294022799,0.038295190781354904,-0.044015925377607346
1772789945276012300,5.15101220703125,-0.006453105714172125,0.008496815338730812,-0.04021266847848892
1772789945296047000,5.171047119140625,-0.004095675423741341,0.007529022637754679,-0.05965587496757507
1772789945316081400,5.191081298828125,0.001969673903658986,-0.008272843435406685,-0.026194319128990173
1772789945336116000,5.211115966796875,0.0010008158860728145,-0.0013315805699676275,0.007144195958971977
1772789945356151000,5.231151123046875,0.005797967780381441,0.04740879312157631,-0.0013161342358216643
1772789945376186000,5.25118603515625,0.002055161399766803,0.006954578682780266,0.015906261280179024
1772789945396221200,5.27122119140625,-0.01774570718407631,-0.029686789959669113,0.0178756695240736
1772789945416255200,5.291255126953125,-0.032814670354127884,-0.07642233371734619,0.03249455988407135
1772789945436290300,5.311290283203125,-0.04442072659730911,-0.014810903929173946,0.03662991523742676
1772789945456325000,5.3313251953125,-0.055092278867959976,0.08769842982292175,0.008527441881597042
1772789945476360200,5.351360107421875,-0.04502260312438011,0.07392296195030212,0.04167953506112099
1772789945496394200,5.371394287109375,-0.048895902931690216,-0.029885727912187576,0.05595168098807335
1772789945516429300,5.39142919921875,-0.08791946619749069,-0.037574008107185364,-0.006208094768226147
1772789945536464100,5.411464111328125,-0.08475323766469955,0.08298170566558838,-0.024155404418706894
1772789945556499200,5.431499267578125,-0.05079127475619316,0.036741502583026886,0.0433858223259449
1772789945576533000,5.451532958984375,-0.051117777824401855,-0.0025268071331083775,0.05193829908967018
1772789945596568000,5.471568115234375,-0.07262839376926422,0.010628143325448036,0.0189630389213562
1772789945616603100,5.49160302734375,-0.07163476943969727,0.047747280448675156,-0.0032048479188233614
1772789945636638200,5.51163818359375,-0.05824466422200203,0.0484282523393631,-0.018200309947133064
1772789945656673300,5.53167333984375,-0.06083884835243225,0.05952830612659454,0.017580857500433922
1772789945676707300,5.551707275390625,-0.052673596888780594,0.05417109280824661,0.056953031569719315
1772789945696742100,5.5717421875,-0.023453127592802048,0.0028213527984917164,0.042325619608163834
1772789945716777000,5.59177685546875,-0.01338478084653616,-0.00138058268930763,0.00466532539576292
1772789945736812000,5.61181201171875,-0.009433981962502003,0.015865249559283257,-0.00515854312106967
1772789945756846000,5.63184619140625,-0.0029206888284534216,0.04319167882204056,0.029039906337857246
1772789945776881200,5.651881103515625,0.0208261851221323,0.05025438219308853,0.031866587698459625
1772789945796916200,5.671916259765625,0.019995545968413353,-0.014242852106690407,0.0068206219002604485
1772789945816951300,5.691951416015625,0.008200405165553093,-0.04602980986237526,-0.009493104182183743
1772789945836986000,5.711986083984375,0.015194665640592575,0.029266009107232094,-0.026038525626063347
1772789945857020200,5.732020263671875,0.012327772565186024,0.07432376593351364,0.01068167295306921
1772789945877055200,5.75205517578125,-0.002344646956771612,0.01744210720062256,0.05922390893101692
1772789945897090300,5.77209033203125,-0.004489556886255741,-0.032712671905756,0.05888994783163071
1772789945917125000,5.792125,0.006894924212247133,-0.03344956785440445,0.002567553659901023
1772789945937159200,5.8121591796875,0.006160157732665539,0.025860093533992767,-0.021732458844780922
1772789945957194000,5.832194091796875,0.0025899240281432867,0.06291558593511581,-0.0070403325371444225
1772789945977229000,5.85222900390625,0.016274310648441315,0.04128379002213478,0.007437409833073616
1772789945997264100,5.87226416015625,0.02250530943274498,-0.01908048428595066,0.025771142914891243
1772789946017299200,5.89229931640625,0.032392825931310654,-0.03653271123766899,0.03398965671658516
1772789946037333200,5.912333251953125,0.03748532384634018,0.013745106756687164,0.012821522541344166
1772789946057367300,5.9323671875,0.05115612968802452,0.03693138435482979,0.010441722348332405
1772789946077402400,5.95240234375,0.06010088697075844,0.0275578573346138,0.016648218035697937
1772789946097437400,5.9724375,0.05356495827436447,-0.011035340838134289,0.019345734268426895
1772789946117471500,5.992471435546875,0.04646257311105728,-0.008841694332659245,0.024521054700016975
1772789946137506300,6.01250634765625,0.0501348078250885,-0.0003837615076918155,0.01329902745783329
1772789946157541400,6.032541259765625,0.05402621626853943,-0.0046842340379953384,0.0004649879119824618
1772789946177576200,6.052576171875,0.042039595544338226,0.015561116859316826,-0.01763731613755226
1772789946197611300,6.072611328125,0.0258686151355505,0.015031945891678333,-0.035115644335746765
1772789946217645300,6.092645263671875,0.012461729347705841,0.0027656927704811096,-0.034998197108507156
1772789946237680400,6.112680419921875,0.016458069905638695,-0.013383982703089714,-0.030851656571030617
1772789946257715200,6.132715087890625,0.022435801103711128,0.028682511299848557,-0.042882487177848816
1772789946277750300,6.152750244140625,0.026816699653863907,0.054913315922021866,-0.040581513196229935
1772789946297785300,6.172785400390625,0.026626817882061005,0.018074873834848404,-0.00965582299977541
1772789946317819400,6.1928193359375,0.01846582628786564,-0.013731524348258972,0.001110005541704595
1772789946337854500,6.2128544921875,0.008500277064740658,-0.016591226682066917,0.001734516816213727
1772789946357889500,6.2328896484375,0.005376656074076891,0.009089368395507336,-0.02442145347595215
1772789946377924400,6.25292431640625,0.001418932224623859,-0.0232858806848526,0.004256796557456255
1772789946397958400,6.27295849609375,-0.0020093549974262714,0.03358432650566101,0.0170343779027462
1772789946417993200,6.2929931640625,0.003066629869863391,0.06419043987989426,0.005056543741375208
1772789946438028300,6.3130283203125,-0.005395564250648022,0.01967463456094265,-0.006412891671061516
1772789946458063400,6.3330634765625,-0.018855446949601173,-0.025537583976984024,-0.008928247727453709
1772789946478097400,6.353097412109375,-0.02581615000963211,-0.007996673695743084,-0.01888633891940117
1772789946498132200,6.37313232421875,-0.013891047798097134,0.058102983981370926,-0.0023558323737233877
1772789946518167300,6.393167236328125,0.002156894188374281,0.09983924776315689,0.036383841186761856
1772789946538202400,6.413202392578125,0.008273376151919365,0.057200439274311066,0.043538689613342285
1772789946558237400,6.433237548828125,0.0038895467296242714,-0.005233377683907747,0.01883574016392231
1772789946578271500,6.453271484375,0.010547716170549393,-0.028962675482034683,-0.05119208246469498
1772789946598306300,6.473306396484375,0.009474195539951324,0.041247040033340454,-0.06764029711484909
1772789946618341400,6.49334130859375,0.00869335699826479,0.10476582497358322,-0.025683792307972908
1772789946638376200,6.513376220703125,0.03356568142771721,0.10070344060659409,0.009435845538973808
1772789946658411300,6.533411376953125,0.043490219861269,0.1114458367228508,-0.005515672732144594
1772789946678445300,6.5534453125,0.020868796855211258,0.09674092382192612,-0.07096658647060394
1772789946698480400,6.57348046875,-0.0064387246966362,0.07573124766349792,-0.11042104661464691
1772789946718515500,6.593515380859375,-0.03705282509326935,0.07850998640060425,-0.05716022476553917
1772789946738550500,6.613550537109375,-0.04633926972746849,0.02292502298951149,0.002883138135075569
1772789946758584300,6.633584228515625,-0.03707679361104965,-0.04300365969538689,0.005768406670540571
1772789946778619400,6.653619384765625,-0.02383156307041645,-0.03515319526195526,-0.042989812791347504
1772789946798654200,6.673654296875,-0.016753945499658585,0.05741242691874504,-0.0629131868481636
1772789946818689300,6.693689208984375,-0.005302886478602886,0.05926172435283661,-0.02004321664571762
1772789946838724400,6.713724365234375,-0.011113903485238552,0.011432950384914875,0.02027038484811783
1772789946858758400,6.73375830078125,-0.01558428630232811,-0.0306915994733572,0.012510998174548149
1772789946878793200,6.753793212890625,-0.013854296877980232,-0.015126488171517849,0.02305658347904682
1772789946898828300,6.773828369140625,-0.0008333030855283141,0.013991715386509895,0.02949610725045204
1772789946918863400,6.79386328125,-0.01852281764149666,0.023994281888008118,0.016939036548137665
1772789946938897400,6.8138974609375,-0.022585203871130943,0.012161857448518276,0.015863385051488876
1772789946958932500,6.833932373046875,-0.012565326876938343,-0.012370649725198746,-0.002499110298231244
1772789946978967600,6.853967529296875,0.005601959303021431,0.032646894454956055,-0.006895722821354866
1772789946999002400,6.87400244140625,0.028146415948867798,0.07634217292070389,-0.0038538603112101555
1772789947019037200,6.894037109375,0.030309436842799187,0.09620615839958191,0.029454028233885765
1772789947039071200,6.9140712890625,0.045284658670425415,0.08597242832183838,0.0380999818444252
1772789947059106800,6.93410693359375,0.020729513838887215,0.022122612223029137,-0.05254283547401428
1772789947079142000,6.954141845703125,-0.01696859672665596,-0.03413053974509239,-0.044911280274391174
1772789947099177000,6.974177001953125,-0.002546514617279172,-0.010975685901939869,0.00571860559284687
1772789947119210800,6.994210693359375,0.015502792783081532,0.0861324891448021,0.02738235518336296
1772789947139245800,7.014245849609375,0.031613051891326904,0.07860186696052551,0.032642897218465805
1772789947159281000,7.034281005859375,0.008101069368422031,-0.038356177508831024,0.02088530734181404
1772789947179315700,7.054315673828125,-0.013214338570833206,-0.06301092356443405,0.006024869158864021
1772789947199350800,7.074350830078125,0.010896589607000351,0.011945875361561775,0.008943693712353706
1772789947219384800,7.094384765625,0.033851705491542816,0.04738003388047218,0.04234985262155533
1772789947239419600,7.114419677734375,0.022274944931268692,0.016079368069767952,0.055084023624658585
1772789947259454700,7.134454833984375,0.010818825103342533,0.008550078608095646,0.04686364531517029
1772789947279489800,7.15448974609375,0.008252603933215141,-0.02785852923989296,0.03225194662809372
1772789947299524900,7.17452490234375,0.0015089471125975251,-0.03248337283730507,0.038478415459394455
1772789947319559000,7.194558837890625,0.003484213724732399,-0.006353503558784723,0.03689117357134819
1772789947339594000,7.214593994140625,0.013514476828277111,0.0340447872877121,0.035038676112890244
1772789947359628800,7.23462890625,0.02280997484922409,0.025242505595088005,0.0323299765586853
1772789947379663600,7.25466357421875,0.017065269872546196,-0.017654361203312874,0.0397024042904377
1772789947399697700,7.27469775390625,0.008899485692381859,-0.07235755026340485,0.038773227483034134
1772789947419732700,7.294732666015625,-0.009924801997840405,-0.07125233858823776,0.0324503518640995
1772789947439767800,7.314767822265625,-0.01950499229133129,-0.0775427296757698,0.030247917398810387
1772789947459803000,7.334802978515625,-0.035059716552495956,-0.10103101283311844,0.030885212123394012
1772789947479838000,7.354837890625,-0.07527398318052292,-0.1052614375948906,-0.003823234001174569
1772789947499871700,7.374871826171875,-0.11604884266853333,-0.14776469767093658,-0.037164945155382156
1772789947519906800,7.39490673828125,-0.10353917628526688,-0.13236922025680542,-0.038178279995918274
1772789947539942000,7.41494189453125,-0.052330583333969116,-0.01624714583158493,-0.028137894347310066
1772789947559976700,7.434976806640625,0.001600559800863266,0.0508250966668129,-0.04577547684311867
1772789947580011000,7.455010986328125,0.01635926589369774,0.005605954211205244,-0.056483782827854156
1772789947600045600,7.475045654296875,0.0018002968281507492,-0.06323196738958359,-0.02432025410234928
1772789947620080600,7.49508056640625,0.006852313410490751,-0.04652435705065727,0.006329801399260759
1772789947640115700,7.51511572265625,0.030538734048604965,0.038653384894132614,0.02063923142850399
1772789947660150800,7.53515087890625,0.04710252955555916,0.07791237533092499,0.028561603277921677
1772789947680184800,7.555184814453125,0.032220788300037384,-0.018266089260578156,0.03537610173225403
1772789947700220000,7.575219970703125,0.007467237301170826,-0.10145631432533264,0.04801439866423607
1772789947720255000,7.5952548828125,0.005402222275733948,-0.03701420873403549,0.04595151171088219
1772789947740289800,7.615289794921875,0.012219115160405636,0.06521229445934296,0.01925039291381836
1772789947760323800,7.63532373046875,0.009663546457886696,0.07138150185346603,0.02371997758746147
1772789947780359000,7.65535888671875,-0.016568323597311974,-0.00959643442183733,0.0443621389567852
1772789947800393700,7.675393798828125,-0.0390094518661499,-0.07830865681171417,0.04390567168593407
1772789947820428800,7.6954287109375,-0.029088908806443214,0.015202920883893967,0.020302075892686844
1772789947840464000,7.7154638671875,-0.004138818476349115,0.05736102908849716,0.0301981158554554
1772789947860497700,7.73549755859375,-0.01708364486694336,0.0007965514669194818,0.04784289002418518
1772789947880532700,7.75553271484375,-0.04151362180709839,-0.0923973098397255,0.03415583819150925
1772789947900567800,7.77556787109375,-0.054371364414691925,-0.11918897181749344,0.02093537524342537
1772789947920603000,7.795602783203125,-0.049345713108778,-0.08922761678695679,0.009342635050415993
1772789947940638000,7.815637939453125,0.002597114769741893,0.0247879046946764,-0.03388526290655136
1772789947960672000,7.835672119140625,0.02719886414706707,0.0480029471218586,-0.03778066858649254
1772789947980706800,7.855706787109375,0.013437777757644653,-0.01973881758749485,-0.03319710120558739
1772789948000741600,7.87574169921875,0.008927981369197369,-0.005911951418966055,-0.04957767203450203
1772789948020776700,7.895776611328125,0.032650887966156006,0.009880061261355877,-0.04984612017869949
1772789948040810800,7.915810791015625,0.03982331231236458,0.017615212127566338,-0.04035700857639313
1772789948060845800,7.935845703125,0.04381192848086357,0.05246666818857193,-0.04164304956793785
1772789948080881000,7.955880859375,0.03898974508047104,0.03783925622701645,-0.03735775873064995
1772789948100916000,7.975916015625,0.02852112427353859,-0.007896006107330322,-0.025559954345226288
1772789948120951000,7.995950927734375,0.026100309565663338,-0.036372121423482895,-0.0016764599131420255
1772789948140984000,8.015984130859374,0.027463048696517944,0.012183163315057755,-0.014968296512961388
1772789948161019000,8.036018798828126,0.013881194405257702,0.07134022563695908,-0.02190769650042057
1772789948181054000,8.056053955078125,0.0017251957906410098,0.009979929774999619,0.00857617799192667
1772789948201089000,8.076089111328125,-0.011875834316015244,-0.050208307802677155,-0.003513508476316929
1772789948221123000,8.096123046875,-0.015586416237056255,-0.008131429553031921,-0.026281937956809998
1772789948241158000,8.116157958984376,-0.0030272151343524456,0.0582079142332077,-0.029699837788939476
1772789948261193000,8.13619287109375,0.004266384057700634,0.0350639782845974,0.0014980280539020896
1772789948281228000,8.15622802734375,0.004762797150760889,0.00401524780318141,0.016941431909799576
1772789948301261800,8.17626171875,0.013978400267660618,0.031500134617090225,0.003728159237653017
1772789948321297000,8.196296875,0.023426229134202003,0.06401706486940384,-0.024659274145960808
1772789948341332000,8.21633203125,0.023197997361421585,0.05254603177309036,-0.0005970807396806777
1772789948361367000,8.236366943359375,0.015081747435033321,0.03817135468125343,0.019576897844672203
1772789948381402000,8.256402099609375,0.01907702162861824,0.02225497178733349,0.012179167941212654
1772789948401436000,8.276435791015626,0.01876889355480671,0.03382773697376251,-0.011231881566345692
1772789948421471000,8.296470947265625,0.023742081597447395,0.042573824524879456,-0.0171454306691885
1772789948441505800,8.316505859375,0.037582796066999435,0.03321893885731697,-0.0037092508282512426
1772789948461540900,8.336540771484374,0.03248737007379532,0.027051590383052826,0.0011523497523739934
1772789948481575000,8.356574951171876,0.030414897948503494,0.05572531372308731,0.00902811624109745
1772789948501610000,8.37660986328125,0.047748081386089325,0.020856279879808426,0.025194035843014717
1772789948521645000,8.39664501953125,0.041898179799318314,0.009022257290780544,0.024827584624290466
1772789948541679900,8.416679931640624,0.045879341661930084,0.022123677656054497,0.028615133836865425
1772789948561715000,8.43671484375,0.04709587246179581,0.06149718165397644,-0.0007084008539095521
1772789948581749000,8.4567490234375,0.04054636135697365,0.06376353651285172,-0.009127452038228512
1772789948601784000,8.4767841796875,0.040294427424669266,0.019842147827148438,0.01607297547161579
1772789948621819100,8.496819091796874,0.03561605140566826,-0.00004713794987765141,-0.002974484581500292
1772789948641854000,8.51685400390625,0.01798299513757229,0.025966353714466095,-0.026199912652373314
1772789948661889000,8.536888916015625,0.02329040877521038,0.05086318030953407,-0.00971574429422617
1772789948681922800,8.5569228515625,0.03664589673280716,0.03117656148970127,0.003615241264924407
1772789948701958000,8.5769580078125,0.026728816330432892,0.030048446729779243,-0.012659869156777859
1772789948721993000,8.596992919921876,0.019516710191965103,0.048897501081228256,-0.051730040460824966
1772789948742028000,8.617028076171875,0.026746125891804695,0.030725421383976936,-0.07446757704019547
1772789948762062000,8.63706201171875,0.02395273745059967,0.02040753699839115,-0.04078790917992592
1772789948782097000,8.657096923828124,0.011324293911457062,0.0446404367685318,-0.03177044540643692
1772789948802132000,8.677132080078126,0.014161624945700169,0.023182816803455353,-0.008009190671145916
1772789948822167000,8.6971669921875,0.013963486067950726,0.03449113294482231,-0.012312326580286026
1772789948842201900,8.717201904296875,0.015988819301128387,-0.002561428351327777,0.0012844426091760397
1772789948862236000,8.73723583984375,0.012163189239799976,0.033902041614055634,-0.0009379653492942452
1772789948882271000,8.75727099609375,0.016091618686914444,0.02743961289525032,-0.007467237301170826
1772789948902306000,8.77730615234375,-0.003437075763940811,0.033249564468860626,-0.004512992687523365
1772789948922340900,8.7973408203125,-0.006139651406556368,-0.008743690326809883,0.017681259661912918
1772789948942375000,8.817375,-0.014768026769161224,-0.005827795248478651,0.003899933071807027
1772789948962410000,8.837409912109376,-0.019686618819832802,0.029557891190052032,-0.006138586439192295
1772789948982445000,8.857445068359375,-0.015311045572161674,0.06488525867462158,-0.004201402887701988
1772789949002480000,8.877480224609375,-0.008083758875727654,0.04435760900378227,0.030051110312342644
1772789949022515000,8.897514892578124,-0.015574964694678783,0.0073045180179178715,0.040097352117300034
1772789949042549000,8.917549072265626,-0.018698319792747498,0.01660001650452614,0.023859526962041855
1772789949062584000,8.937583984375,-0.0049404301680624485,0.03382587432861328,0.015563513152301311
1772789949082619100,8.957619140625,-0.003847202518954873,0.02774428017437458,0.013966149650514126
1772789949102654000,8.977654052734374,-0.007922904565930367,0.029507825151085854,0.023857129737734795
1772789949122689000,8.99768896484375,-0.010662764310836792,0.03711621090769768,0.0265948586165905
1772789949142723000,9.01772314453125,-0.001654622028581798,-0.01588176190853119,0.031182685866951942
1772789949162758100,9.037758056640625,-0.0025712819769978523,-0.0295560285449028,0.008541289716959
1772789949182793200,9.057793212890624,-0.002133724745362997,0.023874172940850258,-0.017376061528921127
1772789949202828300,9.077828369140626,0.004274906124919653,0.03804432228207588,-0.005468534771353006
1772789949222862000,9.097862060546875,-0.01170406024903059,0.027821511030197144,0.019517242908477783
1772789949242897200,9.117897216796875,-0.019222164526581764,-0.012279302813112736,0.02857491932809353
1772789949262932000,9.137931884765624,-0.027103522792458534,-0.019871974363923073,-0.003564641112461686
1772789949282967000,9.157967041015626,-0.02460361272096634,0.038363367319107056,-0.003919640555977821
1772789949303002000,9.178002197265625,-0.018556639552116394,0.05229862406849861,0.028717132285237312
1772789949323036200,9.1980361328125,-0.02767530269920826,-0.005666407756507397,0.044861748814582825
1772789949343071000,9.218071044921874,-0.040643032640218735,-0.012677978724241257,0.02815334126353264
1772789949363106000,9.23810595703125,-0.03725389391183853,-0.010090450756251812,-0.004216849338263273
1772789949383141000,9.25814111328125,-0.03622937574982643,-0.008565524592995644,0.00762862479314208
1772789949403175200,9.278175048828125,-0.0336248055100441,0.0020064255222678185,0.006960703991353512
1772789949423210200,9.298210205078124,-0.02305764891207218,0.008144745603203773,0.012553076259791851
1772789949443245000,9.3182451171875,-0.01607430726289749,-0.01720215566456318,-0.0005736448802053928
1772789949463280000,9.338280029296875,-0.027215907350182533,-0.01841309480369091,-0.01757846027612686
1772789949483315000,9.35831494140625,-0.010274741798639297,-0.003567836945876479,-0.024458205327391624
1772789949503349000,9.378348876953124,0.00028282770654186606,0.015586682595312595,-0.026511501520872116
1772789949523384000,9.398384033203126,0.0013158678775653243,0.04300419241189957,-0.012271846644580364
1772789949543419100,9.418419189453125,0.007556453347206116,0.05011323466897011,0.006060555577278137
1772789949563454200,9.4384541015625,0.0018048242200165987,0.04157647117972374,0.004745753016322851
1772789949583489300,9.4584892578125,-0.013439908623695374,-0.009434514679014683,-0.007653658743947744
1772789949603523000,9.478523193359376,-0.019646672531962395,0.006673615425825119,0.010026801377534866
1772789949623558100,9.49855810546875,-0.0028429245576262474,0.04992521554231644,0.034560639411211014
1772789949643593000,9.518593017578125,-0.0015510249650105834,0.0343816764652729,0.029456159099936485
1772789949663628000,9.5386279296875,-0.011689678765833378,-0.0031217574141919613,0.0023547669406980276
1772789949683662000,9.558662109375,-0.013161341659724712,-0.01044305320829153,-0.023495472967624664
1772789949703697200,9.578697265625,0.005117796827107668,0.004188087303191423,-0.02857571840286255
1772789949723732000,9.59873193359375,0.015050854533910751,0.02919144183397293,-0.01079778652638197
1772789949743767000,9.61876708984375,0.02305791527032852,0.045033521950244904,0.011727229692041874
1772789949763802000,9.638802001953126,0.025741316378116608,0.03406023234128952,0.020182233303785324
1772789949783836200,9.658836181640625,0.02942020632326603,0.043654803186655045,-0.0021406488958746195
1772789949803871200,9.678871337890625,0.024097612127661705,0.053710632026195526,0.007927964441478252
1772789949823906300,9.69890625,0.013938452117145061,0.058457449078559875,0.030220486223697662
1772789949843940900,9.71894091796875,0.006258961278945208,0.039681632071733475,0.04386093094944954
1772789949863975200,9.73897509765625,-0.003448260948061943,0.01691293716430664,0.03218243643641472
1772789949884010000,9.759010009765625,-0.010272610932588577,0.014328072778880596,0.020859209820628166
1772789949904045000,9.779045166015624,-0.0012687299167737365,0.04805567488074303,0.0012958941515535116
1772789949924080000,9.799080078125,0.007485613226890564,0.019482888281345367,-0.0006737797521054745
1772789949944115200,9.819115234375,0.003483947366476059,0.003732952754944563,0.002329733222723007
1772789949964149000,9.83914892578125,-0.0023547669406980276,0.00430073868483305,-0.015471634455025196
1772789949984184000,9.85918408203125,0.005662412848323584,0.02503238245844841,-0.012530439533293247
1772789950004219100,9.87921923828125,0.010304569266736507,0.02316657267510891,0.008656605146825314
1772789950024254200,9.899254150390625,0.007548197638243437,-0.008135423995554447,0.013801033608615398
1772789950044288300,9.919288330078125,0.003186472225934267,0.004278101958334446,-0.009663812816143036
1772789950064322600,9.939322509765624,0.0007299724384211004,0.02267308719456196,-0.03526584431529045
1772789950084357400,9.959357421875,0.0033252229914069176,0.017133180052042007,-0.020125508308410645
1772789950104392400,9.979392333984375,0.003069559345021844,0.021916218101978302,-0.0037031255196779966
1772789950124427500,9.999427490234375,-0.0030005834996700287,0.019948940724134445,-0.0065441858023405075
1772789950144461600,10.019461669921874,-0.0010269149206578732,0.015222628600895405,-0.0005826996639370918
1772789950164496600,10.03949658203125,0.0031486554071307182,-0.006656837183982134,0.01805330254137516
1772789950184531500,10.059531494140625,-0.004333761986345053,-0.018981946632266045,0.014732073992490768
1772789950204566500,10.07956640625,-0.008824383839964867,0.0341196209192276,0.01727432757616043
1772789950224601600,10.0996015625,0.009607885964214802,0.026196716353297234,-0.008320780470967293
1772789950244635600,10.1196357421875,-0.006548446603119373,0.02201954834163189,0.0013102752855047584
1772789950264670700,10.139670654296875,-0.0012956279097124934,-0.012987437658011913,-0.001184041379019618
1772789950284705500,10.15970556640625,0.0019891150295734406,0.023240607231855392,0.007779626175761223
1772789950304740600,10.17974072265625,0.011834555305540562,0.040698692202568054,0.008621717803180218
1772789950324774400,10.1997744140625,-0.007748466916382313,0.03184022009372711,0.022127939388155937
1772789950344809500,10.2198095703125,0.006967095658183098,0.006930610164999962,0.026749322190880775
1772789950364844500,10.239844482421875,0.0009776464430615306,0.05464779958128929,0.023492010310292244
1772789950384879600,10.259879638671874,0.00833755824714899,0.006136721931397915,0.011889682151377201
1772789950404914700,10.279914794921876,-0.006178000941872597,-0.0330389104783535,-0.0075700352899730206
1772789950424948500,10.299948486328125,0.0013848437229171395,-0.003195793367922306,-0.011545602232217789
1772789950444983600,10.319983642578125,0.01817713864147663,0.0469515286386013,0.006168679799884558
1772789950465018600,10.3400185546875,0.02485528215765953,0.023213444277644157,0.03447781503200531
1772789950485053400,10.360053466796876,0.018427742645144463,-0.028926456347107887,0.041069407016038895
1772789950505087500,10.38008740234375,0.0006450176006183028,-0.09297201782464981,0.007811051327735186
1772789950525122600,10.40012255859375,-0.0012506204657256603,-0.05687819793820381,0.009882192127406597
1772789950545157400,10.420157470703124,0.01750282756984234,0.06131954863667488,-0.003984888084232807
1772789950565192400,10.4401923828125,0.017311612144112587,0.05831976607441902,-0.004757737275213003
1772789950585227500,10.4602275390625,-0.007214237004518509,-0.016381103545427322,0.012317919172346592
1772789950605261600,10.480261474609375,-0.006828078534454107,-0.04348542541265488,0.012827914208173752
1772789950625296600,10.500296630859374,0.0030514500103890896,0.032520391047000885,-0.03419232368469238
1772789950645331700,10.520331787109376,0.004142014309763908,0.0630362257361412,-0.02647128887474537
1772789950665366500,10.540366455078125,-0.003912183456122875,0.012232963927090168,0.028178641572594643
1772789950685401300,10.5604013671875,-0.010588728822767735,-0.015429023653268814,0.06105829402804375
1772789950705435400,10.580435302734376,-0.0033920682035386562,0.021140705794095993,0.031329426914453506
1772789950725470500,10.600470458984375,0.007303453050553799,0.07268805056810379,0.0034349451307207346
1772789950745505500,10.620505615234375,0.0005640574963763356,0.03359550982713699,0.020905815064907074
1772789950765540600,10.64054052734375,-0.006491987966001034,-0.009514941833913326,0.03075551614165306
1772789950785574400,10.660574462890626,-0.012552543543279171,0.020501013845205307,0.01925145834684372
1772789950805609500,10.680609375,0.0008990831556729972,0.03509300574660301,0.014700649306178093
1772789950825644500,10.70064453125,0.009125321172177792,-0.0062400526367127895,0.022956447675824165
1772789950845679600,10.7206796875,0.0014471617760136724,0.027092870324850082,0.0036189695820212364
1772789950865714400,10.74071435546875,0.018437329679727554,0.02666410058736801,-0.0139006357640028
1772789950885748700,10.760748779296875,0.015332616865634918,0.03676280751824379,-0.00869016069918871
1772789950905783600,10.780783447265625,0.0136625487357378,-0.0026644926983863115,0.019820043817162514
1772789950925818400,10.800818359375,0.013601562939584255,-0.05053161829710007,0.021977471187710762
1772789950945853400,10.820853515625,0.00945049338042736,-0.0024916534312069416,0.0036479979753494263
1772789950965887500,10.840887451171875,0.01762346923351288,0.0731346607208252,-0.0005597964627668262
1772789950985922600,10.860922607421875,0.0221463143825531,0.03436463326215744,0.008835835382342339
1772789951005957600,10.88095751953125,0.007610515225678682,0.0038250982761383057,0.020780378952622414
1772789951025992700,10.90099267578125,0.0018676748732104897,0.010461961850523949,0.00253453035838902
1772789951046027800,10.92102783203125,0.003480751533061266,0.017305221408605576,-0.02767264097929001
1772789951066061800,10.941061767578125,-0.005941778887063265,0.03670608252286911,-0.0018378474051132798
1772789951086096600,10.9610966796875,-0.010904313065111637,0.042693935334682465,0.017236776649951935
1772789951106131700,10.981131591796874,-0.007710383739322424,0.009357549250125885,0.03322187066078186
1772789951126166800,11.001166748046876,-0.009874202311038971,-0.029685458168387413,0.01697445660829544
1772789951146200600,11.02120068359375,-0.00219524372369051,0.014123009517788887,-0.0006042712484486401
1772789951166235600,11.041235595703125,0.01629668101668358,0.07127045094966888,0.007182012777775526
1772789951186270700,11.061270751953124,0.011048389598727226,0.013171995058655739,0.046961914747953415
1772789951206305800,11.081305908203126,0.0009568737586960196,-0.047506798058748245,0.04536188766360283
1772789951226340900,11.1013408203125,0.011962386779487133,0.021105818450450897,0.009721070528030396
1772789951246374700,11.121374755859375,0.02496686950325966,0.07521326094865799,-0.018090853467583656
1772789951266409700,11.14140966796875,0.007564442697912455,0.001752360025420785,0.033430393785238266
1772789951286444500,11.161444580078125,-0.006795854307711124,-0.03062342293560505,0.04337863251566887
1772789951306479600,11.181479736328125,0.017972875386476517,0.045398373156785965,-0.0015454323729500175
1772789951326514700,11.2015146484375,0.03422907739877701,0.07493416219949722,-0.017553426325321198
1772789951346548700,11.221548828125,0.010817494243383408,-0.0035832831636071205,-0.0026493126060813665
1772789951366583800,11.241583740234375,-0.011114702560007572,-0.022122878581285477,0.016348613426089287
1772789951386618600,11.26161865234375,0.010454238392412663,0.03449725732207298,0.007515440694987774
1772789951406653700,11.28165380859375,0.025587918236851692,0.0318940170109272,-0.0039020637050271034
1772789951426687700,11.301687744140626,0.00729466462507844,-0.0001608549355296418,0.015451127663254738
1772789951446722800,11.321722900390625,0.004495149478316307,-0.013051087036728859,0.017065269872546196
1772789951466758000,11.3417578125,0.010915498249232769,0.033969152718782425,-0.008471515029668808
1772789951486792700,11.361792724609375,0.014597051776945591,0.05150793120265007,-0.004547081422060728
1772789951506827800,11.381827880859374,0.003311907174065709,-0.011411911807954311,0.01595020480453968
1772789951526861600,11.401861572265625,-0.007564709056168795,-0.030696926638484,0.004898618441075087
1772789951546896600,11.421896728515625,0.015474030748009682,0.031328894197940826,-0.024107733741402626
1772789951566931700,11.441931640625,0.025349564850330353,0.050404053181409836,-0.007562312297523022
1772789951586966800,11.461966796875,0.016233565285801888,0.0001555285998620093,0.003982490859925747
1772789951607000800,11.482000732421875,0.012170113623142242,-0.02947586588561535,-0.0008588694618083537
1772789951627035600,11.50203564453125,0.017978999763727188,-0.01955612376332283,-0.043059054762125015
1772789951647070700,11.52207080078125,0.02064003050327301,0.007239803206175566,-0.043229229748249054
1772789951667105800,11.542105712890624,0.013718209229409695,0.01811828278005123,-0.019632557407021523
1772789951687140600,11.562140625,0.01028832420706749,-0.005820604972541332,0.004283960908651352
1772789951707174700,11.582174560546875,0.007785485126078129,0.011205250397324562,-0.023022228851914406
1772789951727209700,11.602209716796875,0.006676012184470892,-0.012987171299755573,-0.03783978894352913
1772789951747244500,11.62224462890625,0.0007590008899569511,0.024350613355636597,-0.05332394316792488
1772789951767279600,11.642279541015625,0.008807872422039509,0.028494758531451225,-0.045758433640003204
1772789951787314700,11.662314697265625,0.000496945867780596,0.04141055792570114,-0.011638013646006584
1772789951807348700,11.6823486328125,0.010056895203888416,0.023478960618376732,0.003982224967330694
1772789951827383800,11.7023837890625,0.016802148893475533,0.029820479452610016,0.0059721386060118675
1772789951847419000,11.7224189453125,0.018431205302476883,0.017672469839453697,-0.020981181412935257
1772789951867453700,11.74245361328125,0.0070829433389008045,0.014063354581594467,-0.0001257012045243755
1772789951887487700,11.76248779296875,0.007383613847196102,0.048534780740737915,0.030285201966762543
1772789951907522600,11.7825224609375,0.01961657777428627,0.09512758255004883,0.0476737804710865
1772789951927557600,11.8025576171875,0.023670442402362823,0.12294696271419525,0.06377951055765152
1772789951947592700,11.8225927734375,0.030224747955799103,0.04671424254775047,0.022658174857497215
1772789951967627800,11.842627685546875,-0.004606735892593861,-0.044026847928762436,-0.005918342620134354
1772789951987661600,11.86266162109375,-0.016919061541557312,0.011199924163520336,0.0009635316673666239
1772789952007696600,11.882696533203125,0.006165750324726105,0.05709684267640114,0.017606956884264946
1772789952027731700,11.902731689453125,0.0054152715019881725,0.02947959490120411,0.01696380414068699
1772789952047766800,11.922766845703125,-0.010965566150844097,-0.011417770758271217,0.001972070662304759
1772789952067801000,11.942801025390626,-0.018031731247901917,-0.026087259873747826,-0.0237018670886755
1772789952087836000,11.9628359375,-0.018449313938617706,-0.0002348908019484952,-0.013537646271288395
1772789952107871000,11.98287109375,-0.004572647623717785,0.04320339858531952,-0.005147091578692198
1772789952127905800,12.00290576171875,-0.006061621010303497,0.01239461824297905,-0.013342703692615032
1772789952147940900,12.02294091796875,-0.026580743491649628,-0.006203301250934601,-0.00227913330309093
1772789952167975000,12.042974853515625,-0.014993863180279732,0.00227833422832191,-0.0107107013463974
1772789952188010000,12.063010009765625,-0.01107182539999485,0.029891852289438248,-0.005282113794237375
1772789952208045000,12.083045166015625,-0.008611065335571766,0.013039635494351387,0.019841881468892097
1772789952228080000,12.103080078125,-0.007860053330659866,-0.010182596743106842,0.011041998863220215
1772789952248115000,12.123114990234376,-0.00805925764143467,-0.013818344101309776,-0.015672169625759125
1772789952268149000,12.14314892578125,-0.0017414409667253494,0.022461632266640663,-0.02768142893910408
1772789952288183800,12.163183837890625,-0.002752110594883561,0.03579394891858101,-0.01167529821395874
1772789952308219000,12.183218994140624,-0.003507383167743683,-0.021947110071778297,0.01949646882712841
1772789952328254000,12.20325390625,-0.011260643601417542,-0.007442736066877842,0.01871057040989399
1772789952348288000,12.2232880859375,-0.006330333650112152,0.026571955531835556,-0.01492542028427124
1772789952368322800,12.24332275390625,-0.008822253905236721,-0.009399627335369587,-0.01480797491967678
1772789952388358000,12.26335791015625,-0.01703091524541378,0.0038213697262108326,-0.018434135243296623
1772789952408393000,12.28339306640625,-0.013016199693083763,0.027086477726697922,-0.023119434714317322
1772789952428428000,12.303427978515625,-0.01179194450378418,0.0035340148024260998,-0.006001699715852737
1772789952448462000,12.323462158203125,-0.009720005095005035,0.00820999313145876,0.005222192499786615
1772789952468497200,12.3434970703125,-0.002100168727338314,0.019242670387029648,0.004372910596430302
1772789952488532000,12.363531982421875,0.005714611150324345,0.012292086146771908,0.008767126128077507
1772789952508566800,12.38356689453125,0.0028269453905522823,0.02971501834690571,-0.0009747169679030776
1772789952528600800,12.403600830078124,-0.00492098880931735,0.03644562512636185,-0.009221195243299007
1772789952548639000,12.423638916015625,-0.00857191625982523,-0.008191350847482681,0.021043233573436737
1772789952568672800,12.4436728515625,-0.009777795523405075,-0.02552027441561222,0.027514714747667313
1772789952588707800,12.463707763671875,-0.002296177437528968,0.031319838017225266,0.00800466351211071
1772789952608743000,12.483742919921875,0.004972654394805431,0.028110196813941002,-0.002772616920992732
1772789952628778000,12.503778076171875,-0.00971574429422617,-0.011093930341303349,-0.0075971996411681175
1772789952648813000,12.52381298828125,-0.008971923030912876,-0.0005597964627668262,-0.027890486642718315
1772789952668847000,12.54384716796875,0.004240551497787237,0.03837348893284798,-0.038779620081186295
1772789952688882000,12.5638818359375,0.007500793319195509,0.02197161130607128,-0.0158841572701931
1772789952708917000,12.5839169921875,-0.0009054747642949224,0.007969776168465614,0.009604956954717636
1772789952728951800,12.603951904296874,0.0024319987278431654,0.0036967338528484106,-0.004039749037474394
1772789952748986000,12.623986083984375,0.00959510263055563,0.024265924468636513,0.006277869455516338
1772789952769021000,12.64402099609375,0.00891120359301567,0.02660524472594261,0.0015062838792800903
1772789952789056000,12.664055908203125,0.003709783311933279,-0.0007574030314572155,0.008285360410809517
1772789952809090800,12.6840908203125,0.005519401282072067,0.028606077656149864,0.007444600574672222
1772789952829126000,12.7041259765625,0.01281752809882164,0.025172464549541473,0.02533172257244587
1772789952849160000,12.724159912109375,-0.000857005245052278,-0.007129548583179712,0.024863803759217262
1772789952869195000,12.744195068359375,-0.007018494885414839,-0.02369813807308674,0.013681191019713879
1772789952889230000,12.76422998046875,0.005111671518534422,0.021832061931490898,0.00939030572772026
1772789952909265200,12.78426513671875,0.0023009711876511574,-0.0019504991360008717,0.014731009490787983
1772789952929299000,12.804298828125,-0.024714134633541107,-0.006866960786283016,0.008509065955877304
1772789952949334000,12.824333984375,-0.003709516953676939,0.021752700209617615,-0.0014900385867804289
1772789952969368800,12.844368896484376,0.01245054416358471,0.0592460110783577,0.0258097592741251
1772789952989404000,12.86440380859375,-0.006000368390232325,-0.004159857518970966,0.03542430326342583
1772789953009439000,12.88443896484375,-0.014666561037302017,-0.0612788051366806,0.035407260060310364
1772789953029473000,12.90447314453125,-0.0012570120161399245,0.05682653188705444,-0.03911011666059494
1772789953049507800,12.9245078125,0.013828996568918228,0.07559675723314285,-0.036489568650722504
1772789953069543400,12.94454345703125,0.0013156015193089843,-0.016324644908308983,0.012429505586624146
1772789953089578500,12.96457861328125,-0.005527124274522066,-0.04412778094410896,0.0054216631688177586
1772789953109613300,12.98461328125,0.013105682097375393,0.007668306119740009,-0.017110276967287064
1772789953129647600,13.004647705078124,0.02419188804924488,0.051658134907484055,-0.012479306198656559
1772789953149682400,13.024682373046875,0.008264055475592613,0.02256070263683796,0.015506788156926632
1772789953169717200,13.04471728515625,-0.002007757080718875,0.006637396290898323,0.037751905620098114
1772789953189752300,13.06475244140625,0.0013140037190169096,0.013202620670199394,0.008779909461736679
1772789953209786400,13.084786376953126,-0.0024053670931607485,0.018305238336324692,0.0003534014686010778
1772789953229821400,13.104821533203125,-0.012080897577106953,0.014909973368048668,0.00845819991081953
1772789953249856500,13.1248564453125,-0.005587844643741846,0.04825461283326149,0.02130022831261158
1772789953269891600,13.1448916015625,0.011902731843292713,0.03918761759996414,0.013880128972232342
1772789953289926700,13.1649267578125,-0.005893575493246317,-0.013011139817535877,0.0029848709236830473
1772789953309960400,13.18496044921875,-0.014096111990511417,-0.0031641016248613596,0.001219461439177394
1772789953329995500,13.20499560546875,-0.0022176143247634172,0.04319833591580391,0.00836578756570816
1772789953350030300,13.2250302734375,0.0043808999471366405,0.04007711261510849,0.021767878904938698
1772789953370065400,13.2450654296875,0.00221921200864017,0.018282601609826088,0.024407338351011276
1772789953390099500,13.265099365234375,-0.00635057408362627,-0.0035627768374979496,-0.006363623309880495
1772789953410134300,13.28513427734375,-0.006103698629885912,0.03542696684598923,-0.0023521038237959146
1772789953430169300,13.30516943359375,0.002531068166717887,0.04682742804288864,0.0073511237278580666
1772789953450204400,13.325204345703124,-0.008756473660469055,0.005307147279381752,0.00720571493729949
1772789953470239500,13.345239501953126,-0.012058260850608349,-0.011054514907300472,0.01847168430685997
1772789953490273500,13.3652734375,0.003403519745916128,0.03900918364524841,-0.0021315941121429205
1772789953510308600,13.38530859375,0.003910053055733442,0.03802434727549553,-0.0001877528557088226
1772789953530343400,13.405343505859374,-0.00595509447157383,0.04210324585437775,-0.004132693167775869
1772789953550378200,13.425378173828125,-0.008317052386701107,0.0009142631897702813,0.0013725932221859694
1772789953570413300,13.445413330078125,-0.0014921691035851836,0.04000787064433098,-0.005510346498340368
1772789953590447400,13.465447265625,0.000222373942960985,0.02160782366991043,0.004476773552596569
1772789953610482400,13.485482421875,-0.0047060721553862095,0.0027539748698472977,0.006096241995692253
1772789953630517500,13.505517578125,-0.007232879288494587,0.0020788635592907667,-0.007960987277328968
1772789953650552600,13.525552490234375,-0.0025094966404139996,0.033118803054094315,-0.008394017815589905
1772789953670586400,13.54558642578125,0.0027691549621522427,0.03136324882507324,-0.008595085702836514
1772789953690621400,13.565621337890626,-0.004163586068898439,-0.004322576802223921,0.005146026145666838
1772789953710656500,13.585656494140625,0.0005928196478635073,-0.0015749934827908874,-0.012603675946593285
1772789953730691300,13.60569140625,0.005881591234356165,0.023986293002963066,-0.02544490620493889
1772789953750725600,13.6257255859375,0.013127253390848637,-0.002945456188172102,-0.003694869577884674
1772789953770760400,13.645760498046876,0.011562912724912167,-0.010658237151801586,0.007723433431237936
1772789953790795300,13.665795166015625,0.017620272934436798,0.01077008992433548,0.013169331476092339
1772789953810830300,13.685830322265625,0.03545732796192169,0.045636992901563644,-0.013449762016534805
1772789953830865400,13.705865478515625,0.030552849173545837,0.02514769695699215,-0.009934656322002411
1772789953850899500,13.7258994140625,0.015593340620398521,-0.027171166613698006,0.00959563534706831
1772789953870934500,13.7459345703125,0.014056430198252201,-0.023244336247444153,0.013701963238418102
1772789953890969600,13.765969482421875,0.01884053274989128,0.07270562648773193,-0.002490854589268565
1772789953911004400,13.78600439453125,0.029821544885635376,0.058693673461675644,0.004519917070865631
1772789953931039200,13.806039306640624,0.011856392957270145,-0.009454221464693546,0.0304561760276556
1772789953951073500,13.826073486328125,-0.0022716764360666275,-0.008678442798554897,0.0006061354652047157
1772789953971108400,13.8461083984375,0.01859765313565731,0.032288432121276855,-0.014638597145676613
1772789953991143400,13.866143310546875,0.023197464644908905,0.021708490327000618,0.009731722995638847
1772789954011178500,13.886178466796874,0.01125398650765419,0.01258103922009468,0.02461586333811283
1772789954031212300,13.90621240234375,0.01956225000321865,0.0184655599296093,0.022237394005060196
1772789954051247400,13.926247314453125,0.01847914233803749,0.014623151160776615,0.013253487646579742
1772789954071282400,13.946282470703125,0.008105597458779812,0.011817244812846184,0.015184812247753143
1772789954091317500,13.9663173828125,0.008530370891094208,0.025110678747296333,0.023674702271819115
1772789954111352300,13.986352294921875,0.011182880029082298,0.042993538081645966,0.02172233909368515
1772789954131386600,14.00638671875,0.01068060752004385,0.025043834000825882,0.022361764684319496
1772789954151421200,14.026421142578124,0.010968761518597603,0.003367300843819976,0.01895877718925476
1772789954171456300,14.046456298828126,0.014692925848066807,0.016475379467010498,0.018939336761832237
1772789954191491300,14.0664912109375,0.024277908727526665,0.0423184297978878,0.043119508773088455
1772789954211525400,14.086525390625,0.03344477713108063,0.045456964522600174,0.05059393495321274
1772789954231560400,14.106560546875,0.028081435710191727,0.008044877089560032,0.030070018023252487
1772789954251595500,14.126595458984376,0.023060578852891922,0.016927851364016533,0.029835127294063568
1772789954271630600,14.146630615234375,0.03237232193350792,0.008420382626354694,0.06033923849463463
1772789954291665400,14.16666552734375,0.02178838662803173,0.01980406418442726,0.03566505387425423
1772789954311699500,14.186699462890624,0.02701457403600216,0.030292125418782234,0.02653653547167778
1772789954331734500,14.206734619140626,0.03290415555238724,0.056342899799346924,0.038429681211709976
1772789954351769300,14.226769287109375,0.017603760585188866,0.025308020412921906,0.03777667507529259
1772789954371804400,14.246804443359375,0.010014018043875694,0.004954012110829353,0.03464186564087868
1772789954391838200,14.266838134765624,0.017525197938084602,0.02893391251564026,0.016079101711511612
1772789954411873300,14.286873291015626,0.0167936272919178,0.028864404186606407,-0.013468137942254543
1772789954431908400,14.306908447265625,0.017043964937329292,0.03720196336507797,-0.01673583686351776
1772789954451943400,14.326943359375,0.011458250693976879,0.032225579023361206,0.0005691175465472043
1772789954471978500,14.346978515625,0.008855809457600117,0.005702626891434193,0.013025786727666855
1772789954492012500,14.367012451171876,0.00965529028326273,0.009153816848993301,-0.0028125643730163574
1772789954512047600,14.387047607421875,0.006405967753380537,0.025356488302350044,-0.010297112166881561
1772789954532082400,14.40708251953125,-0.0013757890556007624,-0.001166198286227882,0.004560663364827633
1772789954552117200,14.4271171875,-0.01281672902405262,-0.006914631463587284,0.01612650603055954
1772789954572151300,14.4471513671875,-0.014483335427939892,0.018879681825637817,0.015398130752146244
1772789954592186400,14.467186279296875,-0.02142832614481449,0.012828713282942772,0.014333931729197502
1772789954612221400,14.487221435546875,-0.033495109528303146,-0.008817460387945175,-0.004828577395528555
1772789954632256500,14.507256591796875,-0.03472628816962242,0.013916614465415478,-0.004432831425219774
1772789954652291600,14.52729150390625,-0.020265856757760048,0.014999455772340298,0.008156463503837585
1772789954672325400,14.547325439453125,-0.028979986906051636,0.01134107168763876,0.0211297869682312
1772789954692360400,14.5673603515625,-0.020308200269937515,-0.0057652113027870655,0.017115337774157524
1772789954712395500,14.5873955078125,-0.0062371231615543365,0.02239185757935047,-0.015037539415061474
1772789954732430300,14.607430419921876,0.006347378250211477,0.05199022963643074,-0.020378241315484047
1772789954752464600,14.627464599609375,0.009554889053106308,0.02382597140967846,0.009771670214831829
1772789954772499200,14.647499267578125,0.0062946476973593235,-0.0007339671719819307,0.020301809534430504
1772789954792534300,14.6675341796875,0.010352772660553455,-0.010898720473051071,0.000014381069377122913
1772789954812569300,14.6875693359375,0.01224308367818594,0.023128489032387733,-0.007732754573225975
1772789954832604400,14.7076044921875,0.011302988044917583,0.020483437925577164,-0.00014620754518546164
1772789954852638500,14.727638427734375,0.01641838811337948,0.026647323742508888,0.007053115870803595
1772789954872673500,14.747673583984374,0.017405888065695763,0.029159482568502426,0.01248196978121996
1772789954892708600,14.76770849609375,0.017134511843323708,0.03356089070439339,0.022119417786598206
1772789954912743400,14.787743408203125,0.002823749789968133,-0.00029294771957211196,0.01136717014014721
1772789954932777500,14.807777587890625,-0.004809935111552477,0.025779400020837784,0.011722968891263008
1772789954952812500,14.8278125,0.0031220237724483013,0.062129948288202286,0.010323477908968925
1772789954972847400,14.847847412109376,0.000853809411637485,0.0658610388636589,0.019846942275762558
1772789954992882400,14.86788232421875,-0.01793345995247364,0.030070284381508827,0.004027764778584242
1772789955012917500,14.88791748046875,-0.018194183707237244,0.04024622216820717,-0.015730759128928185
1772789955032951300,14.907951416015624,0.008757539093494415,0.05126185715198517,-0.01661173440515995
1772789955052986400,14.927986328125,0.018865033984184265,0.047683633863925934,-0.008331699296832085
1772789955073020700,14.948020751953125,0.02364674024283886,0.020202206447720528,-0.030310502275824547
1772789955093055700,14.9680556640625,0.024019315838813782,-0.025672873482108116,-0.026143986731767654
1772789955113090800,14.9880908203125,0.023927170783281326,0.0051862397231161594,-0.02870701253414154
1772789955133124600,15.00812451171875,0.04399515315890312,0.05645262449979782,-0.0255101528018713
1772789955153159700,15.02815966796875,0.0468633808195591,0.022877885028719902,0.0018104169284924865
1772789955173194800,15.04819482421875,0.041900310665369034,-0.039332758635282516,0.027892617508769035
1772789955193229600,15.0682294921875,0.03760197013616562,-0.005404352676123381,0.0035262915771454573
1772789955213264000,15.088263916015626,0.039982303977012634,0.04844290018081665,-0.006901049055159092
1772789955233298700,15.108298583984375,0.03723525255918503,0.018690064549446106,-0.0000756337758502923
1772789955253333500,15.12833349609375,0.017740648239850998,-0.02834029495716095,0.00697881355881691
1772789955273368600,15.14836865234375,0.02628992684185505,-0.013380520045757294,-0.0298503078520298
1772789955293403600,15.168403564453126,0.030943002551794052,0.03177683800458908,-0.04536668211221695
1772789955313437700,15.188437744140625,0.030421288684010506,0.015179218724370003,-0.03145752474665642
1772789955333472800,15.20847265625,0.027170101180672646,-0.019113773480057716,-0.015082812868058681
1772789955353507800,15.2285078125,0.023969780653715134,0.0007933556917123497,-0.020021645352244377
1772789955373543000,15.24854296875,0.034989673644304276,0.013622867874801159,-0.02658660337328911
1772789955393576700,15.26857666015625,0.034213364124298096,0.0013622068800032139,-0.028020981699228287
1772789955413611800,15.28861181640625,0.0298476442694664,0.014844992198050022,-0.032945431768894196
1772789955433646600,15.308646484375,0.041489120572805405,0.022770293056964874,-0.025260083377361298
1772789955453681700,15.328681640625,0.0412297286093235,0.02977707050740719,-0.0030597057193517685
1772789955473716700,15.348716796875,0.027530694380402565,0.011224690824747086,0.014284131117165089
1772789955493750500,15.36875048828125,0.0193723663687706,0.000984836951829493,0.013166136108338833
1772789955513785600,15.38878564453125,0.019511649385094643,0.006347378250211477,-0.0043683829717338085
1772789955533820700,15.408820556640626,0.016645556315779686,0.0379609651863575,-0.007518103811889887
1772789955553855700,15.428855712890625,0.01414537988603115,0.04814595729112625,0.004042944870889187
1772789955573889800,15.448889892578125,0.010149306617677212,0.03032781183719635,0.01998595893383026
1772789955593924900,15.4689248046875,0.006982275750488043,-0.010027866810560226,0.03166605159640312
1772789955613959700,15.488959716796876,0.0031577101908624172,-0.006310892757028341,-0.014319817535579205
1772789955633994500,15.508994384765625,0.013912353664636612,0.03730369731783867,-0.015179218724370003
1772789955654029600,15.529029541015625,0.006691991351544857,0.027283286675810814,0.013937386684119701
1772789955674063600,15.549063720703124,-0.005477855913341045,0.03345676138997078,0.030374150723218918
1772789955694098700,15.5690986328125,0.0028687571175396442,-0.004772917367517948,0.03427727892994881
1772789955714133800,15.5891337890625,-0.0073348782025277615,0.011893411166965961,0.0005017395596951246
1772789955734168800,15.6091689453125,-0.006611297372728586,-0.0009382316493429244,-0.014110492542386055
1772789955754202600,15.62920263671875,-0.012805543839931488,0.03738598898053169,-0.03483015298843384
1772789955774237700,15.64923779296875,-0.015092133544385433,0.030400250107049942,-0.005513542331755161
1772789955794272800,15.669272705078125,-0.01841336116194725,0.04505349323153496,0.016984310001134872
1772789955814307600,15.6893076171875,-0.015192002058029175,0.0000697748182574287,0.02406432293355465
1772789955834342700,15.7093427734375,-0.021316207945346832,-0.023998543620109558,0.012981578707695007
1772789955854376400,15.72937646484375,-0.02971741557121277,-0.020592093467712402,-0.031241541728377342
1772789955874411500,15.74941162109375,-0.02953818440437317,0.047088947147130966,-0.028310999274253845
1772789955894446600,15.769446533203125,-0.0298489760607481,0.049133457243442535,-0.012449212372303009
1772789955914481700,15.789481689453124,-0.0473715104162693,-0.01008086372166872,0.002906840294599533
1772789955934515700,15.809515625,-0.04724287986755371,-0.006588927004486322,-0.01618908904492855
1772789955954550800,15.82955078125,-0.033727604895830154,0.014724884182214737,-0.030011162161827087
1772789955974585900,15.8495859375,-0.04091600701212883,0.012797287665307522,-0.020307136699557304
1772789955994620700,15.86962060546875,-0.050329484045505524,0.03652525320649147,-0.022894397377967834
1772789956014655500,15.889655517578126,-0.03753405809402466,0.013236709870398045,-0.01468466967344284
1772789956034689800,15.909689697265625,-0.03206659108400345,0.009163671173155308,-0.0005645901546813548
1772789956054724600,15.929724609375,-0.03026442788541317,0.017005348578095436,-0.004223507363349199
1772789956074759700,15.949759765625,-0.02076786197721958,0.030125411227345467,0.007123955991119146
1772789956094794800,15.969794677734376,-0.00512951472774148,0.05891444906592369,0.01848100684583187
1772789956114828800,15.989828857421875,-0.0009598032338544726,0.02521773800253868,0.03080398589372635
1772789956134861800,16.00986181640625,-0.010603109374642372,0.05485525727272034,0.02190849371254444
1772789956154896600,16.029896728515624,0.008267250843346119,0.039269641041755676,-0.007501325570046902
1772789956174930700,16.0499306640625,-0.00033182985498569906,0.007252852898091078,-0.007473096251487732
1772789956194965800,16.0699658203125,0.0036370791494846344,0.011499796062707901,0.013146162033081055
1772789956215000800,16.090000732421874,0.024564465507864952,0.05173217132687569,0.0017065536230802536
1772789956235036000,16.110035888671874,0.019716180860996246,0.0528714694082737,0.006134058814495802
1772789956255070700,16.13007080078125,-0.001945705502294004,-0.0335070937871933,0.01678723655641079
1772789956275104800,16.150104736328124,-0.011981029063463211,-0.04192135110497475,-0.010920025408267975
1772789956295139800,16.170139892578124,-0.003591539105400443,0.0630577951669693,-0.027287546545267105
1772789956315175000,16.1901748046875,-0.00007190534961409867,0.07841251790523529,-0.011424162425100803
1772789956335209700,16.210209716796875,-0.025249697268009186,-0.013769075274467468,0.02347523160278797
1772789956355243800,16.230243896484374,-0.040659014135599136,-0.09493343532085419,0.011590875685214996
1772789956375278600,16.250278564453126,-0.020742563530802727,0.014403706416487694,-0.006431001238524914
1772789956395313700,16.270313720703125,-0.0070488546043634415,0.08176597207784653,-0.0023465112317353487
1772789956415348700,16.2903486328125,-0.02022617496550083,0.016802148893475533,0.032046083360910416
1772789956435383800,16.3103837890625,-0.019812054932117462,-0.029824474826455116,0.035599540919065475
1772789956455417900,16.33041796875,-0.01513181533664465,-0.039621446281671524,0.009617207571864128
1772789956475453000,16.350452880859375,-0.010662231594324112,0.003665574826300144,0.02129303850233555
1772789956495487700,16.37048779296875,-0.004063983913511038,0.057740528136491776,0.037513021379709244
1772789956515522800,16.390522705078126,-0.008800415322184563,0.01606498658657074,0.03852741792798042
1772789956535556900,16.410556884765626,-0.021344169974327087,-0.023184148594737053,0.026027338579297066
1772789956555592000,16.430592041015625,-0.013590909540653229,0.024683775380253792,0.014091583900153637
1772789956575626800,16.450626708984377,-0.003567304229363799,0.03700009733438492,0.00005832322858623229
1772789956595661800,16.470661865234376,-0.009221195243299007,-0.0012775183422490954,0.0008106662426143885
1772789956615697000,16.49069677734375,-0.00996421743184328,0.02105255424976349,0.0004828310920856893
1772789956635730700,16.510730712890624,-0.0010639328975230455,0.02135508880019188,0.008114385418593884
1772789956655765800,16.530765869140627,-0.005859486758708954,-0.014872157014906406,0.014403706416487694
1772789956675800800,16.55080078125,-0.008579639717936516,0.008567122742533684,0.0015845808666199446
1772789956695836000,16.5708359375,-0.004307929426431656,0.05408427491784096,-0.019052786752581596
1772789956715870000,16.590869873046874,-0.010014550760388374,0.0008884305134415627,0.008589493110775948
1772789956735904800,16.61090478515625,-0.021574001759290695,-0.03965819627046585,0.021879998967051506
1772789956755939800,16.63093994140625,-0.020605942234396935,0.01967543363571167,-0.00887711439281702
1772789956775974700,16.650974609375,-0.009267001412808895,0.06211556866765022,-0.012345615774393082
1772789956796009700,16.671009765625,-0.019515112042427063,0.0062461779452860355,0.013290504924952984
1772789956816043800,16.691043701171875,-0.02737223543226719,-0.029499301686882973,0.025837723165750504
1772789956836078800,16.711078857421874,-0.01512861903756857,0.010088587179780006,0.007541805971413851
1772789956856114000,16.731114013671874,-0.0027563716284930706,0.020984111353754997,0.006109823938459158
1772789956876148700,16.751148681640625,-0.006935936864465475,0.0006237123161554337,0.017470603808760643
1772789956896183800,16.771183837890625,-0.008129299618303776,-0.0017022925894707441,0.03122689574956894
1772789956916217900,16.7912177734375,-0.002201901515945792,0.0357460118830204,0.033852506428956985
1772789956936253000,16.8112529296875,0.0010330402292311192,0.024285364896059036,0.048889510333538055
1772789956956287700,16.831287841796875,-0.013600497506558895,-0.019540145993232727,0.044803958386182785
1772789956976322800,16.85132275390625,-0.01973721943795681,-0.01889672502875328,0.03688185289502144
1772789956996356600,16.871356689453126,-0.01842028647661209,-0.0008463526028208435,0.019996877759695053
1772789957016391700,16.8913916015625,-0.012811402790248394,0.010162889026105404,-0.0026666230987757444
1772789957036426800,16.9114267578125,-0.018704712390899658,-0.05289330706000328,-0.009502691216766834
1772789957056461800,16.9314619140625,-0.024583905935287476,-0.022719958797097206,-0.001142496126703918
1772789957076496600,16.95149658203125,-0.018328940495848656,-0.010548514313995838,-0.013878265395760536
1772789957096530700,16.97153076171875,-0.005918875336647034,-0.019900204613804817,-0.004538825247436762
1772789957116565800,16.991565673828124,-0.006083991378545761,-0.04608174040913582,-0.014098774641752243
1772789957136600600,17.0116005859375,-0.007650995627045631,-0.03242611512541771,-0.018327608704566956
1772789957156635600,17.0316357421875,-0.011657721363008022,0.00029108350281603634,0.006342051550745964
1772789957176669700,17.051669677734374,-0.01332832220941782,-0.05270848423242569,0.009476060047745705
1772789957196704500,17.07170458984375,-0.028906483203172684,-0.10217750072479248,-0.006843791343271732
1772789957216739600,17.091739501953125,-0.022360432893037796,-0.09269291907548904,-0.018140388652682304
1772789957236774700,17.111774658203124,-0.02185096964240074,-0.03405969962477684,-0.012701946310698986
1772789957256809500,17.1318095703125,-0.0036962011363357306,-0.009798035956919193,0.045707300305366516
1772789957276843500,17.151843505859375,0.02430773712694645,-0.054783619940280914,0.030785076320171356
1772789957296878600,17.171878662109375,0.020360931754112244,-0.029325930401682854,-0.01660427637398243
1772789957316913700,17.19191357421875,0.01894412934780121,0.002513491315767169,0.013766412623226643
1772789957336948700,17.21194873046875,0.01974387653172016,0.05350770056247711,0.03377367556095123
1772789957356982800,17.231982666015625,0.00785472709685564,0.10762126743793488,0.019184080883860588
1772789957377017600,17.252017578125,0.00962786003947258,0.1138506680727005,0.004815794061869383
1772789957397052400,17.272052490234376,0.027942685410380363,0.051036287099123,0.0036453348584473133
1772789957417087500,17.29208740234375,-0.00643712654709816,-0.018929217010736465,-0.023788420483469963
1772789957437122600,17.31212255859375,0.010041981004178524,-0.03652631863951683,0.008686698973178864
1772789957457156600,17.332156494140627,0.021940186619758606,-0.01449824869632721,0.0009563411585986614
1772789957477191700,17.352191650390626,0.025665415450930595,0.04265345260500908,-0.01906929910182953
1772789957497226500,17.3722265625,0.038547392934560776,0.06288761645555496,0.002722283359616995
1772789957517261600,17.392261474609374,0.02996242605149746,-0.01215866208076477,0.01926424168050289
1772789957537295600,17.412295654296877,0.020964138209819794,-0.06347564607858658,0.03190413862466812
1772789957557330700,17.43233056640625,0.03128894791007042,0.014356834813952446,0.023517576977610588
1772789957577365800,17.45236572265625,0.034988343715667725,0.07539515197277069,0.006415022537112236
1772789957597400600,17.472400634765624,0.025430791079998016,0.017973674461245537,0.022105302661657333
1772789957617435600,17.492435546875,0.008534366264939308,-0.043768785893917084,0.03459792584180832
1772789957637469400,17.512469482421874,0.014682007022202015,0.002454369328916073,0.022293854504823685
1772789957657504500,17.53250439453125,0.02202274464070797,0.07084887474775314,0.022778814658522606
1772789957677539600,17.55253955078125,0.00436092633754015,0.06738117337226868,0.031560856848955154
1772789957697574700,17.57257470703125,-0.00021172130072955042,0.009884055703878403,0.021942583844065666
1772789957717608700,17.592608642578124,0.00011371697473805398,-0.006755907088518143,-0.019569972530007362
1772789957737643500,17.6126435546875,0.008431301452219486,0.01233363151550293,-0.022175876423716545
1772789957757678600,17.6326787109375,0.011866779066622257,0.016710536554455757,0.001728924224153161
1772789957777713700,17.652713623046875,0.02046319656074047,-0.007666175253689289,0.02118944190442562
1772789957797747700,17.672747802734374,0.027875572443008423,0.018979016691446304,-0.004221909213811159
1772789957817782500,17.692782470703126,0.03945606201887131,0.03856736421585083,-0.02178865298628807
1772789957837817600,17.712817626953125,0.03419472277164459,0.02269332855939865,0.014772821217775345
1772789957857852700,17.732852783203125,0.030369888991117477,0.005846437532454729,0.03316594287753105
1772789957877887500,17.752887451171876,0.03376409038901329,-0.018821891397237778,0.01417574007064104
1772789957897921500,17.772921630859376,0.023542877286672592,0.004279433749616146,-0.004367318004369736
1772789957917956600,17.79295654296875,0.02786172553896904,0.031062312424182892,-0.008645419962704182
1772789957937991700,17.81299169921875,0.025921344757080078,0.034518029540777206,0.018632806837558746
1772789957958026800,17.83302685546875,0.013213805854320526,0.032702285796403885,0.03307193145155907
1772789957978061600,17.8530615234375,0.012680108658969402,0.024814801290631294,0.012742427177727222
1772789957998095600,17.873095703125,0.008377505466341972,0.03423946350812912,0.0022772690281271935
1772789958018130400,17.89313037109375,0.0031366711482405663,-0.0013073458103463054,0.004748416133224964
1772789958038165500,17.91316552734375,-0.017178986221551895,0.029354427009820938,0.018911372870206833
1772789958058200600,17.93320068359375,-0.0005257080192677677,0.04267928749322891,0.024448884651064873
1772789958078235000,17.95323486328125,-0.004989698529243469,0.02574451081454754,0.023077089339494705
1772789958098270000,17.97327001953125,-0.02191169001162052,0.005907690152525902,0.0033694314770400524
1772789958118305000,17.993304931640626,-0.013553093187510967,0.003944940399378538,-0.008596151135861874
1772789958138340000,18.013340087890626,-0.007306382525712252,0.00929203536361456,0.008461661636829376
1772789958158374100,18.0333740234375,-0.025113075971603394,0.058821771293878555,0.010068879462778568
1772789958178409000,18.053408935546877,-0.023325296118855476,0.03285941109061241,0.010247045196592808
1772789958198443800,18.07344384765625,0.001032507512718439,0.00006205165118444711,0.021751634776592255
1772789958218478800,18.093478759765624,0.0002716424351092428,-0.0009595369338057935,0.01774464175105095
1772789958238514000,18.113513916015624,-0.0038248319178819656,0.026561569422483444,0.02600204013288021
1772789958258548000,18.1335478515625,0.009883522987365723,0.05072789266705513,0.013913950882852077
1772789958278583000,18.1535830078125,0.011622834019362926,0.007164435926824808,0.012692092917859554
1772789958298618000,18.1736181640625,-0.001252484624274075,-0.0031678301747888327,0.030778419226408005
1772789958318653000,18.19365283203125,0.0002985403698403388,0.009755691513419151,0.007274956908077002
1772789958338687000,18.21368701171875,-0.00032384038786403835,0.039802540093660355,0.014211692847311497
1772789958358722000,18.23372216796875,-0.001745968358591199,0.025426264852285385,0.026016686111688614
1772789958378757000,18.253757080078124,-0.014257232658565044,0.03292146325111389,-0.015116634778678417
1772789958398792000,18.2737919921875,-0.02046133205294609,0.0005227785441093147,-0.014878015965223312
1772789958418827000,18.293826904296875,-0.019881829619407654,-0.00615270109847188,-0.0003712446487043053
1772789958438860800,18.31386083984375,-0.005541505757719278,0.02473064698278904,-0.008745022118091583
1772789958458896000,18.333895751953126,-0.005109807010740042,0.068132184445858,-0.0062642875127494335
1772789958478931000,18.353930908203125,0.005137237720191479,0.025593243539333344,0.024345552548766136
1772789958498966000,18.373966064453125,-0.0002079928817693144,-0.019828032702207565,0.038892537355422974
1772789958519000000,18.394,-0.00005193164179218002,-0.008614793419837952,-0.02473464049398899
1772789958539035100,18.41403515625,0.007961253635585308,0.01648842915892601,0.0038256309926509857
1772789958559070000,18.434070068359375,-0.0027206854429095984,0.04478824511170387,0.02701856754720211
1772789958579105000,18.45410498046875,0.0037681066896766424,0.035110581666231155,0.04001852124929428
1772789958599139800,18.474139892578126,0.007318366784602404,0.0020362529903650284,0.015097726136446
1772789958619174000,18.494173828125,-0.00027297402266412973,-0.01866289973258972,0.00016698020044714212
1772789958639209000,18.514208984375,0.0032834112644195557,0.02442571520805359,-0.00018429075134918094
1772789958659244000,18.534244140625,0.007959921844303608,0.05163629725575447,0.005682386923581362
1772789958679278800,18.55427880859375,0.01227743923664093,0.03230227902531624,-0.004881574306637049
1772789958699313000,18.57431298828125,0.011766111478209496,-0.00854714959859848,-0.022161228582262993
1772789958719348000,18.594347900390623,0.007066431455314159,0.004306331276893616,-0.009410812519490719
1772789958739383000,18.614383056640627,0.008356200531125069,0.04734434559941292,0.02311250939965248
1772789958759418000,18.634418212890626,0.018426943570375443,0.026606043800711632,0.018637865781784058
1772789958779453000,18.654452880859374,0.01859925128519535,0.004989698529243469,0.005660815164446831
1772789958799487000,18.674487060546873,0.015037539415061474,0.01173415407538414,-0.007376956287771463
1772789958819521800,18.694521728515625,0.02069888636469841,0.01810603402554989,-0.001330249011516571
1772789958839556900,18.714556884765624,0.013157879933714867,0.006499977316707373,-0.010016681626439095
1772789958859592000,18.734592041015624,0.012775716371834278,0.014345649629831314,0.005595301277935505
1772789958879626000,18.7546259765625,0.01967436820268631,0.03867655619978905,-0.0009334379574283957
1772789958899661000,18.7746611328125,0.01537362951785326,0.002972354181110859,-0.019207783043384552
1772789958919696000,18.79469580078125,0.004061853047460318,-0.025047563016414642,-0.005655222572386265
1772789958939731000,18.81473095703125,-0.0016769925132393837,-0.01546284556388855,-0.007015299052000046
1772789958959766000,18.83476611328125,-0.0030125677585601807,0.010365023277699947,0.00032623723382130265
1772789958979800000,18.854800048828125,-0.002566754585132003,0.017767544835805893,-0.004324440844357014
1772789958999835100,18.874835205078124,-0.013217534869909286,-0.012411662377417088,0.004140949342399836
1772789959019870000,18.894869873046876,-0.023374298587441444,-0.03732713311910629,0.011122159659862518
1772789959039905000,18.914905029296875,-0.01985732838511467,-0.004579837899655104,-0.018436796963214874
1772789959059938800,18.934938720703126,-0.012939766980707645,-0.009075786918401718,-0.013010340742766857
1772789959079974000,18.954973876953126,-0.022465094923973083,-0.027710190042853355,0.012267851270735264
1772789959100009000,18.975009033203126,-0.01708071678876877,-0.026812173426151276,0.01649375632405281
1772789959120044000,18.9950439453125,-0.007964715361595154,0.02526753954589367,-0.0038309572264552116
1772789959140079000,19.0150791015625,-0.007165235001593828,0.02851819433271885,0.012834039516746998
1772789959160113000,19.03511279296875,-0.0153738958761096,-0.00983452145010233,0.017897507175803185
1772789959180148000,19.05514794921875,-0.0254606194794178,-0.01085957232862711,-0.007023288402706385
1772789959200183000,19.07518310546875,-0.010231065563857555,0.006843258626759052,-0.008218514733016491
1772789959220217900,19.0952177734375,-0.00803395826369524,0.04001373052597046,-0.006222209427505732
1772789959240252000,19.115251953125,-0.01125292107462883,0.03211159631609917,0.008925584144890308
1772789959260286700,19.13528662109375,-0.006631270982325077,0.009637180715799332,-0.0040765004232525826
1772789959280321800,19.15532177734375,0.004592354875057936,-0.004989964887499809,-0.013124857097864151
1772789959300356900,19.17535693359375,0.0034767568577080965,0.008345281705260277,-0.026009762659668922
1772789959320392000,19.195391845703124,0.005510080140084028,0.014944061636924744,-0.031035946682095528
1772789959340426000,19.215426025390624,0.005849367007613182,0.01992124319076538,-0.0054389736615121365
1772789959360461000,19.2354609375,0.009679525159299374,0.005774265620857477,0.00392709719017148
1772789959380496100,19.25549609375,0.014857242815196514,0.007012635935097933,-0.003334810258820653
1772789959400530700,19.27553076171875,0.017611484974622726,0.043422043323516846,-0.039678968489170074
1772789959420565000,19.29556494140625,0.013675065711140633,0.03533056005835533,-0.016167784109711647
1772789959440599800,19.315599853515625,-0.006405435036867857,0.012318451888859272,0.016089487820863724
1772789959460635000,19.335634765625,-0.014036190696060658,0.012005263939499855,0.019964653998613358
1772789959480670000,19.355669921875,-0.009185242466628551,0.0408419705927372,-0.015672702342271805
1772789959500705000,19.375705078125,-0.004509796854108572,0.03591246157884598,-0.0018698053900152445
1772789959520738800,19.39573876953125,-0.021263476461172104,0.016759539023041725,-0.0021632856223732233
1772789959540774000,19.41577392578125,-0.005542038008570671,0.045093175023794174,-0.004049070179462433
1772789959560809000,19.43580908203125,0.008621185086667538,0.04470169171690941,-0.014101438224315643
1772789959580844000,19.455843994140626,-0.006924218963831663,0.012325908057391644,-0.017527328804135323
1772789959600878000,19.475878173828125,-0.010292585007846355,0.019708190113306046,-0.023147396743297577
1772789959620913200,19.4959130859375,0.002039981307461858,0.03874020650982857,-0.015164838172495365
1772789959640947700,19.51594775390625,-0.007072823122143745,0.026388464495539665,-0.023188410326838493
1772789959660982800,19.535982666015624,-0.00926300697028637,0.013895043171942234,-0.052799299359321594
1772789959681017900,19.556017822265623,-0.0027483822777867317,0.009349293075501919,-0.054540473967790604
1772789959701052000,19.576052001953126,-0.004018709994852543,0.01613556034862995,-0.03701953589916229
1772789959721087000,19.5960869140625,-0.007376956287771463,0.03972344473004341,-0.013666809536516666
1772789959741122000,19.6161220703125,0.006041913293302059,0.02665557898581028,0.00797110702842474
1772789959761157000,19.6361572265625,0.008619320578873158,-0.008569253608584404,-0.0016855146968737245
1772789959781191000,19.65619091796875,0.009065666235983372,-0.03315103054046631,-0.0018186726374551654
1772789959801226000,19.67622607421875,-0.0015544871566817164,0.01684316247701645,-0.014455371536314487
1772789959821261000,19.696260986328124,0.003102582646533847,0.049674347043037415,0.001895105466246605
1772789959841296000,19.7162958984375,-0.011455853469669819,0.017535317689180374,0.02250637486577034
1772789959861331000,19.7363310546875,-0.01338664535433054,-0.011411112733185291,0.02491973154246807
1772789959881364700,19.75636474609375,-0.008746886625885963,0.00031851406674832106,-0.019845610484480858
1772789959901399800,19.77639990234375,0.0019979034550487995,0.0092923017218709,-0.005222725216299295
1772789959921435000,19.796434814453125,-0.004517520312219858,0.013976802118122578,0.013076920062303543
1772789959941470000,19.816469970703125,0.0037835529074072838,0.018374213948845863,0.0022101574577391148
1772789959961504000,19.83650390625,0.006599845830351114,0.04614219442009926,-0.011742942035198212
1772789959981539000,19.8565390625,0.006870955694466829,0.0202791728079319,-0.02486060932278633
1772789960001574100,19.87657421875,-0.0016761935548856854,0.001972337020561099,0.005649363622069359
1772789960021608700,19.896608642578126,0.008863532915711403,-0.005602225661277771,-0.00042637207661755383
1772789960041643000,19.91664306640625,0.013192234560847282,0.004253867082297802,-0.03414012864232063
1772789960061677800,19.936677734375,0.007160441018640995,0.030817566439509392,-0.018927086144685745
1772789960081712000,19.956712158203125,0.015208248049020767,0.030650587752461433,-0.00040613205055706203
1772789960101747200,19.976747314453124,0.006563093978911638,0.04373975843191147,-0.0220941174775362
1772789960121782000,19.996781982421876,0.0047260457649827,0.004236023873090744,-0.007274424657225609
1772789960141816000,20.016816162109375,-0.0025683525018393993,-0.005082643125206232,0.012402873486280441
1772789960161851100,20.03685107421875,0.0030623688362538815,0.0474383570253849,-0.000693220819812268
1772789960181886200,20.05688623046875,0.005013400688767433,0.05672666057944298,0.018907910212874413
1772789960201921300,20.07692138671875,-0.007284810766577721,0.02081606537103653,0.038782283663749695
1772789960221955000,20.096955078125,-0.01010829396545887,-0.012880112044513226,0.006058158818632364
1772789960241990100,20.116990234375,-0.009406817145645618,0.00015339808305725455,-0.008598282001912594
1772789960262025200,20.137025146484376,-0.0059537626802921295,0.0365324430167675,-0.012381568551063538
1772789960282060000,20.15706005859375,-0.012871324084699154,0.03849945589900017,0.010086989030241966
1772789960302095000,20.17709521484375,-0.009633452631533146,0.011225223541259766,0.016211194917559624
1772789960322129200,20.197129150390627,0.0036788906436413527,0.0019244002178311348,0.00974450632929802
1772789960342164200,20.217164306640626,0.013127786107361317,0.005249090492725372,-0.012179434299468994
1772789960362199000,20.237198974609374,0.005119128152728081,0.01008192915469408,-0.016706541180610657
1772789960382234000,20.257234130859374,0.007044061087071896,0.04152480512857437,-0.01721653714776039
1772789960402268200,20.27726806640625,0.02022191509604454,0.04742584004998207,-0.013084109872579575
1772789960422303200,20.29730322265625,0.013064403086900711,0.0442071408033371,-0.006567088887095451
1772789960442338300,20.31733837890625,0.011406585574150085,0.037699975073337555,-0.030643662437796593
1772789960462373400,20.337373291015624,0.005292499903589487,-0.010944526642560959,-0.025530127808451653
1772789960482408200,20.357408203125,-0.005053082015365362,-0.010773285292088985,-0.02279585972428322
1772789960502442200,20.377442138671874,-0.0018724685069173574,0.02316870167851448,-0.0015044197207316756
1772789960522477000,20.39747705078125,-0.008439557626843452,-0.0017675400013104081,0.015728896483778954
1772789960542512000,20.41751220703125,-0.011596201919019222,-0.008176969364285469,0.01955106481909752
1772789960562548200,20.43754833984375,-0.002525475574657321,0.014826616272330284,0.019033612683415413
1772789960582583300,20.457583251953125,0.005763613153249025,0.051355600357055664,0.027248932048678398
1772789960602617300,20.477617431640624,0.00166607357095927,0.0265333391726017,0.02137133479118347
1772789960622652400,20.49765234375,0.0068312743678689,-0.00037923414492979646,0.057079531252384186
1772789960642687000,20.51768701171875,0.016229037195444107,-0.0009829727932810783,0.05472183600068092
1772789960662722000,20.53772216796875,0.009839314967393875,0.06410708278417587,0.03904140740633011
1772789960682757000,20.557757080078126,0.0054906392470002174,0.04134584218263626,0.026491528376936913
1772789960702791200,20.577791259765625,0.00890854001045227,-0.008105597458779812,0.017835456877946854
1772789960722826200,20.597826171875,0.0028644960839301348,0.022068817168474197,-0.005230714567005634
1772789960742861300,20.617861328125,0.009727195836603642,0.02105734869837761,-0.003745736088603735
1772789960762896100,20.637896240234376,0.007237140089273453,0.02684652805328369,-0.010399111546576023
1772789960782930200,20.65793017578125,0.020626980811357498,0.026622556149959564,-0.022711170837283134
1772789960802965200,20.67796533203125,0.018665563315153122,0.03500991687178612,-0.029380792751908302
1772789960823000300,20.698000244140626,0.008834238164126873,0.024328509345650673,-0.02154896780848503
1772789960843035100,20.71803515625,0.0018157431622967124,0.05396070331335068,0.000019707391402334906
1772789960863070200,20.7380703125,0.029472671449184418,0.12252618372440338,-0.02329307235777378
1772789960883104000,20.75810400390625,0.02659938670694828,0.07168351113796234,-0.01667751371860504
1772789960903139000,20.77813916015625,0.014615427702665329,0.08289381861686707,-0.03569541126489639
1772789960923174100,20.798174072265624,0.022836606949567795,0.027939489111304283,-0.0019747340120375156
1772789960943209200,20.818209228515624,0.03541950881481171,-0.15196876227855682,0.04157940298318863
1772789960963243300,20.8382431640625,0.08348610252141953,-0.22599424421787262,0.06584133207798004
1772789960983278300,20.8582783203125,0.034453049302101135,-0.14891491830348969,0.03785070776939392
1772789961003313200,20.878313232421874,-0.013823137618601322,-0.05565793439745903,-0.021262411028146744
1772789961023348000,20.898347900390625,0.00492098880931735,-0.03626639395952225,-0.009260077029466629
1772789961043383000,20.918383056640625,0.06238001957535744,-0.03002341277897358,0.0895349457859993
1772789961063417000,20.9384169921875,0.0842517614364624,0.03774444758892059,0.09497125446796417
1772789961083452700,20.95845263671875,0.062188539654016495,0.015282549895346165,0.03524720296263695
1772789961103487700,20.97848779296875,0.03274489566683769,0.044381845742464066,0.029752036556601524
1772789961123522800,20.998522705078123,0.027690216898918152,0.05287200212478638,0.010900851339101791
1772789961143556900,21.018556884765626,0.00884888507425785,0.027516579255461693,-0.001856755930930376
1772789961163591700,21.038591796875,-0.00006604639202123508,0.018251175060868263,-0.022638466209173203
1772789961183626800,21.058626708984374,0.00663499953225255,0.038547392934560776,-0.036203011870384216
1772789961203661600,21.07866162109375,0.017588581889867783,0.0459618978202343,-0.02479296363890171
1772789961223696600,21.098696533203125,0.032712940126657486,0.07196420431137085,-0.0008812400046736002
1772789961243730700,21.118730712890624,0.03629782050848007,-0.02455727383494377,0.0628945454955101
1772789961263765800,21.138765869140624,0.010776481591165066,-0.0904308333992958,0.06868691742420197
1772789961283800600,21.158800537109375,0.035899944603443146,0.07828707993030548,0.032812006771564484
1772789961303835600,21.178835693359375,0.03665468469262123,0.04890841990709305,-0.017856495454907417
1772789961323869700,21.19886962890625,-0.008315187878906727,-0.03309856355190277,-0.017681259661912918
1772789961343904800,21.21890478515625,-0.008890963159501553,0.025739984586834908,-0.029047897085547447
1772789961363939800,21.23893994140625,0.01563888043165207,0.07019666582345963,-0.042285673320293427
1772789961383975000,21.258974853515625,0.010771687142550945,0.07601620256900787,-0.0016447682864964008
1772789961404009700,21.279009765625,0.020784107968211174,0.09927359223365784,0.005541239399462938
1772789961424043800,21.299043701171875,0.05235321819782257,0.10998828709125519,-0.006150037981569767
1772789961444078600,21.31907861328125,0.05835625156760216,0.0738137736916542,-0.012153602205216885
1772789961464113700,21.33911376953125,0.05805877596139908,0.01125132292509079,0.009413475170731544
1772789961484148700,21.359148681640626,0.06640592217445374,-0.013160808943212032,-0.0008522115531377494
1772789961504182800,21.379182861328125,0.07326968759298325,0.07555148005485535,-0.027966121211647987
1772789961524217600,21.399217529296877,0.08077926933765411,0.08144399523735046,-0.0073418025858700275
1772789961544252700,21.419252685546876,0.0579352043569088,-0.008419583551585674,0.027089940384030342
1772789961564287700,21.439287841796876,0.038240063935518265,-0.05250954627990723,0.017948374152183533
1772789961584321800,21.45932177734375,0.05002801492810249,0.023793213069438934,0.009273126721382141
1772789961604356900,21.47935693359375,0.043357592076063156,0.055266186594963074,0.04325665906071663
1772789961624391700,21.4993916015625,0.027532558888196945,0.020307933911681175,0.0710347592830658
1772789961644426800,21.5194267578125,0.014670289121568203,-0.016325443983078003,0.06257815659046173
1772789961664461600,21.539461669921874,0.004954278469085693,0.011576495133340359,0.052023787051439285
1772789961684495600,21.55949560546875,-0.0015704660909250379,0.0161289032548666,0.0605405755341053
1772789961704530700,21.57953076171875,-0.015243401750922203,0.09994390606880188,0.05367281660437584
1772789961724565800,21.599565673828124,-0.012044678442180157,0.11485547572374344,0.046554453670978546
1772789961744600800,21.619600830078124,-0.012464659288525581,0.04416213557124138,0.05378786474466324
1772789961764634600,21.639634521484375,-0.007738347165286541,0.03657585382461548,0.0818711668252945
1772789961784669700,21.659669677734374,0.012777048163115978,0.061656974256038666,0.10509712249040604
1772789961804704800,21.679704833984374,0.024228639900684357,0.0884542316198349,0.10045869648456573
1772789961824739600,21.699739501953125,0.031931567937135696,0.017415741458535194,0.09234137833118439
1772789961844774700,21.719774658203125,0.0385199598968029,-0.04673448204994202,0.07475839555263519
1772789961864808700,21.73980859375,0.04671370983123779,-0.03241999074816704,0.06499923765659332
1772789961884843800,21.75984375,0.021927669644355774,0.06707650423049927,0.06089424341917038
1772789961904878600,21.779878662109375,0.00675217853859067,0.057023871690034866,0.06676731258630753
1772789961924913700,21.79991357421875,-0.0012748552253469825,0.002956375014036894,0.06679394096136093
1772789961944947700,21.81994775390625,-0.0010958907660096884,0.004315386060625315,0.05355110764503479
1772789961964982800,21.839982666015626,-0.0019915117882192135,-0.02341318130493164,0.07961440086364746
1772789961985017900,21.860017822265625,-0.009167931973934174,0.01666259951889515,0.08685154467821121
1772789962005053000,21.880052978515625,0.007783621083945036,0.05240008980035782,0.05200354754924774
1772789962025086700,21.900086669921876,0.01990925893187523,0.06085323169827461,0.03829279541969299
1772789962045121800,21.920121826171876,0.014577344991266727,-0.021261079236865044,0.04258474335074425
1772789962065156600,21.940156494140624,0.028296353295445442,-0.03189561516046524,0.041546110063791275
1772789962085191700,21.960191650390627,0.04615364596247673,-0.02339986525475979,0.032635707408189774
1772789962105226800,21.980226806640626,0.0533234104514122,-0.02526514232158661,0.0469515286386013
1772789962125260800,22.0002607421875,0.06628075242042542,0.03822088986635208,0.024093618616461754
1772789962145296000,22.0202958984375,0.06635212898254395,0.025595108047127724,0.023364977911114693
1772789962165331000,22.0403310546875,0.06468205899000168,0.02604864537715912,0.04254160076379776
1772789962185366000,22.060365966796876,0.060746438801288605,0.007525560446083546,0.04910602793097496
1772789962205399800,22.08039990234375,0.05385124683380127,-0.022066153585910797,0.0612601600587368
1772789962225435000,22.100434814453124,0.04891933873295784,0.004969192203134298,0.07467477023601532
1772789962245469700,22.1204697265625,0.04786286503076553,-0.059302739799022675,0.09862963855266571
1772789962265504800,22.1405048828125,0.03262079507112503,-0.06996603310108185,0.08093719184398651
1772789962285538800,22.160538818359374,0.027346935123205185,-0.08759988844394684,0.05125812813639641
1772789962305573600,22.18057373046875,0.04687776044011116,-0.01206864695996046,0.03202477842569351
1772789962325608700,22.200608642578125,0.07055805623531342,0.013236443512141705,0.0015699334908276796
1772789962345643800,22.220643798828124,0.06107720360159874,-0.022062690928578377,-0.011393535882234573
1772789962365677800,22.240677734375,0.06089557334780693,0.00869122613221407,-0.028325647115707397
1772789962385713000,22.260712890625,0.07078123092651367,0.012916863895952702,-0.00905394833534956
1772789962405748000,22.280748046875,0.05591173470020294,-0.001555818715132773,0.00896579772233963
1772789962425782800,22.30078271484375,0.05058860778808594,0.03044392541050911,-0.005282912403345108
1772789962445817600,22.320817626953126,0.05831070989370346,0.04517733305692673,-0.0297861248254776
1772789962465852000,22.340851806640625,0.0329211987555027,0.038956720381975174,-0.01251286268234253
1772789962485886700,22.36088671875,0.01038393098860979,0.07311362773180008,0.008825449272990227
1772789962505921800,22.380921875,0.01721280813217163,0.12379171699285507,0.022473882883787155
1772789962525956900,22.400956787109376,0.009719472378492355,0.1068153977394104,0.029393041506409645
1772789962545990700,22.42099072265625,-0.0313456729054451,0.00041678472189232707,0.055868323892354965
1772789962566025700,22.441025634765627,-0.05386030301451683,-0.047806669026613235,0.057428937405347824
1772789962586060800,22.461060791015626,-0.03642432019114494,0.05602731555700302,0.043470513075590134
1772789962606096000,22.481095947265626,-0.026071015745401382,0.12477894872426987,0.027029220014810562
1772789962626130000,22.5011298828125,-0.06464903056621552,0.023311447352170944,0.04836060851812363
1772789962646165000,22.5211650390625,-0.06963393837213516,-0.015419969335198402,0.056770604103803635
1772789962666199800,22.54119970703125,-0.04643727466464043,0.0035079156514257193,0.03279097005724907
1772789962686234600,22.561234619140624,-0.04751292243599892,0.04831080883741379,-0.017422134056687355
1772789962706269700,22.581269775390624,-0.05397721379995346,-0.0044165863655507565,-0.02822657860815525
1772789962726303700,22.6013037109375,-0.05253644287586212,-0.00944889523088932,-0.014332067221403122
1772789962746338800,22.6213388671875,-0.027300862595438957,0.0624987967312336,-0.006389988586306572
1772789962766374000,22.641373779296874,-0.023078154772520065,0.015384549275040627,-0.03056216984987259
1772789962786409000,22.661408935546874,-0.03470604866743088,-0.019457321614027023,-0.04074103757739067
1772789962806442800,22.68144287109375,-0.0325414314866066,-0.0033430662006139755,-0.05873122438788414
1772789962826477800,22.701477783203124,-0.03137337043881416,0.04451313987374306,-0.08609893172979355
1772789962846513000,22.721512939453124,-0.03934580832719803,0.06519284844398499,-0.09675370901823044
1772789962866547700,22.741547607421875,-0.0357835628092289,0.055387623608112335,-0.0853646993637085
1772789962886582000,22.76158203125,-0.03557290881872177,0.03343971446156502,-0.03983476385474205
1772789962906616600,22.781616455078126,-0.0332610160112381,0.035175032913684845,-0.018797390162944794
1772789962926651600,22.801651611328126,-0.026370620355010033,0.09255976229906082,-0.009814813733100891
1772789962946686700,22.821686767578125,-0.009923204779624939,0.09656888246536255,-0.016062056645751
1772789962966721800,22.8417216796875,-0.005921538453549147,0.02767317369580269,-0.01119140163064003
1772789962986755800,22.861755859375,-0.009023056365549564,-0.039748210459947586,0.00009480853623244911
1772789963006791000,22.881791015625,0.0025457157753407955,0.013921940699219704,0.004805141594260931
1772789963026826000,22.901825927734375,0.02365339733660221,0.054131943732500076,0.018505241721868515
1772789963046860800,22.92186083984375,0.03538089245557785,0.023204121738672256,0.028425516560673714
1772789963066894800,22.941894775390626,0.02737649716436863,-0.0532056987285614,0.0005877596559002995
1772789963086929400,22.961929443359374,0.0173193346709013,-0.04422019049525261,-0.021744709461927414
1772789963106964200,22.981964111328125,0.03700888529419899,0.0510389506816864,-0.018150242045521736
1772789963126999300,23.001999267578125,0.03810876980423927,0.05854133889079094,-0.00890960544347763
1772789963147033000,23.022033203125,0.009313340298831463,-0.014249775558710098,0.01919633150100708
1772789963167068200,23.042068115234375,0.006566023454070091,-0.04192854091525078,0.007552724797278643
1772789963187103200,23.062103271484375,0.01954786852002144,0.04159138351678848,-0.02773442491889
1772789963207138300,23.08213818359375,0.030308637768030167,0.11905501782894135,-0.05163949355483055
1772789963227172400,23.10217236328125,0.01967383548617363,0.06676997244358063,-0.03519713506102562
1772789963247207400,23.12220751953125,0.011272894218564034,0.04646790027618408,-0.015674566850066185
1772789963267242200,23.1422421875,0.0019776634871959686,0.036914076656103134,-0.0421847365796566
1772789963287277300,23.16227734375,0.0017214673571288586,0.10144086927175522,-0.02972141094505787
1772789963307312000,23.18231201171875,0.00315984059125185,0.12451023608446121,-0.01799950748682022
1772789963327346400,23.202346435546875,-0.0014101437991485,0.056587643921375275,-0.012464659288525581
1772789963347381200,23.22238134765625,-0.017731592059135437,-0.016983244568109512,-0.029024194926023483
1772789963367416300,23.242416259765626,-0.017075389623641968,-0.04517893120646477,-0.036548689007759094
1772789963387451400,23.262451416015626,-0.014625015668570995,-0.05579056218266487,0.001981125446036458
1772789963407485200,23.282485107421873,0.02713814377784729,-0.002472478663548827,0.004999286029487848
1772789963427520300,23.302520263671877,0.051721785217523575,0.07390031963586807,-0.08027699589729309
1772789963447555300,23.322555419921876,0.03293797746300697,0.008708003908395767,-0.0731639564037323
1772789963467590400,23.34259033203125,0.008807872422039509,-0.0862046629190445,-0.026015354320406914
1772789963487624400,23.36262451171875,0.007429154124110937,-0.09663493186235428,-0.0352458730340004
1772789963507659300,23.3826591796875,0.0241953507065773,-0.001318264752626419,-0.04511820897459984
1772789963527694300,23.4026943359375,0.012309396639466286,0.024629712104797363,-0.020196348428726196
1772789963547729200,23.422729248046874,-0.008704009465873241,-0.021518075838685036,0.025228656828403473
1772789963567763500,23.442763427734373,-0.01492328941822052,-0.047809865325689316,0.011920841410756111
1772789963587798300,23.46279833984375,-0.009104016236960888,0.01461835764348507,-0.017111342400312424
1772789963607833300,23.482833251953124,0.0018072210950776935,0.04610730707645416,-0.010338124819099903
1772789963627868400,23.502868408203124,-0.011357849463820457,0.03941797837615013,0.004995024763047695
1772789963647903200,23.5229033203125,-0.013255883939564228,0.008436894044280052,0.002859169617295265
1772789963667937300,23.542937255859375,0.001511876587755978,0.027698738500475883,-0.01690681092441082
1772789963687972400,23.562972412109374,0.007211307529360056,-0.014580540359020233,-0.014121677726507187
1772789963708007400,23.58300732421875,0.0008825715631246567,-0.002514024032279849,-0.018941201269626617
1772789963728042200,23.603042236328125,0.009401757270097733,0.01582370325922966,-0.003462641965597868
1772789963748076300,23.623076171875,0.0012966931099072099,-0.0065348646603524685,0.021081583574414253
1772789963768111000,23.643111083984376,-0.0253951046615839,-0.029765086248517036,0.00839907769113779
1772789963788146200,23.663146240234376,-0.027571706101298332,-0.04310059919953346,-0.007388141471892595
1772789963808181200,23.68318115234375,-0.011361577548086643,0.004867459647357464,-0.012290221638977528
1772789963828215300,23.70321533203125,-0.011325092054903507,0.04332670196890831,-0.025356488302350044
1772789963848250400,23.72325048828125,-0.0223844014108181,0.03193875774741173,-0.024388430640101433
1772789963868285200,23.74328515625,-0.021343637257814407,-0.013462811708450317,-0.015529158525168896
1772789963888320300,23.7633203125,-0.020682109519839287,-0.0016817862633615732,-0.015413044951856136
1772789963908354300,23.783354248046876,-0.0016583503456786275,0.06589725613594055,-0.022531939670443535
1772789963928389400,23.803389404296876,0.005350556690245867,0.03695295751094818,-0.004224305972456932
1772789963948424400,23.823424560546876,-0.010765562765300274,-0.034628018736839294,0.00141041015740484
1772789963968459300,23.843459228515623,-0.0023329290561378,-0.03978363052010536,-0.006579073145985603
1772789963988493300,23.863493408203126,0.01998569257557392,-0.017489245161414146,-0.02774188295006752
1772789964008528100,23.883528076171874,0.022939937189221382,0.040579117834568024,-0.007522897329181433
1772789964028563200,23.903563232421874,0.025439845398068428,0.04180150851607323,0.023443806916475296
1772789964048598300,23.923598388671873,0.03178722411394119,-0.0003733751946128905,0.03978123515844345
1772789964068633300,23.94363330078125,0.009906427003443241,-0.04295705258846283,0.036550555378198624
1772789964088668200,23.963668212890624,0.00624085171148181,0.0017925737192854285,0.02003735676407814
