time,seconds_elapsed,z,y,x
1772789940197197300,0.072197265625,0.03811202198266983,-0.07142217457294464,0.009903223253786564
1772789940217232100,0.092232177734375,0.032337017357349396,-0.1780017465353012,-0.05007840692996979
1772789940237267200,0.11226708984375,0.033272575587034225,-0.10624957829713821,-0.0328059159219265
1772789940257302300,0.13230224609375,0.06980716437101364,-0.018171871080994606,0.009175061248242855
1772789940277336300,0.15233642578125,0.08965862542390823,-0.015957821160554886,0.0324188731610775
1772789940297371400,0.172371337890625,0.05904632806777954,-0.11460277438163757,0.005065068136900663
1772789940317406500,0.192406494140625,0.02367488108575344,-0.1672363132238388,-0.017896290868520737
1772789940337441500,0.212441650390625,0.022484131157398224,-0.1173642948269844,-0.025883875787258148
1772789940357476400,0.232476318359375,0.061012934893369675,-0.13019829988479614,-0.01939193345606327
1772789940377510400,0.252510498046875,0.06005160138010979,-0.09415164589881897,-0.007703649811446667
1772789940397545200,0.272545166015625,0.06360945850610733,-0.04692565277218819,-0.025289183482527733
1772789940417580300,0.292580322265625,0.07749571651220322,-0.026852339506149292,-0.04947281628847122
1772789940437615400,0.312615478515625,0.06420080363750458,-0.11101477593183517,-0.07503395527601242
1772789940457649200,0.332649169921875,0.03472180664539337,-0.16670480370521545,-0.11606639623641968
1772789940477684200,0.352684326171875,0.03944668546319008,-0.1642768234014511,-0.13169190287590027
1772789940497719300,0.37271923828125,0.03886143118143082,-0.1260828673839569,-0.07764845341444016
1772789940517754400,0.39275439453125,0.025672536343336105,-0.050794247537851334,-0.03612140938639641
1772789940537789400,0.41278955078125,0.005192502401769161,0.019274983555078506,-0.02450997196137905
1772789940557823500,0.432823486328125,-0.033429477363824844,-0.06187993660569191,-0.02151893451809883
1772789940577858600,0.452858642578125,-0.03635557368397713,-0.06642969697713852,-0.033706799149513245
1772789940597893000,0.47289306640625,-0.012121973559260368,-0.11008569598197937,-0.04828353971242905
1772789940617928200,0.49292822265625,0.044906143099069595,-0.22132757306098938,-0.03053460828959942
1772789940637963300,0.51296337890625,0.03968821093440056,-0.26852303743362427,-0.017864620313048363
1772789940657997300,0.532997314453125,0.07648676633834839,-0.2898173928260803,-0.025512197986245155
1772789940678032400,0.553032470703125,0.1241137832403183,-0.09301280230283737,0.06874469667673111
1772789940698067500,0.5730673828125,0.24341115355491638,0.2940044105052948,0.3855154812335968
1772789940718102500,0.5931025390625,0.4456029236316681,0.3350220024585724,0.6616536974906921
1772789940738136300,0.61313623046875,0.35589683055877686,0.474529504776001,0.7384307384490967
1772789940758171400,0.63317138671875,0.2605507969856262,0.4816460907459259,0.33784398436546326
1772789940778206500,0.65320654296875,0.2315153032541275,0.04975640028715134,-0.12822452187538147
1772789940798241300,0.6732412109375,0.10042394697666168,-0.11347348242998123,-0.19156740605831146
1772789940818276400,0.6932763671875,-0.030047664418816566,0.02314036525785923,-0.15574504435062408
1772789940838310100,0.71331005859375,-0.12359732389450073,0.445804625749588,-0.1406577080488205
1772789940858345200,0.73334521484375,0.07673570513725281,0.33084213733673096,-0.31158411502838135
1772789940878380300,0.75338037109375,0.12306944280862808,-0.20704713463783264,-0.5097681283950806
1772789940898415400,0.773415283203125,-0.02318238466978073,-0.1250646710395813,-0.4923035204410553
1772789940918449400,0.793449462890625,-0.05977671965956688,0.12775972485542297,-0.2921442687511444
1772789940938484500,0.813484375,0.028609855100512505,0.2848510444164276,-0.25584402680397034
1772789940958519600,0.83351953125,0.1502225697040558,0.22129486501216888,-0.45599278807640076
1772789940978554400,0.853554443359375,0.3130570352077484,-0.44178715348243713,-0.6232785582542419
1772789940998589200,0.873589111328125,0.3030567169189453,-0.8851915597915649,-0.761432409286499
1772789941018623200,0.893623291015625,0.11966753751039505,-0.7296943068504333,-0.7937822937965393
1772789941038658300,0.913658203125,-0.13531675934791565,0.0940607488155365,-0.5820072293281555
1772789941058693400,0.933693359375,-0.36281514167785645,0.8261149525642395,-0.14710159599781036
1772789941078728200,0.953728271484375,-0.6620569229125977,0.6143131852149963,0.05400165542960167
1772789941098762200,0.97376220703125,-1.058502197265625,-0.2145027369260788,-0.007119001355022192
1772789941118797300,0.99379736328125,-0.9857760667800903,-0.13567736744880676,0.016855327412486076
1772789941138832400,1.013832275390625,-0.6892717480659485,-0.12215942144393921,0.07522544264793396
1772789941158867500,1.033867431640625,-0.3905830383300781,-0.2667734622955322,-0.023947788402438164
1772789941178902300,1.05390234375,-0.46588024497032166,-0.21411776542663574,-0.12986165285110474
1772789941198936300,1.073936279296875,-0.51199871301651,0.364976167678833,-0.09306231886148453
1772789941218971100,1.09397119140625,-0.3595423996448517,0.6427098512649536,0.0574910007417202
1772789941239006200,1.114006103515625,0.023298852145671844,0.5345787405967712,0.14089307188987732
1772789941259041300,1.134041259765625,0.20589035749435425,1.063915729522705,0.04987040534615517
1772789941279076400,1.154076416015625,0.29623734951019287,1.879973292350769,-0.2788971960544586
1772789941299110400,1.1741103515625,0.10098464787006378,1.5558955669403076,-0.4148804843425751
1772789941319145200,1.194145263671875,0.1331658959388733,0.22849799692630768,0.0692482590675354
1772789941339180300,1.21418017578125,0.08146028220653534,-1.7049511671066284,-0.3168247938156128
1772789941359215400,1.23421533203125,-0.10801395028829575,-0.6068092584609985,-0.4420853853225708
1772789941379249400,1.25424951171875,-0.34329912066459656,1.2134318351745605,-0.3737281858921051
1772789941399284500,1.274284423828125,-0.6778668165206909,0.6489376425743103,-0.5466033816337585
1772789941419319300,1.2943193359375,-0.7755421996116638,0.3170464336872101,-0.6534281373023987
1772789941439354000,1.31435400390625,-0.587669312953949,-0.20050905644893646,-0.45154452323913574
1772789941459389200,1.33438916015625,-0.30219563841819763,-0.746284008026123,-0.3210470974445343
1772789941479423200,1.35442333984375,0.10636146366596222,-0.8169656991958618,-0.13755156099796295
1772789941499458300,1.374458251953125,0.38461995124816895,-1.1043744087219238,-0.08470083773136139
1772789941519493400,1.394493408203125,0.58041912317276,-1.2454044818878174,0.07850154489278793
1772789941539528400,1.414528564453125,0.5370075702667236,-1.8161123991012573,0.058666013181209564
1772789941559562200,1.434562255859375,0.40638425946235657,-2.551386833190918,-0.49505072832107544
1772789941579597300,1.454597412109375,0.38636282086372375,-2.2759158611297607,-0.3770800530910492
1772789941599632400,1.47463232421875,0.4312386214733124,-2.3288910388946533,0.43357744812965393
1772789941619667200,1.494667236328125,0.2673261761665344,-0.8123826384544373,0.348150372505188
1772789941639701200,1.514701171875,0.11257507652044296,-0.3530718684196472,-0.19272898137569427
1772789941659736300,1.534736328125,0.14535631239414215,0.31982046365737915,-0.2530153691768646
1772789941679771100,1.554771240234375,0.15532898902893066,0.4530579745769501,-0.24973240494728088
1772789941699806200,1.57480615234375,-0.0075819725170731544,0.46467408537864685,0.08711786568164825
1772789941719841300,1.59484130859375,-0.019438225775957108,0.21760451793670654,0.24235551059246063
1772789941739875300,1.614875244140625,0.10846664011478424,0.15270167589187622,0.3793603777885437
1772789941759910400,1.634910400390625,0.24403434991836548,0.3847854733467102,0.5296611189842224
1772789941779945500,1.654945556640625,0.34359118342399597,0.5264120101928711,0.5398601293563843
1772789941799980300,1.674980224609375,0.413175106048584,0.477364718914032,0.35234183073043823
1772789941820014300,1.695014404296875,0.3919968605041504,0.4975229501724243,0.2487861067056656
1772789941840049200,1.715049072265625,0.18659746646881104,0.6899953484535217,0.30871137976646423
1772789941860084200,1.735084228515625,0.14225739240646362,0.8828921914100647,0.35718125104904175
1772789941880119300,1.755119384765625,0.1787947118282318,0.8590686917304993,0.0979011282324791
1772789941900154400,1.775154296875,0.2655976414680481,0.44679152965545654,0.13947777450084686
1772789941920188200,1.795188232421875,0.320601224899292,-0.16578121483325958,0.4072250723838806
1772789941940223200,1.81522314453125,0.3256668150424957,0.0011209957301616669,0.42773959040641785
1772789941960258300,1.83525830078125,0.4324894845485687,0.7665085792541504,0.24287942051887512
1772789941980293400,1.85529345703125,0.36943069100379944,0.9474945664405823,-0.10334941744804382
1772789942000327400,1.875327392578125,0.2582632899284363,0.33983901143074036,-0.26946181058883667
1772789942020362500,1.895362548828125,0.3059515953063965,0.07835468649864197,-0.06866523623466492
1772789942040397300,1.915397216796875,0.3058403432369232,0.2711407542228699,0.052961841225624084
1772789942060432400,1.935432373046875,0.23809796571731567,0.30049946904182434,0.1365548074245453
1772789942080467500,1.955467529296875,0.14114199578762054,0.03300862014293671,0.17859424650669098
1772789942100501500,1.97550146484375,0.06931673735380173,-0.21634306013584137,0.10589854419231415
1772789942120536600,1.99553662109375,0.004051166120916605,-0.08528851717710495,0.01930404081940651
1772789942140571400,2.0155712890625,0.042198918759822845,0.10425318032503128,0.0010764221660792828
1772789942160606500,2.0356064453125,0.15274900197982788,0.24581265449523926,0.020085405558347702
1772789942180640500,2.055640625,0.15289632976055145,0.2523401975631714,0.07983177155256271
1772789942200675600,2.075675537109375,-0.07883331179618835,0.074185810983181,0.06550930440425873
1772789942220710400,2.09571044921875,-0.20112571120262146,0.15301181375980377,0.06856343895196915
1772789942240745500,2.115745361328125,-0.064775750041008,0.32978400588035583,0.0379207544028759
1772789942260779300,2.135779296875,0.06838551163673401,0.4709075093269348,-0.07768921554088593
1772789942280814300,2.155814453125,-0.016938315704464912,0.5358259081840515,-0.20088104903697968
1772789942300849400,2.175849365234375,-0.2053234875202179,0.4370492100715637,-0.1474539339542389
1772789942320884500,2.195884521484375,-0.300896555185318,0.11329814791679382,-0.14508698880672455
1772789942340919600,2.21591943359375,-0.310355544090271,0.049725767225027084,-0.22914624214172363
1772789942360953600,2.23595361328125,-0.34506383538246155,0.08128038048744202,-0.16566407680511475
1772789942380988400,2.255988525390625,-0.4081863760948181,0.06500576436519623,-0.16177158057689667
1772789942401023500,2.2760234375,-0.45534372329711914,0.11856430023908615,-0.18224495649337769
1772789942421058300,2.296058349609375,-0.4563484489917755,0.14307181537151337,-0.1288829743862152
1772789942441092600,2.316092529296875,-0.4433034062385559,-0.13286256790161133,-0.07490377873182297
1772789942461127400,2.33612744140625,-0.41335007548332214,-0.2865293323993683,-0.12569525837898254
1772789942481162500,2.35616259765625,-0.506034791469574,0.19441956281661987,-0.23106451332569122
1772789942501197600,2.376197509765625,-0.6460669636726379,0.48499712347984314,-0.10836999863386154
1772789942521232400,2.396232421875,-0.6129952669143677,-0.06429717689752579,0.12895646691322327
1772789942541266400,2.416266357421875,-0.47683238983154297,-0.7263774275779724,0.09897273033857346
1772789942561301500,2.436301513671875,-0.6158002614974976,-0.26755592226982117,0.06847404688596725
1772789942581336600,2.456336669921875,-0.6831610798835754,0.13408832252025604,0.10579872876405716
1772789942601371600,2.47637158203125,-0.5385715961456299,-0.06648555397987366,0.00798528827726841
1772789942621405400,2.496405517578125,-0.3785518407821655,-0.25987163186073303,-0.04264485836029053
1772789942641440500,2.5164404296875,-0.3646581172943115,0.0012998627498745918,-0.0028551581781357527
1772789942661475300,2.536475341796875,-0.39049965143203735,0.06493721157312393,0.09253698587417603
1772789942681510400,2.556510498046875,-0.35084065794944763,-0.2137223780155182,0.15866966545581818
1772789942701544400,2.57654443359375,-0.2815393805503845,-0.2371741235256195,0.07724539935588837
1772789942721579500,2.59657958984375,-0.22758418321609497,-0.043339431285858154,0.047546565532684326
1772789942741614600,2.616614501953125,-0.17916330695152283,-0.07157957553863525,0.029094763100147247
1772789942761649400,2.6366494140625,-0.12698978185653687,-0.14943088591098785,0.0923016145825386
1772789942781684500,2.6566845703125,-0.08263633400201797,-0.0695783793926239,0.12314922362565994
1772789942801718500,2.676718505859375,-0.06492029875516891,0.05208594352006912,0.1025708019733429
1772789942821753600,2.696753662109375,-0.0690591111779213,0.09896353632211685,0.1278172880411148
1772789942841788400,2.716788330078125,-0.05499661713838577,-0.001981319859623909,0.1566239595413208
1772789942861823500,2.736823486328125,-0.023094091564416885,0.07481700927019119,0.11856528371572495
1772789942881857300,2.756857177734375,0.039930835366249084,0.17922644317150116,0.08666522800922394
1772789942901892400,2.776892333984375,0.0892423614859581,0.06466390937566757,0.046584002673625946
1772789942921927400,2.796927490234375,0.05832473188638687,0.0757482647895813,0.03441539406776428
1772789942941962500,2.81696240234375,0.04460714012384415,0.11106589436531067,0.030721750110387802
1772789942961997600,2.83699755859375,0.094192273914814,0.0797288566827774,-0.014005517587065697
1772789942982031600,2.857031494140625,0.1315915584564209,0.053221363574266434,-0.0728733167052269
1772789943002066400,2.87706640625,0.135187566280365,0.0726967602968216,-0.1091412603855133
1772789943022101500,2.8971015625,0.14198201894760132,-0.03667231649160385,-0.06515669822692871
1772789943042136300,2.91713623046875,0.16646581888198853,-0.14451012015342712,-0.0373900942504406
1772789943062170600,2.937170654296875,0.19424769282341003,-0.15848122537136078,-0.0038167117163538933
1772789943082205400,2.957205322265625,0.22690637409687042,-0.2383793443441391,0.10395147651433945
1772789943102240500,2.977240478515625,0.20416095852851868,-0.41856902837753296,0.1731208711862564
1772789943122275300,2.997275390625,0.10703995078802109,-0.24764525890350342,0.06008251756429672
1772789943142309400,3.017309326171875,0.07827762514352798,-0.09294097870588303,-0.07653427124023438
1772789943162344400,3.037344482421875,0.13804246485233307,-0.08368565887212753,-0.018918156623840332
1772789943182379500,3.057379638671875,0.20315563678741455,-0.07790481299161911,0.060791924595832825
1772789943202414600,3.07741455078125,0.1980494260787964,0.07893917709589005,0.0578995943069458
1772789943222449700,3.09744970703125,0.15649817883968353,0.18660032749176025,0.08286946266889572
1772789943242483500,3.1174833984375,0.15302622318267822,0.09864307194948196,0.1159197986125946
1772789943262518500,3.1375185546875,0.15504345297813416,0.017074335366487503,0.10713228583335876
1772789943282553300,3.15755322265625,0.12398305535316467,-0.05832861363887787,0.058912526816129684
1772789943302588400,3.17758837890625,0.11178605258464813,0.0008409079164266586,0.05925578624010086
1772789943322622500,3.19762255859375,0.10660865157842636,0.05713900178670883,0.047938115894794464
1772789943342657500,3.217657470703125,0.08117794990539551,0.11297861486673355,0.017598994076251984
1772789943362692400,3.2376923828125,0.07190686464309692,0.03787006437778473,0.007269770838320255
1772789943382727400,3.2577275390625,0.060523126274347305,-0.0226881206035614,-0.028646105900406837
1772789943402762500,3.277762451171875,0.030166519805788994,0.01123689953237772,-0.02717464044690132
1772789943422796500,3.297796630859375,0.007625289261341095,0.05580509454011917,0.020280955359339714
1772789943442831600,3.31783154296875,-0.0054254052229225636,0.0525263175368309,0.03324830159544945
1772789943462866400,3.337866455078125,-0.0039043519645929337,0.03014325723052025,-0.025695018470287323
1772789943482901500,3.357901611328125,-0.010993260890245438,-0.0031771156936883926,-0.08120054006576538
1772789943502935300,3.377935302734375,-0.05677161365747452,0.02894117683172226,-0.10723485052585602
1772789943522970400,3.397970458984375,-0.07159916311502457,0.036165643483400345,-0.09369279444217682
1772789943543005400,3.41800537109375,-0.019208472222089767,0.015004252083599567,-0.08087464421987534
1772789943563040500,3.43804052734375,0.02541612647473812,-0.0039024390280246735,-0.06706684082746506
1772789943583075600,3.45807568359375,0.0274906437844038,0.0058801909908652306,-0.10131790488958359
1772789943603109400,3.478109375,0.011982874944806099,0.06411708891391754,-0.12094631791114807
1772789943623144400,3.49814453125,0.00898335687816143,0.053246334195137024,-0.07893841713666916
1772789943643179500,3.518179443359375,0.03139972314238548,-0.04247359186410904,-0.0380818136036396
1772789943663214300,3.53821435546875,0.05740383639931679,-0.08156600594520569,-0.056981414556503296
1772789943683248600,3.55824853515625,0.09313617646694183,-0.08173561096191406,-0.07202789187431335
1772789943703283500,3.578283447265625,0.0644659772515297,0.03043447807431221,-0.0018922716844826937
1772789943723318500,3.598318603515625,0.04320870712399483,0.14446306228637695,0.06490769982337952
1772789943743353300,3.618353271484375,0.04772811010479927,0.0834621712565422,0.056028418242931366
1772789943763387400,3.638387451171875,0.04024806246161461,-0.04192928969860077,-0.0019693211652338505
1772789943783422500,3.65842236328125,0.016541216522455215,-0.006932669319212437,-0.016902558505535126
1772789943803457500,3.67845751953125,0.02303193509578705,0.11023563891649246,-0.021298691630363464
1772789943823492600,3.69849267578125,0.03222670406103134,0.11515381932258606,-0.02787318453192711
1772789943843527700,3.718527587890625,-0.009648973122239113,0.07635241746902466,-0.01552957110106945
1772789943863561500,3.7385615234375,-0.019864950329065323,-0.04656078293919563,-0.010241474024951458
1772789943883596500,3.758596435546875,-0.01727021485567093,-0.08427845686674118,0.01850651204586029
1772789943903631400,3.77863134765625,0.009943541139364243,-0.06084102392196655,0.029188767075538635
1772789943923666400,3.79866650390625,0.02412014827132225,-0.01320897787809372,0.009221643209457397
1772789943943700500,3.818700439453125,0.017599670216441154,-0.02012057602405548,0.005967249628156424
1772789943963735600,3.838735595703125,-0.0008249953389167786,-0.07390487939119339,0.02035081386566162
1772789943983770400,3.858770263671875,-0.01754480041563511,-0.12593938410282135,0.016368821263313293
1772789944003805400,3.878805419921875,-0.022787733003497124,-0.1137579083442688,0.02014538086950779
1772789944023840500,3.898840576171875,-0.039300087839365005,-0.0018203537911176682,0.0014893803745508194
1772789944043874600,3.91887451171875,-0.027567921206355095,0.04380561038851738,0.002722009550780058
1772789944063910000,3.938909912109375,-0.013767827302217484,-0.029043452814221382,-0.01771414279937744
1772789944083944700,3.95894482421875,-0.010366624221205711,-0.10194959491491318,-0.06137276440858841
1772789944103979800,3.978979736328125,0.003508123569190502,-0.09681639075279236,-0.10668241232633591
1772789944124013800,3.999013916015625,0.01538979634642601,-0.016336342319846153,-0.07133876532316208
1772789944144045800,4.0190458984375,0.01578872837126255,0.028013071045279503,-0.007292916066944599
1772789944164079900,4.039079833984375,0.021731305867433548,-0.025698892772197723,0.016406554728746414
1772789944184115000,4.059114990234375,0.01945844665169716,-0.06701667606830597,0.014601562172174454
1772789944204149800,4.079149658203125,0.015879733487963676,0.01151114609092474,-0.0034357761032879353
1772789944224184800,4.099184814453125,0.009103876538574696,0.08631506562232971,-0.02126009576022625
1772789944244220000,4.119219970703125,-0.008994726464152336,0.0929904580116272,0.0038011083379387856
1772789944264254000,4.13925390625,-0.021408772096037865,0.01927659846842289,-0.0034312685020267963
1772789944284288800,4.159288818359375,-0.02204998768866062,-0.04091678559780121,-0.03529234603047371
1772789944304323800,4.17932373046875,-0.030509602278470993,0.050794366747140884,-0.062335576862096786
1772789944324359000,4.19935888671875,-0.02285413071513176,0.1472293585538864,-0.06441015005111694
1772789944344392700,4.219392822265625,-0.013798528350889683,0.11740704625844955,-0.041594624519348145
1772789944364427800,4.239427734375,-0.0017824716633185744,-0.015131124295294285,-0.07529894262552261
1772789944384462800,4.259462890625,-0.0169678907841444,-0.11933440715074539,-0.11249096691608429
1772789944404498000,4.279497802734375,-0.04253170266747475,-0.07300803065299988,-0.08684593439102173
1772789944424533000,4.299532958984375,-0.04543062299489975,-0.014042365364730358,-0.023816019296646118
1772789944444566800,4.31956689453125,-0.00875575840473175,-0.03537005931138992,-0.03153834491968155
1772789944464601900,4.339601806640625,0.01301724836230278,-0.05264414846897125,-0.04084296151995659
1772789944484636700,4.35963671875,-0.00020874873735010624,-0.045814067125320435,-0.05062134563922882
1772789944504671700,4.379671630859375,-0.0030980731826275587,-0.02530812844634056,-0.0406874343752861
1772789944524705800,4.399705810546875,0.013739701360464096,-0.0013209069147706032,-0.013494638726115227
1772789944544740900,4.419740966796875,-0.010279941372573376,0.02755906991660595,0.0055749802850186825
1772789944564777000,4.43977685546875,-0.022215714678168297,-0.01082335039973259,0.059435319155454636
1772789944584812000,4.45981201171875,-0.0030013960786163807,-0.03757507726550102,0.066984161734581
1772789944604846800,4.479846923828125,-0.00039497343823313713,-0.03970218822360039,0.029037874191999435
1772789944624881700,4.499881591796875,-0.024855177849531174,-0.009547002613544464,0.015724334865808487
1772789944644915700,4.519915771484375,-0.03638429939746857,0.039170682430267334,-0.0029289822559803724
1772789944664950800,4.53995068359375,-0.02442770265042782,0.06307262927293777,-0.013123370707035065
1772789944684985900,4.55998583984375,-0.006911901757121086,0.006659511476755142,-0.008565818890929222
1772789944705021000,4.58002099609375,-0.008380508981645107,-0.07177393138408661,0.009666329249739647
1772789944725054700,4.6000546875,-0.004824124276638031,-0.008223718032240868,0.04249271750450134
1772789944745089800,4.62008984375,0.025657758116722107,0.037957511842250824,0.043762631714344025
1772789944765124900,4.640124755859375,0.0362970270216465,0.005573068745434284,-0.0007999869994819164
1772789944785160000,4.660159912109375,0.023486625403165817,-0.03966841846704483,-0.008636807091534138
1772789944805194800,4.68019482421875,0.0342395082116127,-0.06226404383778572,0.012416200712323189
1772789944825229000,4.70022900390625,0.05501494184136391,-0.08006065338850021,0.03421995788812637
1772789944845264000,4.720263916015625,0.06581233441829681,-0.06082155555486679,0.019774822518229485
1772789944865298700,4.740298583984375,0.0761411115527153,-0.028751615434885025,-0.017284687608480453
1772789944885333800,4.760333740234375,0.08221356570720673,0.008534918539226055,-0.04091215133666992
1772789944905367800,4.780367919921875,0.0813533365726471,0.028964262455701828,-0.02938883751630783
1772789944925403000,4.80040283203125,0.06744754314422607,-0.012785661034286022,0.033127311617136
1772789944945438000,4.82043798828125,0.05557563900947571,-0.09021837264299393,0.04757635295391083
1772789944965473000,4.84047314453125,0.06537292897701263,-0.04546535387635231,0.01694570668041706
1772789944985507800,4.8605078125,0.06991348415613174,0.0243269894272089,0.04532049596309662
1772789945005542000,4.8805419921875,0.0658465325832367,0.03006398305296898,0.0788867250084877
1772789945025576700,4.90057666015625,0.05076386779546738,0.046149566769599915,0.11118537187576294
1772789945045611800,4.92061181640625,0.04816731810569763,0.034219563007354736,0.11154995113611221
1772789945065647000,4.940647216796875,0.041069477796554565,-0.0008323909714818001,0.09147821366786957
1772789945085681200,4.96068115234375,0.014235241338610649,0.01669333316385746,0.07705345749855042
1772789945105716200,4.98071630859375,-0.0002718043979257345,0.04011322930455208,0.07291625440120697
1772789945125751300,5.000751220703125,-0.020016327500343323,0.04972104728221893,0.08552934229373932
1772789945145786400,5.020786376953125,-0.02864198386669159,0.0447167344391346,0.07094369828701019
1772789945165821200,5.0408212890625,-0.03894766420125961,0.01789301633834839,0.017728166654706
1772789945185855200,5.060855224609375,-0.04403471574187279,-0.014503366313874722,-0.0069700866006314754
1772789945205890300,5.080890380859375,-0.013596651144325733,-0.007137329317629337,-0.0008195163682103157
1772789945225925000,5.100925048828125,0.00935294758528471,0.028012316673994064,-0.007198936305940151
1772789945245960200,5.120960205078125,-0.005116735119372606,0.040834181010723114,-0.0416581816971302
1772789945265994000,5.140993896484375,-0.007838644087314606,0.0015815487131476402,-0.05033031478524208
1772789945286029000,5.161029052734375,-0.008219795301556587,-0.008008422330021858,-0.05107862874865532
1772789945306064100,5.181064208984375,-0.007625386118888855,-0.007119400426745415,-0.057982321828603745
1772789945326099200,5.20109912109375,-0.0016260133124887943,-0.03512672334909439,-0.011996260844171047
1772789945346134300,5.22113427734375,0.003011569380760193,0.016770999878644943,0.001066036056727171
1772789945366168300,5.241168212890625,0.0008650380186736584,0.023155950009822845,-0.0013981368392705917
1772789945386203400,5.261203369140625,-0.00855848379433155,-0.03299049660563469,0.014238529838621616
1772789945406238000,5.281238037109375,-0.03251415863633156,-0.06750660389661789,0.02107994258403778
1772789945426273000,5.30127294921875,-0.037997275590896606,-0.0702238529920578,0.030109591782093048
1772789945446307000,5.32130712890625,-0.05751298740506172,0.01798262819647789,0.02030843496322632
1772789945466342100,5.341342041015625,-0.05510400980710983,0.09232566505670547,0.010020475834608078
1772789945486377200,5.361377197265625,-0.04438773915171623,0.0003661941736936569,0.05721280351281166
1772789945506412300,5.381412353515625,-0.07181940972805023,-0.07105951011180878,0.0158494021743536
1772789945526447000,5.401447021484375,-0.09533405303955078,0.02343493327498436,-0.03256632387638092
1772789945546481200,5.421481201171875,-0.07477892935276031,0.04708559811115265,0.003314410336315632
1772789945566516200,5.44151611328125,-0.04819304868578911,0.0035179005935788155,0.05471785366535187
1772789945586551300,5.46155126953125,-0.06424389779567719,-0.02434021607041359,0.02785690315067768
1772789945606586000,5.481586181640625,-0.08131002634763718,0.01599534973502159,0.0019385414198040962
1772789945626620200,5.5016201171875,-0.06717832386493683,0.03939056769013405,-0.015351660549640656
1772789945646655000,5.521655029296875,-0.05985482037067413,0.036558907479047775,-0.014608712866902351
1772789945666690000,5.54168994140625,-0.06309370696544647,0.04934360831975937,0.03970189392566681
1772789945686725000,5.56172509765625,-0.04188135266304016,0.013058512471616268,0.0500812791287899
1772789945706760200,5.58176025390625,-0.01900012046098709,-0.020264197140932083,0.014794492162764072
1772789945726794200,5.601794189453125,-0.012350095435976982,-0.009151821956038475,-0.01212642528116703
1772789945746829300,5.621829345703125,-0.00995923113077879,0.019367698580026627,0.006478259805589914
1772789945766864100,5.641864013671875,0.00518988911062479,0.0344030000269413,0.030373482033610344
1772789945786899200,5.661899169921875,0.020957859233021736,0.010502014309167862,0.016154684126377106
1772789945806933200,5.681933349609375,0.008371301926672459,-0.058962367475032806,-0.007901734672486782
1772789945826968300,5.70196826171875,0.008065959438681602,-0.025429964065551758,-0.02190208062529564
1772789945847003100,5.722003173828125,0.01382832508534193,0.050325907766819,-0.01952105201780796
1772789945867038200,5.7420380859375,0.00209250720217824,0.041084762662649155,0.033807214349508286
1772789945887073300,5.7620732421875,-0.013865765184164047,-0.030986253172159195,0.0579557865858078
1772789945907107000,5.782107177734375,-0.00547734135761857,-0.0546036958694458,0.03260781988501549
1772789945927142100,5.80214208984375,0.007911565713584423,-0.01737302541732788,-0.02774033509194851
1772789945947177200,5.82217724609375,0.0005690951365977526,0.03642730414867401,-0.016199389472603798
1772789945967212300,5.84221240234375,0.00358199467882514,0.05289919674396515,-0.008398521691560745
1772789945987246300,5.862246337890625,0.020150452852249146,-0.009407004341483116,0.008880994282662868
1772789946007281200,5.88228125,0.02238437905907631,-0.04867534339427948,0.030331892892718315
1772789946027316000,5.90231591796875,0.03513716906309128,-0.027939919382333755,0.01919613778591156
1772789946047351000,5.92235107421875,0.03666452690958977,0.012629237957298756,-0.0016992965247482061
1772789946067385300,5.94238525390625,0.05655878409743309,0.026314832270145416,0.010885573923587799
1772789946087419400,5.96241943359375,0.05770076811313629,-0.010785780847072601,0.013256281614303589
1772789946107454200,5.9824541015625,0.041603364050388336,-0.02632914111018181,0.021614793688058853
1772789946127489300,6.0024892578125,0.04543084651231766,-0.01098431646823883,0.013208555988967419
1772789946147524400,6.0225244140625,0.05490471422672272,-0.027187924832105637,0.006482797209173441
1772789946167558400,6.042558349609375,0.043247830122709274,-0.0030967863276600838,-0.014413764700293541
1772789946187593200,6.06259326171875,0.02982928603887558,-0.003429809585213661,-0.032505203038454056
1772789946207628300,6.082628173828125,0.012242943979799747,0.0008315872400999069,-0.043014928698539734
1772789946227663400,6.102663330078125,0.010705295950174332,-0.023811835795640945,-0.03459087014198303
1772789946247698400,6.122698486328125,0.018495487049221992,-0.011811858043074608,-0.0436825230717659
1772789946267732500,6.142732421875,0.019726501777768135,0.029854897409677505,-0.04615461081266403
1772789946287767300,6.162767333984375,0.01930130273103714,0.026955746114253998,-0.035767827183008194
1772789946307802400,6.18280224609375,0.0190722718834877,-0.022989708930253983,-0.005725507158786058
1772789946327837200,6.202837158203125,0.004670914262533188,-0.026294786483049393,0.0067229303531348705
1772789946347871200,6.222871337890625,0.0056945993565022945,-0.02256292849779129,-0.02387324720621109
1772789946367906300,6.24290625,-0.004206210374832153,-0.023701339960098267,-0.011509050615131855
1772789946387941400,6.26294140625,-0.0024331328459084034,-0.007619344629347324,0.00471177464351058
1772789946407976400,6.2829765625,-0.00030458299443125725,0.03412552922964096,0.010968705639243126
1772789946428011500,6.303011474609375,-0.006344732828438282,0.045919448137283325,-0.005690299905836582
1772789946448045300,6.32304541015625,-0.01593451015651226,-0.02741069346666336,-0.014043038710951805
1772789946468080400,6.343080322265625,-0.02539983205497265,-0.04744766652584076,-0.017478620633482933
1772789946488115200,6.363115234375,-0.030610445886850357,0.02172619104385376,-0.019689161330461502
1772789946508150300,6.383150390625,-0.0057716164737939835,0.06756439059972763,0.014101769775152206
1772789946528184300,6.403184326171875,0.00038494914770126343,0.06937459111213684,0.045158617198467255
1772789946548219400,6.423219482421875,-0.0019439704483374953,0.007202341221272945,0.02707013115286827
1772789946568254200,6.443254150390625,0.001292895758524537,-0.0371820293366909,-0.01933230832219124
1772789946588289300,6.463289306640625,0.004507733043283224,-0.02758953906595707,-0.0746750682592392
1772789946608324400,6.483324462890625,0.003123472910374403,0.07431571930646896,-0.05277885124087334
1772789946628358400,6.5033583984375,0.018809014931321144,0.08643100410699844,-0.008578945882618427
1772789946648393500,6.5233935546875,0.03725293651223183,0.09254883974790573,0.008004620671272278
1772789946668428500,6.543428466796875,0.03141476958990097,0.09360216557979584,-0.041011422872543335
1772789946688463400,6.56346337890625,0.0068878005258738995,0.06548581272363663,-0.10687001794576645
1772789946708498200,6.583498291015625,-0.029515817761421204,0.06732545047998428,-0.09723356366157532
1772789946728532200,6.6035322265625,-0.0466964952647686,0.042143598198890686,-0.03181075677275658
1772789946748567300,6.6235673828125,-0.04437326267361641,-0.03466299548745155,0.010556221008300781
1772789946768602400,6.643602294921875,-0.0374513640999794,-0.05231930688023567,-0.022260133177042007
1772789946788637400,6.663637451171875,-0.021711906418204308,-0.009639713913202286,-0.06657661497592926
1772789946808671200,6.683671142578125,-0.013530011288821697,0.062321245670318604,-0.05253735929727554
1772789946828706300,6.703706298828125,-0.01055325660854578,0.02032947540283203,0.0007526115514338017
1772789946848741400,6.723741455078125,-0.017062660306692123,-0.038730084896087646,0.012943843379616737
1772789946868776400,6.7437763671875,-0.021058309823274612,-0.0355764701962471,0.009873371571302414
1772789946888811300,6.763811279296875,-0.00991855002939701,-0.02129768393933773,0.021256204694509506
1772789946908845300,6.78384521484375,-0.009263749234378338,0.008220184594392776,0.018917225301265717
1772789946928880400,6.80388037109375,-0.02479332685470581,0.01598496362566948,0.015511218458414078
1772789946948915200,6.823915283203125,-0.01976778917014599,-0.03111816570162773,-0.003570773871615529
1772789946968950300,6.8439501953125,-0.007396354340016842,-0.00675774272531271,-0.006811544299125671
1772789946988984300,6.863984375,0.015507359057664871,0.04038170352578163,-0.013740813359618187
1772789947009019400,6.884019287109375,0.029149550944566727,0.07594538480043411,0.004947218578308821
1772789947029054500,6.904054443359375,0.03482034057378769,0.08234923332929611,0.04579813405871391
1772789947049089500,6.924089599609375,0.04086191952228546,0.04415116831660271,-0.010615529492497444
1772789947069124600,6.94412451171875,-0.007812461815774441,-0.025858208537101746,-0.07163704186677933
1772789947089158700,6.96415869140625,-0.018055249005556107,-0.054928846657276154,-0.02359253726899624
1772789947109193700,6.98419384765625,0.003727530362084508,0.024803224951028824,0.010281570255756378
1772789947129228800,7.004228759765625,0.019282599911093712,0.08796090632677078,0.024831920862197876
1772789947149264000,7.024263916015625,0.017643297091126442,0.0047138407826423645,0.022356633096933365
1772789947169297700,7.044297607421875,-0.010723104700446129,-0.0885782316327095,0.007210722658783197
1772789947189332700,7.064332763671875,-0.011733141727745533,-0.04109816998243332,0.0012222053483128548
1772789947209367800,7.084367919921875,0.024416379630565643,0.03363624960184097,0.016086624935269356
1772789947229403000,7.10440283203125,0.030768902972340584,0.017109589651226997,0.05065062269568443
1772789947249437700,7.124437744140625,0.008795080706477165,-0.0074104140512645245,0.051623571664094925
1772789947269472000,7.144471923828125,0.008221426978707314,-0.026008807122707367,0.033971890807151794
1772789947289506800,7.1645068359375,0.0027546342462301254,-0.05082868039608002,0.026537520810961723
1772789947309541600,7.184541748046875,-0.0014843088574707508,-0.041747890412807465,0.03782184422016144
1772789947329576700,7.20457666015625,0.00047996826469898224,0.002617098391056061,0.02677379734814167
1772789947349610800,7.22461083984375,0.017717674374580383,0.02378891035914421,0.028224825859069824
1772789947369645800,7.244645751953125,0.0179427582770586,-0.00985284335911274,0.03151459991931915
1772789947389681000,7.264680908203125,0.010255815461277962,-0.05302364379167557,0.03823880851268768
1772789947409716000,7.284716064453125,-0.0017921101534739137,-0.09951358288526535,0.030102353543043137
1772789947429750800,7.304750732421875,-0.019894691184163094,-0.08174677193164825,0.03034552000463009
1772789947449784800,7.324784912109375,-0.026502594351768494,-0.10137168318033218,0.027501869946718216
1772789947469820000,7.34481982421875,-0.05636237934231758,-0.11817829310894012,0.008063103072345257
1772789947489854700,7.364854736328125,-0.10633710771799088,-0.13705798983573914,-0.027803335338830948
1772789947509889800,7.384889892578125,-0.12019959092140198,-0.170718252658844,-0.04092559218406677
1772789947529923800,7.404923828125,-0.08502513915300369,-0.0951804369688034,-0.03742271289229393
1772789947549958700,7.424958740234375,-0.025985339656472206,0.012787188403308392,-0.034606847912073135
1772789947569993700,7.44499365234375,0.007989207282662392,0.027711886912584305,-0.06391128152608871
1772789947590028800,7.46502880859375,0.003419354557991028,-0.05013715848326683,-0.04551269859075546
1772789947610064000,7.48506396484375,-0.00496867299079895,-0.08334176987409592,-0.009257614612579346
1772789947630098000,7.505097900390625,0.009034307673573494,-0.020090077072381973,0.008861374109983444
1772789947650133000,7.525133056640625,0.039290908724069595,0.05950157716870308,0.018884070217609406
1772789947670167800,7.545167724609375,0.03551178053021431,0.029642993584275246,0.02470579743385315
1772789947690202600,7.56520263671875,0.014108017086982727,-0.08987527340650558,0.037239111959934235
1772789947710237700,7.58523779296875,0.00046064797788858414,-0.10606010258197784,0.04473111405968666
1772789947730271700,7.605271728515625,0.0038940561935305595,0.006435686722397804,0.027721717953681946
1772789947750306800,7.625306884765625,0.008423032239079475,0.07197671383619308,0.01225619949400425
1772789947770342000,7.645341796875,-0.004283306188881397,0.022569268941879272,0.02678573690354824
1772789947790377000,7.665376953125,-0.030568452551960945,-0.08311166614294052,0.03944510221481323
1772789947810410800,7.68541064453125,-0.04475889354944229,-0.052433840930461884,0.03138694539666176
1772789947830445800,7.70544580078125,-0.01629786565899849,0.03581820800900459,0.017008954659104347
1772789947850481000,7.72548095703125,-0.011913593858480453,0.023492880165576935,0.03723577782511711
1772789947870515700,7.745515625,-0.034927692264318466,-0.06595242768526077,0.03774722293019295
1772789947890550800,7.76555078125,-0.05374752730131149,-0.12646788358688354,0.02040959522128105
1772789947910584600,7.78558447265625,-0.06140384450554848,-0.13364233076572418,0.01285499706864357
1772789947930619600,7.80561962890625,-0.027793677523732185,-0.044642213732004166,-0.012322547845542431
1772789947950654700,7.82565478515625,0.01612097956240177,0.041508305817842484,-0.048589400947093964
1772789947970689800,7.845689697265625,0.01971149630844593,-0.0038554565981030464,-0.03736472502350807
1772789947990723800,7.865723876953125,0.0014614840038120747,-0.02884080447256565,-0.04786064103245735
1772789948010759000,7.885759033203125,0.01780036836862564,-0.013656945899128914,-0.05635518208146095
1772789948030794000,7.9057939453125,0.03705965355038643,-0.0014155972748994827,-0.049131955951452255
1772789948050828800,7.925828857421875,0.03770667687058449,0.015759017318487167,-0.051310837268829346
1772789948070864000,7.94586376953125,0.03917042538523674,0.035382967442274094,-0.041829001158475876
1772789948090898000,7.96589794921875,0.03238368034362793,-0.007456342224031687,-0.04505200311541557
1772789948110933000,7.98593310546875,0.0213090181350708,-0.046043623238801956,-0.01602926291525364
1772789948130966800,8.005966796875,0.02161792665719986,-0.03673761710524559,-0.00682027917355299
1772789948151001900,8.026001953125,0.02000850811600685,0.03827796131372452,-0.031246718019247055
1772789948171036000,8.046035888671875,0.005268902517855167,0.03777577355504036,-0.010347744449973106
1772789948191071000,8.066071044921875,-0.009151292964816093,-0.037744298577308655,0.00498801888898015
1772789948211106000,8.08610595703125,-0.019730783998966217,-0.05620092526078224,-0.020492469891905785
1772789948231140900,8.106140869140624,-0.015197486616671085,0.021444842219352722,-0.03923559561371803
1772789948251175000,8.1261748046875,-0.0031583388336002827,0.04139871150255203,-0.02249874733388424
1772789948271210000,8.1462099609375,0.0004837429150938988,-0.0009021731093525887,0.008010471239686012
1772789948291245000,8.1662451171875,0.0027445191517472267,-0.0008660741150379181,0.010757479816675186
1772789948311280000,8.186280029296874,0.015421072021126747,0.04410480335354805,-0.022449616342782974
1772789948331315000,8.20631494140625,0.02438495121896267,0.0410221591591835,-0.018205825239419937
1772789948351349000,8.226348876953125,0.013807187788188457,0.0292804054915905,0.005692227743566036
1772789948371383800,8.2463837890625,0.01005648449063301,0.015685532242059708,0.011892274022102356
1772789948391419000,8.2664189453125,0.019723493605852127,0.010272124782204628,-0.006378342397511005
1772789948411454000,8.286453857421876,0.012892021797597408,0.0283510722219944,-0.02317950129508972
1772789948431489000,8.306489013671875,0.024871720001101494,0.027298323810100555,-0.015029961243271828
1772789948451523000,8.326523193359375,0.03613768890500069,0.013772659935057163,-0.007798946462571621
1772789948471558000,8.346557861328124,0.028360914438962936,0.02324497513473034,-0.0015018084086477757
1772789948491593000,8.366593017578126,0.03534645959734917,0.03434361144900322,0.019315505400300026
1772789948511628000,8.3866279296875,0.045432835817337036,-0.007759383879601955,0.01578238233923912
1772789948531662000,8.406662109375,0.03616073727607727,-0.006422898732125759,0.02673543617129326
1772789948551697000,8.42669677734375,0.04593786224722862,0.03188705071806908,0.011298570781946182
1772789948571732000,8.44673193359375,0.044384703040122986,0.050643857568502426,-0.02009849064052105
1772789948591767000,8.46676708984375,0.038420483469963074,0.026862123981118202,0.0029328581877052784
1772789948611801900,8.4868017578125,0.03755608946084976,0.00014712940901517868,0.007964037358760834
1772789948631836000,8.5068359375,0.022079329937696457,-0.013051738031208515,-0.024772007018327713
1772789948651871000,8.52687109375,0.010134314186871052,0.030582696199417114,-0.02735639177262783
1772789948671906000,8.546906005859375,0.023586003109812737,0.02681712619960308,-0.005852220114320517
1772789948691941000,8.566941162109375,0.028267648071050644,0.012769663706421852,-0.0062642949633300304
1772789948711975000,8.586974853515626,0.014977408573031425,0.025647379457950592,-0.03680569306015968
1772789948732010000,8.607010009765625,0.023664046078920364,0.02661955915391445,-0.07593946158885956
1772789948752044800,8.627044921875,0.021287497133016586,0.021793413907289505,-0.06748529523611069
1772789948772079900,8.647079833984375,0.014691300690174103,0.011441954411566257,-0.03941042348742485
1772789948792115000,8.667114990234374,0.004363515414297581,0.02732256054878235,-0.022842345759272575
1772789948812149000,8.68714892578125,0.010719000361859798,0.014306529425084591,-0.01643088273704052
1772789948832184000,8.70718408203125,0.006889800075441599,0.000959065742790699,-0.007382181938737631
1772789948852219000,8.727218994140625,0.01071394793689251,-0.0025007398799061775,-0.00950375385582447
1772789948872254000,8.74725390625,0.010951679199934006,0.024392861872911453,0.0017346437089145184
1772789948892289000,8.7672890625,0.005028693936765194,0.02522716484963894,-0.024278227239847183
1772789948912323000,8.787322998046875,-0.006795147899538279,-0.009965572506189346,0.011630451306700706
1772789948932358100,8.807358154296875,-0.013319075107574463,-0.020240167155861855,0.006096096243709326
1772789948952393000,8.82739306640625,-0.020246755331754684,-0.0074652498587965965,-0.0005189296789467335
1772789948972428000,8.847427978515626,-0.02487228438258171,0.04249262809753418,-0.017127830535173416
1772789948992461800,8.8674619140625,-0.012039562687277794,0.041070807725191116,0.008983633480966091
1772789949012497000,8.887496826171875,-0.015994975343346596,0.015250172466039658,0.029540687799453735
1772789949032532000,8.907531982421874,-0.022744134068489075,-0.016999579966068268,0.027681676670908928
1772789949052567000,8.927567138671876,-0.017685668542981148,0.016142427921295166,0.01724976673722267
1772789949072602000,8.94760205078125,-0.006378323771059513,0.01744636707007885,0.010305449366569519
1772789949092636200,8.96763623046875,-0.007933750748634338,0.011814428493380547,0.014962133020162582
1772789949112671200,8.987671142578124,-0.013416878879070282,0.02197016216814518,0.019847126677632332
1772789949132706000,9.0077060546875,-0.011742960661649704,0.003661738708615303,0.019962333142757416
1772789949152741000,9.0277412109375,-0.008777320384979248,-0.047972194850444794,0.014913288876414299
1772789949172775000,9.04777490234375,-0.011019636876881123,-0.017852401360869408,-0.013572477735579014
1772789949192810000,9.06781005859375,-0.004140098113566637,0.02006768435239792,-0.016744622960686684
1772789949212845000,9.087844970703125,-0.006503046490252018,0.016170863062143326,0.002216467633843422
1772789949232880000,9.107880126953125,-0.0220465287566185,-0.0017263442277908325,0.019799144938588142
1772789949252915200,9.127915283203125,-0.023828323930501938,-0.048934489488601685,0.009970631450414658
1772789949272949000,9.147948974609376,-0.030748525634407997,-0.003927086479961872,-0.015262603759765625
1772789949292984000,9.167984130859375,-0.024205423891544342,0.04251137003302574,0.0046235257759690285
1772789949313019100,9.18801904296875,-0.02014975994825363,0.00412246398627758,0.040772803127765656
1772789949333054000,9.208053955078125,-0.04057026281952858,-0.026119740679860115,0.037924718111753464
1772789949353089000,9.228089111328124,-0.041579630225896835,-0.03112603724002838,0.003299156203866005
1772789949373123000,9.248123046875,-0.040404148399829865,-0.022862669080495834,-0.0025320968125015497
1772789949393158100,9.268158203125,-0.039576455950737,-0.017433427274227142,0.000093020498752594
1772789949413193000,9.28819287109375,-0.03374439850449562,-0.009737424552440643,0.005657162517309189
1772789949433228000,9.30822802734375,-0.021118946373462677,-0.01600770838558674,0.0032611717469990253
1772789949453262000,9.328261962890625,-0.02295348048210144,-0.036743439733982086,-0.01718800887465477
1772789949473297200,9.348297119140625,-0.027470318600535393,-0.031078804284334183,-0.02748209238052368
1772789949493332200,9.368332275390625,-0.0037380352150648832,-0.006499124690890312,-0.034288644790649414
1772789949513367300,9.3883671875,-0.0033426075242459774,0.01501928549259901,-0.026518305763602257
1772789949533402000,9.408402099609376,-0.0003840583376586437,0.03254260867834091,-0.007676987908780575
1772789949553436200,9.428436279296875,0.0002633933909237385,0.03829000145196915,0.005068555008620024
1772789949573471000,9.448470947265625,-0.010517358779907227,-0.0025399224832654,-0.010529826395213604
1772789949593506000,9.468506103515624,-0.02588629350066185,-0.026947159320116043,-0.01068122498691082
1772789949613541000,9.488541015625,-0.01788293942809105,0.014175494201481342,0.016907742246985435
1772789949633576200,9.508576171875,-0.0023845513351261616,0.03948592022061348,0.03331217169761658
1772789949653610000,9.52860986328125,-0.011181041598320007,-0.0018120650202035904,0.013916977681219578
1772789949673645000,9.54864501953125,-0.016542252153158188,-0.025114458054304123,-0.019584523513913155
1772789949693680000,9.56868017578125,-0.008241641335189342,-0.016678018495440483,-0.03555797040462494
1772789949713715200,9.588715087890625,0.007278013043105602,-0.0008824234828352928,-0.024548035115003586
1772789949733749200,9.608749267578125,0.01611338183283806,0.03243556246161461,-0.0016023034695535898
1772789949753784000,9.6287841796875,0.019120946526527405,0.017738407477736473,0.015633895993232727
1772789949773819100,9.648819091796875,0.026729587465524673,0.01918722689151764,0.004342913627624512
1772789949793854000,9.66885400390625,0.02366805635392666,0.03700433298945427,-0.006515406537801027
1772789949813889000,9.688888916015625,0.013801137916743755,0.04127916321158409,0.011223061941564083
1772789949833923000,9.708923095703126,0.00882918480783701,0.035449475049972534,0.037511713802814484
1772789949853958100,9.728958251953125,-0.002598005812615156,0.011680600233376026,0.03770333155989647
1772789949873993200,9.7489931640625,-0.01017895620316267,0.0022941268980503082,0.02148573473095894
1772789949894028300,9.7690283203125,-0.007387395948171616,0.010338390246033669,0.006816441658884287
1772789949914062000,9.78906201171875,0.0006890115328133106,0.029509123414754868,-0.00808775145560503
1772789949934097200,9.80909716796875,0.002471751533448696,-0.00955317821353674,-0.0064933570101857185
1772789949954132000,9.829132080078125,-0.004356864839792252,-0.015067888423800468,-0.011717136949300766
1772789949974167000,9.8491669921875,-0.005716528743505478,0.00577426515519619,-0.021682577207684517
1772789949994202000,9.8692021484375,0.00785832665860653,0.00602495763450861,-0.01264558918774128
1772789950014236000,9.88923583984375,0.0066542793065309525,-0.006571452133357525,0.01204864215105772
1772789950034271000,9.90927099609375,0.0002473986241966486,-0.018360266461968422,-0.004839705768972635
1772789950054306000,9.92930615234375,0.0018416803795844316,-0.007598633412271738,-0.03327489644289017
1772789950074340600,9.949340576171876,-0.0033571377862244844,0.011070256121456623,-0.032581355422735214
1772789950094374700,9.969374755859375,0.0009052515961229801,0.006586025469005108,-0.01577654294669628
1772789950114409500,9.989409423828125,-0.0015873131342232227,0.0020671049132943153,-0.013701587915420532
1772789950134444500,10.009444580078124,-0.006883345544338226,0.011122308671474457,-0.006051049567759037
1772789950154479600,10.029479736328126,-0.0010619205422699451,-0.004161696881055832,-0.00008907075971364975
1772789950174514400,10.049514404296875,-0.0013292760122567415,-0.04548441991209984,0.014075499027967453
1772789950194548500,10.069548583984375,-0.013762583956122398,0.0012980848550796509,0.010105875320732594
1772789950214583600,10.08958349609375,0.0011440953239798546,0.011683589778840542,0.0034011597745120525
1772789950234618600,10.10961865234375,-0.0031935255974531174,0.0187641903758049,-0.0202166885137558
1772789950254653400,10.1296533203125,-0.006915579084306955,-0.02180388942360878,0.005046628415584564
1772789950274687500,10.1496875,-0.0056794751435518265,-0.003676868975162506,-0.009147616103291512
1772789950294722600,10.16972265625,0.006249888334423304,0.011360136792063713,0.009210086427628994
1772789950314757600,10.189757568359376,-0.001599492970854044,0.03324533998966217,0.004404639359563589
1772789950334792700,10.209792724609375,-0.004334011115133762,-0.011734077706933022,0.028566405177116394
1772789950354827500,10.22982763671875,-0.0024342171382158995,0.026564044877886772,0.014291471801698208
1772789950374861600,10.249861572265624,0.0028845781926065683,0.022431008517742157,0.017492931336164474
1772789950394896400,10.269896484375,-0.002899256767705083,-0.034986600279808044,-0.007941894233226776
1772789950414931500,10.289931396484375,-0.007616532035171986,-0.047141142189502716,-0.015961430966854095
1772789950434966500,10.309966552734375,0.006458414252847433,0.017143988981842995,-0.009138028137385845
1772789950455001600,10.330001708984375,0.019124137237668037,0.023517096415162086,0.019123978912830353
1772789950475035400,10.350035400390626,0.019144320860505104,-0.006073850207030773,0.037528861314058304
1772789950495070500,10.370070556640625,0.007354567293077707,-0.08623992651700974,0.019884835928678513
1772789950515105500,10.39010546875,-0.008185680955648422,-0.10184545814990997,0.000800765585154295
1772789950535140600,10.410140625,0.005808589980006218,-0.014826503582298756,-0.00031254813075065613
1772789950555174700,10.430174560546876,0.017153071239590645,0.06752277165651321,-0.011956121772527695
1772789950575209700,10.450209716796875,0.002333832671865821,0.004994389601051807,-0.0015140390023589134
1772789950595244500,10.47024462890625,-0.014348451979458332,-0.062291987240314484,0.019254039973020554
1772789950615279400,10.490279296875,-0.009042780846357346,-0.021239085122942924,-0.018556565046310425
1772789950635314400,10.510314453125,0.00699284952133894,0.03938444331288338,-0.04506934434175491
1772789950655348500,10.530348388671875,-0.005093495361506939,0.029850583523511887,-0.002492213621735573
1772789950675383600,10.550383544921875,-0.014602596871554852,-0.023098263889551163,0.04364762455224991
1772789950695418600,10.570418701171874,-0.012386113405227661,-0.02590068057179451,0.05008907616138458
1772789950715453700,10.59045361328125,-0.0031464204657822847,0.048941079527139664,0.0024556689895689487
1772789950735487500,10.610487548828125,0.006830601952970028,0.04313323646783829,0.0013019377365708351
1772789950755522600,10.6305224609375,-0.005548779387027025,-0.02013331465423107,0.026121489703655243
1772789950775557600,10.6505576171875,-0.01734384521842003,-0.012533803470432758,0.026449240744113922
1772789950795592400,10.670592529296876,-0.007790091447532177,0.020492512732744217,0.004721914883702993
1772789950815627500,10.69062744140625,0.0013304362073540688,-0.010801494121551514,0.023058045655488968
1772789950835661600,10.71066162109375,-0.00005893479101359844,-0.005693817511200905,0.0020478353835642338
1772789950855696400,10.7306962890625,0.0036085043102502823,0.004183846525847912,-0.0053919716738164425
1772789950875731500,10.7507314453125,0.011660436168313026,0.02994135394692421,-0.02405659668147564
1772789950895766500,10.7707666015625,0.007952858693897724,-0.0030294638127088547,0.0009381501004099846
1772789950915801600,10.790801513671875,0.007319623604416847,-0.038727566599845886,0.018863556906580925
1772789950935835600,10.810835693359374,0.012013030238449574,-0.06416857242584229,0.00992189534008503
1772789950955870700,10.83087060546875,0.005718772299587727,0.03400913253426552,-0.008663881570100784
1772789950975905500,10.850905517578125,0.019176876172423363,0.045078255236148834,-0.002573079662397504
1772789950995940400,10.8709404296875,0.009236611425876617,-0.004702497273683548,0.013616049662232399
1772789951015974400,10.890974365234374,0.0004294102545827627,-0.008213985711336136,0.012485921382904053
1772789951036009500,10.911009521484376,-0.0034888151567429304,0.0012350315228104591,-0.019704075530171394
1772789951056044500,10.93104443359375,-0.0061543951742351055,0.012148147448897362,-0.026269782334566116
1772789951076079600,10.95107958984375,-0.0134631572291255,0.02790755033493042,0.005819936748594046
1772789951096114700,10.97111474609375,-0.012567194178700447,0.022236796095967293,0.02478928118944168
1772789951116148700,10.991148681640626,-0.011450933292508125,-0.03404543548822403,0.021479910239577293
1772789951136183800,11.011183837890625,-0.006292329635471106,-0.04298073425889015,0.001468331553041935
1772789951156219000,11.031218994140625,0.00010758289135992527,0.04471803456544876,-0.005667682737112045
1772789951176253700,11.051253662109374,0.010841800831258297,0.03880556672811508,0.020323609933257103
1772789951196287700,11.071287841796876,0.0009979992173612118,-0.04353911429643631,0.052018675953149796
1772789951216322600,11.091322509765625,-0.0035239781718701124,-0.03882790729403496,0.023476438596844673
1772789951236357600,11.111357666015625,0.020013514906167984,0.04275107383728027,-0.013665826991200447
1772789951256392700,11.131392822265624,0.0171575378626585,0.041249215602874756,-0.004412130452692509
1772789951276427800,11.151427734375,-0.008390961214900017,-0.05059991031885147,0.04870673641562462
1772789951296461800,11.1714619140625,-0.0008954785298556089,-0.008516866713762283,0.014554064720869064
1772789951316496600,11.19149658203125,0.025146745145320892,0.05733636021614075,-0.021464331075549126
1772789951336531700,11.21153173828125,0.019939489662647247,0.028096970170736313,-0.01866539940237999
1772789951356566800,11.23156689453125,-0.00839331466704607,-0.03973741829395294,0.008013889193534851
1772789951376600800,11.251600830078125,-0.006318572908639908,-0.010174844413995743,0.012742716819047928
1772789951396635600,11.2716357421875,0.02100740745663643,0.03430991619825363,-0.00443184794858098
1772789951416670700,11.291670654296874,0.01582455448806286,-0.001040794886648655,-0.003601390402764082
1772789951436705800,11.311705810546876,-0.0018502218881621957,-0.0290096253156662,0.02019410766661167
1772789951456740600,11.33174072265625,0.00477238092571497,-0.009613278321921825,-0.0026798928156495094
1772789951476774700,11.351774658203125,0.01272874791175127,0.033348243683576584,-0.015895972028374672
1772789951496809700,11.371809814453124,0.00784111488610506,0.014277584850788116,0.004205770790576935
1772789951516844800,11.3918447265625,-0.006440662778913975,-0.04643688350915909,0.012195266783237457
1772789951536879900,11.4118798828125,-0.0046314760111272335,-0.027405645698308945,-0.009987856261432171
1772789951556914700,11.431914794921875,0.01814856193959713,0.04839381203055382,-0.02475048042833805
1772789951576948700,11.45194873046875,0.023095782846212387,-0.0061340900138020515,-0.0019973686430603266
1772789951596983600,11.471983642578126,0.003785202745348215,-0.025151191279292107,0.00043676048517227173
1772789951617018600,11.4920185546875,0.015834348276257515,-0.052732355892658234,-0.02530689723789692
1772789951637053700,11.5120537109375,0.013721662573516369,-0.01456339843571186,-0.04896482452750206
1772789951657087700,11.532087646484374,0.01490163803100586,0.002499663271009922,-0.0365419015288353
1772789951677122800,11.552122802734376,0.00719477841630578,-0.004197250120341778,-0.0033943888265639544
1772789951697157600,11.57215771484375,0.006889906711876392,-0.02050231769680977,-0.0193872582167387
1772789951717192700,11.592192626953125,0.0007597208023071289,-0.010874465107917786,-0.02820594049990177
1772789951737227800,11.612227783203124,0.0004464173689484596,-0.011227507144212723,-0.058842048048973083
1772789951757261800,11.63226171875,0.0014869470614939928,-0.0002810657024383545,-0.050108473747968674
1772789951777297000,11.652296875,-0.00031539727933704853,0.033714041113853455,-0.035511523485183716
1772789951797331700,11.672331787109375,0.005546871107071638,0.004290543496608734,-0.0064336322247982025
1772789951817366500,11.692366455078124,0.008410259149968624,0.01523907482624054,0.0028661401011049747
1772789951837400600,11.712400634765626,0.01749955303966999,0.006078951992094517,-0.014996662735939026
1772789951857435600,11.732435546875,0.007723239250481129,-0.006424230523407459,-0.023723743855953217
1772789951877470700,11.752470703125,-0.0009727911092340946,0.022012267261743546,0.012145329266786575
1772789951897505800,11.772505859375,0.009713670238852501,0.052261944860219955,0.037563346326351166
1772789951917540900,11.792540771484376,0.013856347650289536,0.10181107372045517,0.056135836988687515
1772789951937574700,11.81257470703125,0.029749495908617973,0.08158918470144272,0.04411199688911438
1772789951957609700,11.832609619140625,0.01139630377292633,-0.022048678249120712,-0.003176117781549692
1772789951977644800,11.852644775390624,-0.020207135006785393,-0.056031327694654465,-0.012552103027701378
1772789951997679600,11.8726796875,-0.012354500591754913,0.0405382439494133,0.0072535560466349125
1772789952017714700,11.892714599609375,0.007393519859761,0.02519826591014862,0.013875070959329605
1772789952037748700,11.912748779296875,-0.008242824114859104,-0.002829485572874546,0.006098759826272726
1772789952057783600,11.932783447265624,-0.018381336703896523,-0.04208246245980263,-0.019048286601901054
1772789952077819000,11.95281884765625,-0.025669492781162262,-0.03107064962387085,-0.02492811158299446
1772789952097854000,11.97285400390625,-0.01219893991947174,0.010244975797832012,-0.01202726736664772
1772789952117888000,11.992887939453125,-0.001365205505862832,0.01902265101671219,-0.014935962855815887
1772789952137923000,12.012923095703124,-0.02449849806725979,-0.01550570223480463,-0.013381987810134888
1772789952157958100,12.032958251953126,-0.025431538000702858,-0.021615045145154,-0.00838496070355177
1772789952177993000,12.052992919921875,-0.01798386313021183,0.0058852797374129295,-0.01386723481118679
1772789952198027800,12.07302783203125,-0.012307284399867058,0.014757798984646797,0.001934596337378025
1772789952218061800,12.093061767578124,-0.009212013334035873,-0.014950571581721306,0.011903449892997742
1772789952238097000,12.113096923828126,-0.013212168589234352,-0.028788048774003983,-0.009646469727158546
1772789952258132000,12.133132080078125,-0.008109159767627716,-0.019021593034267426,-0.03322621434926987
1772789952278167000,12.1531669921875,-0.0024764304980635643,0.024345848709344864,-0.030063070356845856
1772789952298200800,12.173200927734374,-0.004251833073794842,-0.006649508140981197,0.0030718608759343624
1772789952318236000,12.19323583984375,-0.010135816410183907,-0.04326200857758522,0.019332846626639366
1772789952338271000,12.21327099609375,-0.013846727088093758,0.0015103835612535477,-0.005162323359400034
1772789952358306000,12.23330615234375,-0.010807568207383156,0.0006150370463728905,-0.022929854691028595
1772789952378340900,12.2533408203125,-0.01574142649769783,-0.029340317472815514,-0.019365908578038216
1772789952398375000,12.273375,-0.019062498584389687,0.008990755304694176,-0.03000727854669094
1772789952418410000,12.293409912109375,-0.016794659197330475,0.0010211421176791191,-0.01795152761042118
1772789952438444800,12.31344482421875,-0.013589736074209213,-0.021486647427082062,-0.005465380847454071
1772789952458479900,12.33347998046875,-0.01157311163842678,0.006509319879114628,-0.003893410786986351
1772789952478515000,12.353514892578126,-0.0017117098905146122,-0.0005524670705199242,0.0006630313582718372
1772789952498549000,12.373549072265625,0.0012637367472052574,-0.002030915580689907,0.002877518068999052
1772789952518584000,12.393583984375,-0.008505163714289665,0.030246827751398087,-0.01365573052316904
1772789952538619100,12.413619140625,-0.008281445130705833,-0.00166259054094553,-0.002310427837073803
1772789952558656000,12.433656005859374,-0.014688163064420223,-0.041938282549381256,0.02366602048277855
1772789952578691000,12.453691162109376,-0.013158688321709633,-0.01431758888065815,0.013208802789449692
1772789952598726100,12.47372607421875,-0.002386808395385742,0.028830230236053467,-0.0052140625193715096
1772789952618760000,12.493760009765625,-0.007574846968054771,-0.014886380173265934,-0.012190543115139008
1772789952638795000,12.513794921875,-0.012601951137185097,-0.028417110443115234,-0.015191551297903061
1772789952658829800,12.533829833984376,-0.004813947714865208,0.005844997242093086,-0.042383600026369095
1772789952678865000,12.553864990234375,0.006328667514026165,0.022200603038072586,-0.037370964884757996
1772789952698899000,12.57389892578125,-0.0015077688731253147,-0.004586656577885151,-0.006623866036534309
1772789952718934000,12.59393408203125,-0.003843361046165228,-0.017214035615324974,0.008366800844669342
1772789952738968800,12.61396875,0.0009184242226183414,0.01085534505546093,-0.010217836126685143
1772789952759004000,12.63400390625,0.010546894744038582,0.0007140468806028366,0.0025412747636437416
1772789952779039000,12.6540390625,0.0018624658696353436,0.011402799747884274,-0.00588298449292779
1772789952799073000,12.674072998046874,0.003890885040163994,-0.013491702266037464,0.00342192267999053
1772789952819108000,12.694108154296876,0.003615140914916992,0.025695543736219406,0.011367617174983025
1772789952839143000,12.714142822265625,0.007452949415892363,-0.006935550831258297,0.020179836079478264
1772789952859178000,12.734177978515625,-0.016614938154816628,-0.03419116139411926,0.015399519354104996
1772789952879212800,12.754212890625,-0.007940223440527916,-0.013429157435894012,-0.003591748420149088
1772789952899246800,12.774246826171876,0.0041264938190579414,0.004181285388767719,0.01660998910665512
1772789952919282000,12.794281982421875,-0.021277081221342087,-0.01726628467440605,-0.005630901083350182
1772789952939317000,12.81431689453125,-0.01902478188276291,-0.028438538312911987,0.0029635881073772907
1772789952959352000,12.83435205078125,0.0030685332603752613,0.05099333077669144,-0.001505186315625906
1772789952979385900,12.8543857421875,0.006402487400919199,0.01031884178519249,0.028722800314426422
1772789952999421000,12.8744208984375,-0.021528715267777443,-0.05404168739914894,0.03838974982500076
1772789953019456000,12.8944560546875,-0.008630864322185516,-0.03681769222021103,-0.0124738197773695
1772789953039490800,12.91449072265625,0.006911296397447586,0.07241789251565933,-0.054989032447338104
1772789953059526000,12.93452587890625,0.004260119050741196,0.023634904995560646,-0.016762815415859222
1772789953079560400,12.954560546875,-0.006798732094466686,-0.06438514590263367,0.009037438780069351
1772789953099595300,12.97459521484375,-0.004970017820596695,-0.033299949020147324,-0.012709839269518852
1772789953119630300,12.99463037109375,0.01821666769683361,0.015043236315250397,-0.02450725808739662
1772789953139665400,13.01466552734375,0.012096317484974861,0.02377399057149887,-0.003291037864983082
1772789953159699500,13.034699462890625,-0.0025673052296042442,-0.004084332846105099,0.02805434539914131
1772789953179734500,13.054734619140625,-0.0034655893687158823,-0.015719151124358177,0.01896125078201294
1772789953199769600,13.07476953125,-0.0030070540960878134,0.008946909569203854,-0.001465406734496355
1772789953219804400,13.094804443359376,-0.010356863029301167,0.0006105359643697739,-0.008880939334630966
1772789953239839200,13.114839111328125,-0.011907191947102547,0.0031148437410593033,0.012173548340797424
1772789953259873300,13.134873291015625,0.0009025884792208672,0.04971592128276825,0.020128726959228516
1772789953279908400,13.154908447265624,0.0031590622384101152,-0.0036965329200029373,-0.00193044263869524
1772789953299943400,13.174943359375,-0.0137666966766119,-0.040140338242053986,-0.003085196018218994
1772789953319978500,13.194978515625,-0.016854630783200264,0.013246720656752586,-0.0028002376202493906
1772789953340013600,13.215013671875,-0.005264759995043278,0.03159736841917038,0.00901775248348713
1772789953360047400,13.23504736328125,0.0020661368034780025,0.012772858142852783,0.024662993848323822
1772789953380082400,13.25508251953125,-0.003528444329276681,-0.010358843952417374,0.004298960790038109
1772789953400117500,13.275117431640625,-0.009672237560153008,-0.006259536370635033,-0.013880407437682152
1772789953420152300,13.29515234375,-0.005078539717942476,0.03738492727279663,0.0003642789088189602
1772789953440186600,13.3151865234375,-0.002860640874132514,0.014377223327755928,0.0027706711553037167
1772789953460221400,13.335221435546876,-0.016962820664048195,-0.023691564798355103,0.011673308908939362
1772789953480256300,13.35525634765625,-0.01030057854950428,-0.00533757358789444,0.0010077860206365585
1772789953500291300,13.375291259765625,0.0030384394340217113,0.02610103413462639,-0.008500777184963226
1772789953520326400,13.395326416015624,-0.002474516164511442,0.02935454621911049,-0.006952716037631035
1772789953540360400,13.4153603515625,-0.012425052002072334,-0.001210283488035202,-0.010398192331194878
1772789953560395500,13.4353955078125,-0.00850195437669754,0.009153571911156178,-0.00668653380125761
1772789953580430600,13.4554306640625,-0.0034365609753876925,0.0211456548422575,-0.005015188828110695
1772789953600465700,13.475465576171874,-0.004684910643845797,-0.0031874915584921837,-0.000025105662643909454
1772789953620499500,13.49549951171875,-0.009747755713760853,-0.021077588200569153,-0.003897189162671566
1772789953640534500,13.515534423828125,-0.009297767654061317,0.007669253274798393,-0.012134509161114693
1772789953660569300,13.5355693359375,0.00009843683801591396,0.021291475743055344,-0.02091495506465435
1772789953680604400,13.5556044921875,-0.008282264694571495,-0.0027704518288373947,-0.0015162231866270304
1772789953700639500,13.575639404296876,-0.0034938277676701546,-0.020078154280781746,-0.009318569675087929
1772789953720673300,13.59567333984375,-0.0004470318090170622,-0.009699659422039986,-0.032296739518642426
1772789953740708400,13.615708251953125,0.004829686135053635,0.009661710821092129,-0.022110605612397194
1772789953760743400,13.635743408203124,0.010849958285689354,-0.0360264927148819,-0.0054671065881848335
1772789953780778500,13.655778564453126,0.008640024811029434,-0.009615650400519371,0.0068100797943770885
1772789953800812500,13.6758125,0.025794828310608864,0.009793665260076523,-0.006698839366436005
1772789953820847600,13.69584765625,0.02693798765540123,0.028496993705630302,-0.025774391368031502
1772789953840882400,13.71588232421875,0.02155621536076069,-0.014310690574347973,-0.007360451854765415
1772789953860917200,13.735917236328126,0.011449690908193588,-0.0609944723546505,0.011721763759851456
1772789953880952300,13.755952392578125,0.011484794318675995,0.011684432625770569,-0.0027445030864328146
1772789953900986400,13.775986328125,0.02435680478811264,0.06439630687236786,-0.009919770061969757
1772789953921021400,13.796021484375,0.016567563638091087,0.007651984691619873,0.015286045148968697
1772789953941056500,13.816056396484376,-0.001462769927456975,-0.03526727855205536,0.00611858069896698
1772789953961091600,13.836091552734375,0.003154168836772442,-0.0027251923456788063,-0.018127208575606346
1772789953981125400,13.85612548828125,0.020617643371224403,0.01784866489470005,-0.014609492383897305
1772789954001160400,13.876160400390624,0.012698184698820114,-0.0028548995032906532,0.015527677722275257
1772789954021195500,13.896195556640626,0.006706293672323227,-0.0006551165133714676,0.02318880707025528
1772789954041230300,13.916230224609375,0.015529029071331024,0.008891317062079906,0.008266882970929146
1772789954061265400,13.936265380859375,0.007746314629912376,-0.010973768308758736,0.0068670473992824554
1772789954081299200,13.95629931640625,0.00327353086322546,0.003812531940639019,0.0141143174842
1772789954101334300,13.976334228515626,0.007982012815773487,0.024281896650791168,0.016808606684207916
1772789954121369300,13.996369384765625,0.0073174284771084785,0.026440812274813652,0.016551464796066284
1772789954141404400,14.016404296875,0.008925828151404858,-0.005998450331389904,0.01717720925807953
1772789954161438500,14.0364384765625,0.0073199463076889515,-0.01188153587281704,0.011906803585588932
1772789954181473500,14.0564736328125,0.01784830540418625,0.014856720343232155,0.029627906158566475
1772789954201508600,14.076508544921875,0.0251971036195755,0.033709581941366196,0.04553116485476494
1772789954221543400,14.09654345703125,0.02268391102552414,0.021635927259922028,0.040829092264175415
1772789954241578200,14.116578125,0.021541409194469452,-0.009775098413228989,0.015701379626989365
1772789954261612300,14.1366123046875,0.020643694326281548,-0.007255986798554659,0.0496683232486248
1772789954281647400,14.1566474609375,0.021608401089906693,0.0034802472218871117,0.04047101363539696
1772789954301682400,14.176682373046875,0.017122887074947357,-0.001020137220621109,0.024894695729017258
1772789954321717500,14.196717529296874,0.02769990637898445,0.048007797449827194,0.020390471443533897
1772789954341752600,14.216752685546876,0.025061987340450287,0.017607785761356354,0.03794687241315842
1772789954361786400,14.236786376953125,0.004118775948882103,0.0010436521843075752,0.027643457055091858
1772789954381821400,14.256821533203125,0.009423578158020973,0.002627631649374962,0.024476125836372375
1772789954401856500,14.2768564453125,0.014971278607845306,0.01911001279950142,-0.00518384063616395
1772789954421891300,14.296891357421876,0.014849390834569931,0.007430306635797024,-0.023099029436707497
1772789954441925600,14.316925537109375,0.010024662129580975,0.026102539151906967,-0.010345791466534138
1772789954461960200,14.336960205078125,0.007746716029942036,-0.0021181730553507805,0.005004560109227896
1772789954481995300,14.356995361328124,0.00844665989279747,-0.015760507434606552,-0.0005396720953285694
1772789954502030300,14.3770302734375,0.005576580762863159,0.013487334363162518,-0.017279524356126785
1772789954522065400,14.3970654296875,0.0020047202706336975,-0.006847427226603031,-0.012780575081706047
1772789954542099500,14.417099365234375,-0.009914766065776348,-0.023721924051642418,0.005618877708911896
1772789954562134500,14.437134521484374,-0.019581031054258347,-0.009296946227550507,0.012448865920305252
1772789954582169600,14.457169677734376,-0.019963249564170837,0.004980491474270821,0.008997984230518341
1772789954602204400,14.477204345703125,-0.030193742364645004,-0.015361540019512177,-0.0004895408637821674
1772789954622238500,14.497238525390625,-0.04012099280953407,-0.014210985042154789,-0.012392770498991013
1772789954642273500,14.5172734375,-0.031787317246198654,-0.0014093685895204544,0.002492346800863743
1772789954662308400,14.537308349609376,-0.025723200291395187,-0.0005612559616565704,0.00712211849167943
1772789954682343400,14.557343505859375,-0.028890926390886307,-0.016521982848644257,0.022548675537109375
1772789954702378500,14.57737841796875,-0.015500731766223907,-0.016374751925468445,-0.0038830447010695934
1772789954722412300,14.597412353515624,-0.0042583514004945755,0.029760319739580154,-0.02725077234208584
1772789954742447400,14.617447265625,0.008281221613287926,0.02725670114159584,-0.006645457819104195
1772789954762482400,14.637482421875,0.0025454149581491947,-0.003975290805101395,0.011119081638753414
1772789954782517500,14.657517578125,0.005111387465149164,-0.02609109878540039,0.007234819233417511
1772789954802551600,14.677551513671874,0.00894906371831894,-0.011849706992506981,-0.012014295905828476
1772789954822586600,14.697586669921876,0.010309148579835892,0.013736552558839321,-0.009008140303194523
1772789954842621400,14.717621337890625,0.008884217590093613,0.003522109240293503,-0.0007521924562752247
1772789954862656300,14.73765625,0.00966845266520977,0.020531481131911278,0.0015541687607765198
1772789954882691300,14.75769140625,0.01398057397454977,0.02059212327003479,0.014652201905846596
1772789954902725400,14.777725341796875,0.005481034051626921,0.001408969983458519,0.01381788682192564
1772789954922760400,14.797760498046875,-0.00761718675494194,-0.006285332143306732,0.006160490680485964
1772789954942795500,14.81779541015625,-0.0037478148005902767,0.029354926198720932,0.005018196534365416
1772789954962830300,14.837830322265624,-0.0005223853513598442,0.05536380410194397,0.008190469816327095
1772789954982864400,14.857864501953125,-0.0119584109634161,0.029530884698033333,0.013775276951491833
1772789955002899500,14.8778994140625,-0.02627548575401306,0.016292862594127655,-0.00966835767030716
1772789955022934500,14.8979345703125,-0.01015497837215662,0.026935230940580368,-0.02560669556260109
1772789955042969300,14.91796923828125,0.014173517003655434,0.04469713941216469,-0.01699293777346611
1772789955063004400,14.93800439453125,0.019534330815076828,0.02388831600546837,-0.0246797576546669
1772789955083037700,14.95803759765625,0.02158815786242485,-0.02146398462355137,-0.03560377657413483
1772789955103072800,14.97807275390625,0.018579259514808655,-0.034243833273649216,-0.033772002905607224
1772789955123107600,14.998107666015626,0.02847757190465927,0.01981220208108425,-0.036576468497514725
1772789955143142700,15.018142578125,0.04462672024965286,0.03794683516025543,-0.02092801034450531
1772789955163176700,15.0381767578125,0.039182934910058975,-0.02723817341029644,0.016826866194605827
1772789955183211500,15.05821142578125,0.03155844658613205,-0.050999272614717484,0.014980880543589592
1772789955203246600,15.07824658203125,0.03305553272366524,0.018266992643475533,-0.01006387174129486
1772789955223281700,15.09828173828125,0.034113723784685135,0.02540379762649536,-0.009057816118001938
1772789955243316700,15.118316650390625,0.020693276077508926,-0.025336623191833496,0.002753784880042076
1772789955263350800,15.138350830078124,0.017879441380500793,-0.04303186014294624,-0.009236352518200874
1772789955283385900,15.1583857421875,0.026419928297400475,0.0009687822312116623,-0.05225784331560135
1772789955303420700,15.178420654296875,0.027710173279047012,0.015213731676340103,-0.04505741596221924
1772789955323455500,15.19845556640625,0.02503890171647072,-0.01912667416036129,-0.02541489340364933
1772789955343489500,15.218489501953124,0.01993740163743496,-0.03458745777606964,-0.021136295050382614
1772789955363524600,15.238524658203126,0.02489594928920269,0.0015968522056937218,-0.027605397626757622
1772789955383559700,15.2585595703125,0.03241097554564476,-0.010831417515873909,-0.03772550821304321
1772789955403594800,15.2785947265625,0.02665643021464348,-0.01463782973587513,-0.029927803203463554
1772789955423629800,15.2986298828125,0.03255977854132652,0.00846417061984539,-0.035023391246795654
1772789955443663600,15.31866357421875,0.039192523807287216,0.013069568201899529,-0.02360444702208042
1772789955463698700,15.33869873046875,0.032610803842544556,0.009754612110555172,0.006425583269447088
1772789955483733800,15.358733642578125,0.017833298072218895,-0.012468171305954456,0.005855855531990528
1772789955503768600,15.3787685546875,0.01513632107526064,-0.014202318154275417,-0.004278548061847687
1772789955523803600,15.3988037109375,0.011714166961610317,0.0019289227202534676,-0.014623085036873817
1772789955543837700,15.418837646484375,0.011585727334022522,0.03835119307041168,-0.010721735656261444
1772789955563872500,15.43887255859375,0.011630609631538391,0.02044612169265747,0.007064835634082556
1772789955583907600,15.458907470703124,-0.00028406246565282345,-0.0057343607768416405,0.02566886693239212
1772789955603942700,15.478942626953126,0.002917130244895816,-0.033326394855976105,0.0075675430707633495
1772789955623976700,15.498976806640625,0.0038205073215067387,0.005782050080597401,-0.028421420603990555
1772789955644011800,15.51901171875,0.008557325229048729,0.02616642788052559,-0.003900206880643964
1772789955664046800,15.539046875,-0.0015252146404236555,0.016094600781798363,0.014638684689998627
1772789955684081700,15.55908154296875,-0.008093364536762238,0.002614051103591919,0.03364618495106697
1772789955704115700,15.57911572265625,-0.0025971282739192247,-0.01415390707552433,0.010972289368510246
1772789955724150800,15.59915087890625,-0.016092028468847275,-0.007557206321507692,-0.0038150500040501356
1772789955744185600,15.619185546875,-0.01147756539285183,0.0004598097875714302,-0.04098346829414368
1772789955764220700,15.639220703125,-0.017277004197239876,0.0181499682366848,-0.02066260203719139
1772789955784255700,15.659255859375,-0.022805994376540184,0.03554600477218628,-0.002107292879372835
1772789955804289500,15.67928955078125,-0.017291061580181122,-0.0023273080587387085,0.021524755284190178
1772789955824324600,15.69932470703125,-0.022570645436644554,-0.019806914031505585,0.01436817180365324
1772789955844359700,15.719359619140626,-0.025534924119710922,-0.05349418520927429,-0.015624720603227615
1772789955864394800,15.739394775390625,-0.038066256791353226,-0.0018716352060437202,-0.03485660254955292
1772789955884429600,15.7594296875,-0.032358307391405106,0.0459614023566246,-0.028570743277668953
1772789955904464000,15.7794638671875,-0.04145018011331558,0.0016938429325819016,-0.0016085568349808455
1772789955924498400,15.79949853515625,-0.05368708446621895,-0.02506876364350319,-0.012338210828602314
1772789955944533500,15.819533447265625,-0.04261697828769684,-0.014729047194123268,-0.029386062175035477
1772789955964568600,15.839568603515625,-0.038693346083164215,-0.005603295750916004,-0.030981285497546196
1772789955984602600,15.8596025390625,-0.050890691578388214,0.011006332002580166,-0.028464799746870995
1772789956004637700,15.8796376953125,-0.04907474294304848,0.012196093797683716,-0.028574202209711075
1772789956024672800,15.8996728515625,-0.03688199073076248,-0.0016070697456598282,-0.009975217282772064
1772789956044707800,15.919707763671875,-0.035762399435043335,-0.0031438153237104416,-0.007237211801111698
1772789956064742000,15.939741943359374,-0.03416198864579201,0.011815700680017471,-0.006647429894655943
1772789956084777000,15.95977685546875,-0.01744045689702034,0.02837914600968361,0.005447764415293932
1772789956104812000,15.97981201171875,-0.009259945712983608,0.033855684101581573,0.027195841073989868
1772789956124846600,15.9998466796875,-0.009936612099409103,0.01612728089094162,0.01808435656130314
1772789956144878800,16.01987890625,-0.008517798036336899,0.038587942719459534,0.009589502587914467
1772789956164914000,16.039913818359373,0.006217524409294128,0.009198027662932873,-0.02296980656683445
1772789956184948700,16.05994873046875,-0.0045637693256139755,-0.015933679416775703,0.002070083748549223
1772789956204983800,16.07998388671875,0.008120291866362095,0.01639215275645256,0.004788375459611416
1772789956225017900,16.100017822265624,0.024491598829627037,0.05325246974825859,-0.005177217070013285
1772789956245053000,16.120052978515623,0.006121580954641104,-0.0038613928481936455,0.01638087071478367
1772789956265087700,16.140087646484375,-0.015405826270580292,-0.06565077602863312,-0.004169382154941559
1772789956285122800,16.160122802734374,-0.010876982472836971,-0.010822519659996033,-0.029055971652269363
1772789956305156600,16.180156494140626,0.0004406454972922802,0.07648767530918121,-0.029923342168331146
1772789956325191700,16.200191650390625,-0.017957255244255066,0.02406589686870575,0.003015657886862755
1772789956345226800,16.220226806640625,-0.04060563072562218,-0.08994139730930328,0.01940665766596794
1772789956365261800,16.24026171875,-0.035139963030815125,-0.06641159951686859,-0.002966620959341526
1772789956385297000,16.260296875,-0.013830755837261677,0.051939260214567184,-0.016238655894994736
1772789956405331000,16.2803310546875,-0.016366679221391678,0.040591396391391754,0.01155148446559906
1772789956425365800,16.30036572265625,-0.027322575449943542,-0.0330619290471077,0.034480661153793335
1772789956445400800,16.32040087890625,-0.018147259950637817,-0.055167946964502335,0.01757926307618618
1772789956465435600,16.340435546875,-0.016953252255916595,-0.03182234242558479,0.004845535848289728
1772789956485469700,16.3604697265625,-0.009772593155503273,0.021677788347005844,0.023536108434200287
1772789956505504800,16.3805048828125,-0.009879296645522118,0.03589995205402374,0.03742125630378723
1772789956525539800,16.400539794921876,-0.020213082432746887,-0.02659216895699501,0.030497746542096138
1772789956545575000,16.420574951171876,-0.02457573264837265,-0.021822825074195862,0.0128693338483572
1772789956565609700,16.440609619140623,-0.010397142730653286,0.023720141500234604,-0.0015206967946141958
1772789956585643800,16.460643798828126,-0.008957158774137497,-0.00002455897629261017,-0.00403235387057066
1772789956605678800,16.480678955078126,-0.0152078066021204,-0.012247368693351746,-0.0026701907627284527
1772789956625714000,16.5007138671875,-0.008427352644503117,0.010654202662408352,-0.00018121395260095596
1772789956645748700,16.520748779296873,-0.00693111214786768,-0.009941332042217255,0.007124541327357292
1772789956665783800,16.54078369140625,-0.012619794346392155,-0.031866706907749176,0.003988001961261034
1772789956685817600,16.560817626953124,-0.010318640619516373,0.023855559527873993,-0.018860483542084694
1772789956705852700,16.580852783203124,-0.008374257944524288,0.01869535818696022,-0.011738146655261517
1772789956725887700,16.6008876953125,-0.021984895691275597,-0.038526102900505066,0.019123146310448647
1772789956745922800,16.6209228515625,-0.026636486873030663,-0.03607233241200447,0.002647056244313717
1772789956765956900,16.640956787109374,-0.017365965992212296,0.041297055780887604,-0.021831434220075607
1772789956785992000,16.660991943359374,-0.015499078668653965,0.02248186618089676,-0.002043909626081586
1772789956806026800,16.68102685546875,-0.03256598114967346,-0.03144597262144089,0.020861942321062088
1772789956826061800,16.701061767578125,-0.026935173198580742,-0.03075505793094635,0.010250273160636425
1772789956846096600,16.7210966796875,-0.009862828999757767,0.009600183926522732,-0.0002978770062327385
1772789956866131000,16.741130859375,-0.005701132584363222,-0.003831292502582073,0.0033587035723030567
1772789956886165800,16.761165771484375,-0.01325895357877016,-0.023311033844947815,0.021448751911520958
1772789956906200800,16.781200927734375,-0.00954485684633255,0.005378067493438721,0.02251185104250908
1772789956926236000,16.80123583984375,-0.003763941815122962,0.02073710784316063,0.03869776427745819
1772789956946269700,16.821269775390626,-0.007764464244246483,-0.01360326912254095,0.04392039403319359
1772789956966304800,16.8413046875,-0.022169053554534912,-0.04517676681280136,0.03401859849691391
1772789956986339800,16.86133984375,-0.02032439410686493,-0.021367371082305908,0.022257903590798378
1772789957006375000,16.881375,-0.01878291554749012,0.008434084244072437,0.011195128783583641
1772789957026410000,16.901409912109376,-0.02149985358119011,-0.048810042440891266,-0.016226958483457565
1772789957046443800,16.92144384765625,-0.02748197503387928,-0.05551157146692276,-0.011529280804097652
1772789957066478800,16.941478759765626,-0.02505159191787243,-0.030166149139404297,-0.0132136894389987
1772789957086513400,16.961513427734374,-0.018151992931962013,-0.023012002930045128,-0.01572468690574169
1772789957106548500,16.981548583984374,-0.011295102536678314,-0.05272160470485687,-0.015035750344395638
1772789957126582500,17.00158251953125,-0.010791498236358166,-0.05487849935889244,-0.020728256553411484
1772789957146617600,17.02161767578125,-0.013975217938423157,-0.02311144955456257,-0.017177056521177292
1772789957166652700,17.041652587890624,-0.010934760794043541,-0.029068324714899063,0.008341703563928604
1772789957186687700,17.061687744140624,-0.02530352957546711,-0.09670160710811615,-0.00033356714993715286
1772789957206722600,17.08172265625,-0.031214460730552673,-0.12662726640701294,-0.017203081399202347
1772789957226756600,17.101756591796875,-0.0249389186501503,-0.08007726818323135,-0.02311537228524685
1772789957246791700,17.121791748046874,-0.023082830011844635,-0.013000544160604477,0.008336697705090046
1772789957266826800,17.14182666015625,0.014051483944058418,-0.07311724871397018,0.0472811758518219
1772789957286861600,17.161861572265625,0.020632483065128326,-0.05792270973324776,-0.008496122434735298
1772789957306895600,17.1818955078125,0.007589266169816256,-0.02485787309706211,-0.006337531842291355
1772789957326930400,17.201930419921876,0.015882214531302452,0.0053614964708685875,0.027447467669844627
1772789957346965500,17.221965576171876,0.012352259829640388,0.06749967485666275,0.018648585304617882
1772789957367000600,17.24200048828125,0.0020755056757479906,0.11353684216737747,0.005528423935174942
1772789957387035600,17.26203564453125,0.017416108399629593,0.054405245929956436,0.0034927139058709145
1772789957407069700,17.282069580078126,0.0063324421644210815,0.008639082312583923,-0.015150902792811394
1772789957427104500,17.3021044921875,-0.0013326636981219053,-0.048245131969451904,-0.016371173784136772
1772789957447139600,17.3221396484375,0.016293644905090332,-0.04482889920473099,0.008099139668047428
1772789957467174700,17.342174560546876,0.014971192926168442,0.0027457280084490776,-0.02185937389731407
1772789957487208700,17.362208740234376,0.024500209838151932,0.05981924757361412,-0.018075019121170044
1772789957507243500,17.382243408203124,0.03434010595083237,0.012899341061711311,0.004468337632715702
1772789957527278600,17.402278564453123,0.016862839460372925,-0.06303717195987701,0.026489771902561188
1772789957547313700,17.422313720703126,0.02096785232424736,-0.048178452998399734,0.0274234339594841
1772789957567348500,17.442348388671874,0.02958749607205391,0.038916800171136856,0.006254989188164473
1772789957587382500,17.462382568359374,0.029007116332650185,0.05509628728032112,0.013601413927972317
1772789957607417600,17.48241748046875,0.012945927679538727,-0.04976640269160271,0.022709615528583527
1772789957627452700,17.50245263671875,0.005318820476531982,-0.04722534120082855,0.024475131183862686
1772789957647487700,17.52248779296875,0.02033081464469433,0.03358278423547745,0.014853334054350853
1772789957667521500,17.542521484375,0.012251589447259903,0.06141558289527893,0.01878441497683525
1772789957687556600,17.562556640625,-0.0060233501717448235,0.025963708758354187,0.02180636115372181
1772789957707591400,17.58259130859375,-0.001824361621402204,-0.020668387413024902,-0.0014986563473939896
1772789957727626500,17.60262646484375,0.002002076478675008,-0.017483040690422058,-0.03656052425503731
1772789957747661600,17.62266162109375,0.010024629533290863,0.0055793896317481995,-0.013662412762641907
1772789957767695600,17.642695556640625,0.011969760991632938,-0.01134062185883522,0.009409088641405106
1772789957787730700,17.662730712890625,0.018797706812620163,-0.01620936207473278,0.010126406326889992
1772789957807765500,17.682765625,0.030540967360138893,0.024517491459846497,-0.020343918353319168
1772789957827800600,17.702800537109376,0.030399829149246216,0.016938341781497,-0.006827597972005606
1772789957847834600,17.722834716796875,0.028332937508821487,0.007114429026842117,0.020077815279364586
1772789957867869700,17.74286962890625,0.032110776752233505,-0.01870758831501007,0.025388000532984734
1772789957887904800,17.76290478515625,0.025188477709889412,-0.03704847767949104,-0.010032352060079575
1772789957907939600,17.782939697265626,0.01994345150887966,0.0011583724990487099,-0.007761548273265362
1772789957927974700,17.802974609375,0.024055784568190575,0.02403491921722889,-0.002525399439036846
1772789957948008400,17.823008544921876,0.011806094087660313,0.023031901568174362,0.024137068539857864
1772789957968043500,17.84304345703125,0.011015890166163445,0.006737362593412399,0.02806737646460533
1772789957988078600,17.86307861328125,0.006971994414925575,0.016222544014453888,-0.010619919747114182
1772789958008113700,17.88311376953125,0.0054695080034434795,0.00038853101432323456,0.0052652303129434586
1772789958028147700,17.903147705078126,-0.012484805658459663,-0.008402153849601746,0.0028194873593747616
1772789958048182500,17.9231826171875,-0.010884702205657959,0.028848830610513687,0.021096400916576385
1772789958068217600,17.943217529296874,-0.004149782937020063,0.021301787346601486,0.02370361238718033
1772789958088253000,17.9632529296875,-0.018265042454004288,0.0021093804389238358,0.004072049632668495
1772789958108288000,17.9832880859375,-0.02301226183772087,-0.011358542367815971,-0.004013435449451208
1772789958128321800,18.00332177734375,-0.013520825654268265,-0.007309283595532179,-0.010093357414007187
1772789958148356900,18.02335693359375,-0.014012576080858707,0.0033482052385807037,0.008602693676948547
1772789958168392000,18.043391845703123,-0.04137084633111954,0.050648510456085205,0.0003393394872546196
1772789958188427000,18.063427001953126,-0.011216247454285622,-0.003601105883717537,0.015409447252750397
1772789958208461000,18.0834609375,-0.00037506106309592724,-0.020882565528154373,0.016101621091365814
1772789958228496100,18.10349609375,-0.007669409271329641,-0.007372524589300156,0.01885237731039524
1772789958248531000,18.123531005859373,0.000793124083429575,0.025023147463798523,0.0193050317466259
1772789958268566000,18.14356591796875,0.006314865313470364,0.025309937074780464,-0.00044785719364881516
1772789958288600800,18.163600830078124,0.0029762564226984978,-0.026988763362169266,0.021803194656968117
1772789958308635000,18.183634765625,-0.00804755836725235,-0.008679617196321487,0.015581964515149593
1772789958328670000,18.203669921875,-0.003570845350623131,0.011687037535011768,0.006549642886966467
1772789958348705000,18.223705078125,-0.004051899071782827,0.022503770887851715,0.015904376283288002
1772789958368740000,18.243739990234374,-0.012108092196285725,0.012226419523358345,0.003611619584262371
1772789958388774000,18.26377392578125,-0.023650752380490303,0.00634913332760334,-0.02489914745092392
1772789958408809000,18.28380908203125,-0.02522968128323555,-0.023979339748620987,-0.015872683376073837
1772789958428844000,18.303843994140625,-0.01867872290313244,-0.009339984506368637,-0.000031480565667152405
1772789958448879000,18.323879150390624,-0.011179784312844276,0.031772077083587646,-0.023333637043833733
1772789958468914000,18.343913818359376,-0.0004110834561288357,0.034808848053216934,0.003937975037842989
1772789958488948000,18.363947998046875,-0.004486649762839079,-0.01677546463906765,0.031194491311907768
1772789958508982800,18.383982666015626,-0.002563515678048134,-0.03561495617032051,-0.00046842731535434723
1772789958529017900,18.404017822265626,0.004669302608817816,-0.013768118806183338,-0.02231002226471901
1772789958549053000,18.424052978515626,-0.0015390017069876194,0.02587493136525154,0.012803180143237114
1772789958569087000,18.4440869140625,-0.006934697739779949,0.026347428560256958,0.036297447979450226
1772789958589122000,18.4641220703125,0.002707687672227621,0.002235160209238529,0.024469658732414246
1772789958609156900,18.484156982421876,-0.004483658820390701,-0.027843691408634186,-0.006255466490983963
1772789958629192000,18.50419189453125,0.00012741191312670708,-0.014700011350214481,-0.0010698435362428427
1772789958649227000,18.52422705078125,0.0035996506921947002,0.03349089249968529,-0.005753032397478819
1772789958669261000,18.544260986328126,0.010285847820341587,0.029584810137748718,0.003867307212203741
1772789958689296100,18.564296142578126,0.012225615791976452,-0.006136986427009106,-0.021875247359275818
1772789958709331000,18.5843310546875,0.0062539405189454556,-0.024042826145887375,-0.026203075423836708
1772789958729366000,18.604365966796873,0.0035212791990488768,0.016527440398931503,0.005303431302309036
1772789958749399800,18.62439990234375,0.01095209177583456,0.024723723530769348,0.020375270396471024
1772789958769435000,18.644434814453124,0.012358124367892742,-0.004085723310709,0.013067388907074928
1772789958789470000,18.664469970703124,0.009342547506093979,-0.0036148950457572937,-0.014020859263837337
1772789958809505000,18.684505126953123,0.01415000669658184,-0.0024284757673740387,-0.009449183940887451
1772789958829539000,18.7045390625,0.013533429242670536,0.002596343867480755,-0.012227615341544151
1772789958849574000,18.724573974609374,0.005598409101366997,-0.0027309926226735115,-0.007082526106387377
1772789958869609000,18.74460888671875,0.013764831237494946,0.01191720925271511,0.00013431627303361893
1772789958889644000,18.76464404296875,0.018041955307126045,0.006785099394619465,-0.0176440067589283
1772789958909678800,18.784678955078125,0.005849204957485199,-0.0325431302189827,-0.009669437073171139
1772789958929713000,18.804712890625,-0.005047454498708248,-0.03937048837542534,-0.012940523214638233
1772789958949748000,18.824748046875,-0.0014988493639975786,-0.019023971632122993,-0.008086069487035275
1772789958969783000,18.844782958984375,-0.009778935462236404,0.007882014848291874,-0.0066476622596383095
1772789958989817900,18.86481787109375,-0.006039412226527929,-0.006194348447024822,-0.008490721695125103
1772789959009853000,18.88485302734375,-0.0211558286100626,-0.061164747923612595,0.004658659920096397
1772789959029887000,18.904886962890625,-0.027960490435361862,-0.030014699324965477,-0.008049904368817806
1772789959049922000,18.924922119140625,-0.017304250970482826,-0.020400207489728928,-0.024172810837626457
1772789959069957000,18.94495703125,-0.021126415580511093,-0.03483017534017563,-0.005785556510090828
1772789959089991700,18.96499169921875,-0.021697750315070152,-0.0452023521065712,0.008291494101285934
1772789959110026000,18.98502587890625,-0.015965018421411514,-0.017939258366823196,0.006209138780832291
1772789959130060800,19.005060791015627,-0.00971264485269785,0.022264696657657623,-0.010936100035905838
1772789959150096000,19.025095947265626,-0.010913066565990448,-0.008884485810995102,0.020701859146356583
1772789959170131000,19.045130859375,-0.029004063457250595,-0.025193944573402405,-0.00512824859470129
1772789959190166000,19.065166015625,-0.018563048914074898,-0.025160856544971466,-0.010910628363490105
1772789959210199800,19.08519970703125,-0.0077084023505449295,0.012919203378260136,-0.015020822174847126
1772789959230235000,19.10523486328125,-0.01461738906800747,0.02736838161945343,0.0006097680889070034
1772789959250270000,19.12527001953125,-0.01607520692050457,0.008702712133526802,-0.0028368846978992224
1772789959270305000,19.145304931640624,-0.0028271880000829697,-0.015054277144372463,-0.015910983085632324
1772789959290339000,19.165339111328127,0.0005599628202617168,-0.014789829961955547,-0.023422852158546448
1772789959310374100,19.1853740234375,0.002136720810085535,-0.005861341021955013,-0.03672315552830696
1772789959330408700,19.20540869140625,-0.001383006339892745,0.00459789764136076,-0.02365889400243759
1772789959350443800,19.22544384765625,0.0014791672583669424,0.005399956367909908,-0.00845818780362606
1772789959370477800,19.245477783203125,0.010839227586984634,-0.01616838574409485,0.007429345045238733
1772789959390513000,19.265512939453124,0.00855611078441143,0.006963343359529972,-0.03071034699678421
1772789959410548000,19.2855478515625,0.013131375424563885,0.03094368241727352,-0.04220559448003769
1772789959430583000,19.3055830078125,0.00046243309043347836,0.011691545136272907,0.001151242759078741
1772789959450618000,19.3256181640625,-0.017220614477992058,-0.0029247673228383064,0.014330077916383743
1772789959470652000,19.34565185546875,-0.015097761526703835,0.005758295767009258,-0.005877479445189238
1772789959490687000,19.36568701171875,-0.008233372122049332,0.03563716262578964,-0.015696678310632706
1772789959510722000,19.38572216796875,-0.015206290408968925,0.00291415024548769,-0.010259829461574554
1772789959530756900,19.4057568359375,-0.022647220641374588,0.015948690474033356,-0.0048586283810436726
1772789959550791000,19.425791015625,0.00435643782839179,0.03670041635632515,-0.015525930561125278
1772789959570825700,19.44582568359375,-0.0017388002015650272,0.016953205689787865,-0.018341902643442154
1772789959590860800,19.46586083984375,-0.014753667637705803,-0.0061760833486914635,-0.02674524113535881
1772789959610896000,19.485895751953127,-0.0083857960999012,0.021216612309217453,-0.02413557842373848
1772789959630931000,19.505930908203126,-0.003375316970050335,0.020436782389879227,-0.019244171679019928
1772789959650965000,19.525965087890626,-0.01331106573343277,0.011241380125284195,-0.03988731652498245
1772789959671000000,19.546,-0.007239650934934616,-0.005782373249530792,-0.06271855533123016
1772789959691035100,19.56603515625,-0.006067248061299324,-0.0013629961758852005,-0.0499541275203228
1772789959711069700,19.586069580078124,-0.011818143539130688,0.015123594552278519,-0.02994679845869541
1772789959731104000,19.60610400390625,-0.004610626492649317,0.026113256812095642,-0.006047538015991449
1772789959751138800,19.626138916015623,0.010150812566280365,-0.0067849596962332726,0.0007501072250306606
1772789959771174000,19.646173828125,0.0021971974056214094,-0.037434179335832596,-0.006410220172256231
1772789959791209000,19.666208984375,-0.0019918782636523247,-0.03151315078139305,-0.015596356242895126
1772789959811244000,19.686244140625,-0.0013017754536122084,0.022299500182271004,-0.008653323166072369
1772789959831277800,19.70627783203125,-0.0071669332683086395,0.02566305547952652,0.0032582920975983143
1772789959851313000,19.72631298828125,-0.019511891528964043,-0.019536910578608513,0.027309725061058998
1772789959871348000,19.746347900390624,-0.015210007317364216,-0.020254507660865784,-0.0072094751521945
1772789959891383000,19.766383056640624,-0.003310775151476264,-0.007601982913911343,-0.022718388587236404
1772789959911417000,19.7864169921875,-0.0022573259193450212,-0.006706525571644306,0.0013095829635858536
1772789959931452200,19.8064521484375,-0.004489992745220661,-0.0014948751777410507,0.007242189254611731
1772789959951486700,19.82648681640625,-0.0018376887310296297,0.024687595665454865,-0.009533116593956947
1772789959971521800,19.846521728515626,0.007028981577605009,0.021407347172498703,-0.025826824828982353
1772789959991556900,19.866556884765625,-0.004885873757302761,-0.00030822306871414185,-0.02236243709921837
1772789960011591000,19.8865908203125,0.0017352045979350805,-0.02891049161553383,0.0107513926923275
1772789960031626000,19.9066259765625,0.007339367177337408,-0.01185702160000801,-0.02754334919154644
1772789960051661000,19.9266611328125,0.01367063820362091,-0.00037091784179210663,-0.03831332176923752
1772789960071695000,19.946695068359375,0.005777501035481691,0.01749742403626442,-0.010688032023608685
1772789960091729200,19.966729248046875,0.008937079459428787,0.02516264095902443,-0.01704447530210018
1772789960111764200,19.98676416015625,0.004935413599014282,0.011245491914451122,-0.025077633559703827
1772789960131799300,20.00679931640625,-0.006856592372059822,-0.024425290524959564,0.0007952959276735783
1772789960151834400,20.02683447265625,-0.004824548028409481,0.0028861528262495995,0.0038802679628133774
1772789960171869200,20.046869140625,0.0038918359205126762,0.04661712795495987,-0.0028030425310134888
1772789960191903200,20.0669033203125,-0.00369822746142745,0.029386814683675766,0.025779634714126587
1772789960211938000,20.08693798828125,-0.016465822234749794,-0.011923391371965408,0.02421942539513111
1772789960231973000,20.10697314453125,-0.01696603372693062,-0.027440112084150314,-0.009526212699711323
1772789960252008200,20.12700830078125,-0.009296932257711887,0.0013035489246249199,-0.018632348626852036
1772789960272042200,20.147042236328126,-0.01427057571709156,0.029504846781492233,-0.008310031145811081
1772789960292077000,20.1670771484375,-0.0160689577460289,0.009197265841066837,0.014242392033338547
1772789960312112000,20.187112060546873,-0.006834609899669886,-0.011702314019203186,0.008380087092518806
1772789960332147200,20.207147216796876,0.007406237535178661,-0.0108798174187541,-0.007531353272497654
1772789960352182300,20.227182373046876,0.0053700413554906845,-0.007811023388057947,-0.02106291800737381
1772789960372216300,20.24721630859375,0.0013859523460268974,0.0027420194819569588,-0.02564435452222824
1772789960392251100,20.267251220703123,0.00909352581948042,0.04463743790984154,-0.014789940789341927
1772789960412286200,20.2872861328125,0.013232692144811153,0.01902913860976696,-0.014836916700005531
1772789960432321000,20.307321044921874,0.0036289202980697155,0.03851432725787163,-0.024301888421177864
1772789960452355000,20.32735498046875,0.009499851614236832,-0.007513296790421009,-0.037140436470508575
1772789960472390100,20.34739013671875,-0.006737967021763325,-0.0340951606631279,-0.02651177905499935
1772789960492425200,20.36742529296875,-0.009532742202281952,-0.004717495292425156,-0.019539058208465576
1772789960512460300,20.387460205078124,-0.00462441286072135,0.0013428013771772385,0.0027016913518309593
1772789960532495400,20.407495361328124,-0.019676249474287033,-0.02024412713944912,0.018822766840457916
1772789960552530200,20.4275302734375,-0.011271781288087368,-0.018415361642837524,0.012403152883052826
1772789960572565000,20.44756494140625,-0.0011257270816713572,0.026314791291952133,0.019315697252750397
1772789960592600000,20.46760009765625,0.002159453695639968,0.02515215426683426,0.014360221102833748
1772789960612635100,20.48763525390625,0.00018201139755547047,-0.005016121082007885,0.03320077061653137
1772789960632670200,20.507670166015625,0.01061831321567297,-0.023213136941194534,0.0512842983007431
1772789960652704300,20.527704345703125,0.009230822324752808,0.015234004706144333,0.04570094496011734
1772789960672739300,20.5477392578125,0.0017264927737414837,0.05087330564856529,0.021916601806879044
1772789960692774100,20.567774169921876,0.006238424219191074,-0.008535584434866905,0.024799462407827377
1772789960712809000,20.58780908203125,0.00404970720410347,-0.01071852631866932,-0.005198256112635136
1772789960732843300,20.60784326171875,0.003078923560678959,0.014501205645501614,-0.008176680654287338
1772789960752878000,20.627878173828126,0.0037249329034239054,0.00491391122341156,-0.007746496237814426
1772789960772913200,20.6479130859375,0.011925473809242249,0.008938531391322613,-0.020861905068159103
1772789960792948200,20.6679482421875,0.018611999228596687,0.01759897544980049,-0.03268299624323845
1772789960812983300,20.6879833984375,0.012867637909948826,0.012884934432804585,-0.033316388726234436
1772789960833017000,20.70801708984375,-0.004620541352778673,0.033492740243673325,-0.01224519219249487
1772789960853052200,20.72805224609375,0.00781854335218668,0.12187165766954422,-0.009566830471158028
1772789960873087200,20.748087158203123,0.02922092378139496,0.04758644476532936,-0.029538586735725403
1772789960893122300,20.768122314453127,0.015334177762269974,0.07949472963809967,-0.03019186295568943
1772789960913157000,20.7881572265625,0.019219208508729935,0.04745295271277428,-0.02905206009745598
1772789960933191200,20.808191162109374,0.01614636927843094,-0.061799462884664536,0.01267818920314312
1772789960953226000,20.82822607421875,0.06669509410858154,-0.23498965799808502,0.05373102053999901
1772789960973261000,20.848260986328125,0.06305921822786331,-0.21100984513759613,0.051884233951568604
1772789960993296100,20.868296142578124,0.0020540780387818813,-0.10750287026166916,-0.007841069251298904
1772789961013330200,20.888330078125,-0.019663292914628983,-0.04785887897014618,-0.031143326312303543
1772789961033365200,20.908365234375,0.029378095641732216,-0.05142456665635109,0.030330058187246323
1772789961053400300,20.928400390625,0.07801739126443863,-0.008932333439588547,0.10802022367715836
1772789961073436000,20.948435791015626,0.07217808067798615,0.014282572083175182,0.0492112934589386
1772789961093469700,20.9684697265625,0.04196567088365555,0.003951970487833023,0.023674119263887405
1772789961113504800,20.9885048828125,0.0244864784181118,0.04557177424430847,0.021253911778330803
1772789961133539600,21.00853955078125,0.017022157087922096,0.023524481803178787,-0.003322240663692355
1772789961153574700,21.02857470703125,-0.00530431792140007,0.0011382699012756348,-0.012701500207185745
1772789961173609700,21.048609619140624,-0.002533688209950924,0.01805492863059044,-0.035652514547109604
1772789961193643800,21.068643798828123,0.006224568467587233,0.020692933350801468,-0.0375983826816082
1772789961213678600,21.0886787109375,0.02110210806131363,0.05241244286298752,-0.021033287048339844
1772789961233713700,21.108713623046874,0.03232463821768761,0.02091246470808983,0.029928136616945267
1772789961253748700,21.128748779296874,0.02310488559305668,-0.0912981629371643,0.0683116614818573
1772789961273782800,21.14878271484375,0.013102593831717968,-0.034328676760196686,0.05513538047671318
1772789961293817900,21.16881787109375,0.0430343933403492,0.0839051827788353,-0.005123953800648451
1772789961313852700,21.188852783203124,0.011152325198054314,-0.022813057526946068,-0.026176247745752335
1772789961333887700,21.2088876953125,-0.02282012812793255,-0.03392147272825241,-0.021359767764806747
1772789961353922600,21.228922607421875,0.0012278070207685232,0.04535071924328804,-0.044838570058345795
1772789961373956600,21.24895654296875,0.0076963165774941444,0.045953504741191864,-0.032986968755722046
1772789961393991700,21.26899169921875,0.013127894140779972,0.07791530340909958,0.010416647419333458
1772789961414026800,21.28902685546875,0.032775819301605225,0.08801335841417313,-0.009703164920210838
1772789961434061800,21.309061767578125,0.05663846805691719,0.0845814198255539,-0.01094544492661953
1772789961454095600,21.329095703125,0.05204225331544876,0.02482573688030243,-0.007625154219567776
1772789961474130700,21.349130615234376,0.057973723858594894,-0.02011578157544136,0.005348863545805216
1772789961494165800,21.369165771484376,0.06646102666854858,0.0011594900861382484,-0.021620243787765503
1772789961514200600,21.38920068359375,0.07611976563930511,0.09046786278486252,-0.02624240517616272
1772789961534235600,21.409235595703127,0.07032918930053711,0.02142506092786789,0.009241625666618347
1772789961554269700,21.429269775390626,0.04207850992679596,-0.06008348986506462,0.020190265029668808
1772789961574304800,21.4493046875,0.04111171513795853,-0.03820330277085304,0.006539775058627129
1772789961594339600,21.469339599609373,0.04512295871973038,0.03529041260480881,0.020466795191168785
1772789961614374700,21.489374755859377,0.029833829030394554,0.03258439525961876,0.055314432829618454
1772789961634408700,21.50940869140625,0.014393896795809269,-0.026012931019067764,0.06335795670747757
1772789961654443800,21.52944384765625,0.006821773014962673,-0.00835496000945568,0.05035772919654846
1772789961674478800,21.549478759765623,-0.0007607683073729277,-0.014530781656503677,0.0499369241297245
1772789961694514000,21.569513916015627,-0.012262764386832714,0.03958909958600998,0.05442202463746071
1772789961714547700,21.589547607421874,-0.015847163274884224,0.10970630496740341,0.043447963893413544
1772789961734582800,21.609582763671874,-0.015246492810547352,0.06512510031461716,0.04448647424578667
1772789961754617600,21.62961767578125,-0.017224889248609543,0.01874799281358719,0.06250695884227753
1772789961774652700,21.649652587890625,-0.0034977092873305082,0.025250405073165894,0.09183885902166367
1772789961794687700,21.669687744140624,0.015488334000110626,0.07502393424510956,0.09995122998952866
1772789961814721800,21.6897216796875,0.022963887080550194,0.03720611333847046,0.0898740366101265
1772789961834756600,21.709756591796875,0.028874550014734268,-0.029423629865050316,0.08299189060926437
1772789961854791700,21.729791748046875,0.04069114476442337,-0.07890043407678604,0.06165499985218048
1772789961874826800,21.74982666015625,0.03514077514410019,0.011977627873420715,0.05802333354949951
1772789961894860800,21.76986083984375,0.007927331142127514,0.058613017201423645,0.05405222997069359
1772789961914896000,21.789895751953125,0.0022301622666418552,0.007092246785759926,0.06375053524971008
1772789961934930700,21.8099306640625,-0.005742941051721573,-0.010522114112973213,0.052766721695661545
1772789961954965800,21.8299658203125,-0.00458693178370595,-0.02459193766117096,0.059873443096876144
1772789961974999600,21.84999951171875,-0.007425668183714151,-0.025574030354619026,0.08877121657133102
1772789961995034600,21.87003466796875,-0.004468698054552078,0.026449095457792282,0.06277072429656982
1772789962015069700,21.890069580078126,0.014844954013824463,0.055148374289274216,0.03538714349269867
1772789962035104800,21.910104736328126,0.011524254456162453,0.0013042166829109192,0.0339738167822361
1772789962055139800,21.930139892578126,0.010563606396317482,-0.04878184199333191,0.04075237363576889
1772789962075174000,21.950173828125,0.036109499633312225,-0.04703887179493904,0.03518952801823616
1772789962095209000,21.970208984375,0.044273026287555695,-0.049496814608573914,0.03258480876684189
1772789962115244000,21.990244140625,0.06492643803358078,0.001192435622215271,0.03683914616703987
1772789962135278600,22.010278564453124,0.059096042066812515,0.016770094633102417,0.009915608912706375
1772789962155313000,22.03031298828125,0.0614149272441864,0.018236614763736725,0.025838829576969147
1772789962175347700,22.05034765625,0.05885296314954758,0.00495559349656105,0.04086199775338173
1772789962195382800,22.0703828125,0.05066479742527008,-0.023961219936609268,0.05133303254842758
1772789962215417900,22.09041796875,0.0449342243373394,-0.02775420807301998,0.06730823218822479
1772789962235453000,22.110452880859373,0.04860984906554222,-0.02643895149230957,0.07442400604486465
1772789962255486700,22.13048681640625,0.03344780206680298,-0.06254970282316208,0.07356768101453781
1772789962275521800,22.150521728515624,0.025548195466399193,-0.116914302110672,0.06439084559679031
1772789962295556900,22.170556884765624,0.030850280076265335,-0.055303506553173065,0.042579565197229385
1772789962315592000,22.190592041015623,0.05585777759552002,-0.011089238338172436,0.005589677020907402
1772789962335626000,22.2106259765625,0.05845634639263153,-0.019521333277225494,-0.0023991151247173548
1772789962355660800,22.230660888671874,0.053074486553668976,-0.02877671644091606,-0.026296555995941162
1772789962375695600,22.250695556640625,0.0632934421300888,0.006117984652519226,-0.026597661897540092
1772789962395730700,22.270730712890625,0.0650288462638855,-0.01119493879377842,-0.0012303481344133615
1772789962415764700,22.2907646484375,0.046014454215765,-0.011030001565814018,0.0021121613681316376
1772789962435799800,22.3107998046875,0.052665818482637405,0.03335936367511749,-0.027046076953411102
1772789962455835000,22.3308349609375,0.046162065118551254,0.02022344246506691,-0.025614891201257706
1772789962475870000,22.350869873046875,0.012117958627641201,0.03561874479055405,-0.006244557444006205
1772789962495903700,22.37090380859375,0.009524302557110786,0.08773323893547058,0.009767974726855755
1772789962515938800,22.390938720703126,0.013219445943832397,0.11511660367250443,0.021062953397631645
1772789962535974000,22.410973876953125,-0.010945282876491547,0.039696574211120605,0.038884036242961884
1772789962556008700,22.4310087890625,-0.052141666412353516,-0.052969783544540405,0.0589463971555233
1772789962576043800,22.451043701171876,-0.050972722470760345,-0.027488166466355324,0.044015005230903625
1772789962596077600,22.47107763671875,-0.02962270937860012,0.0962311252951622,0.028835834935307503
1772789962616112600,22.491112548828124,-0.0466189943253994,0.07492028921842575,0.029871508479118347
1772789962636147700,22.511147705078123,-0.07531668245792389,-0.028667621314525604,0.050671860575675964
1772789962656182800,22.531182861328126,-0.06152242422103882,-0.025672268122434616,0.04390459880232811
1772789962676216800,22.551216796875,-0.0448894202709198,0.01626945286989212,0.00021446729078888893
1772789962696252000,22.571251953125,-0.0567135214805603,0.020974908024072647,-0.03273984044790268
1772789962716287000,22.591286865234373,-0.05766480788588524,-0.0407286137342453,-0.03075975738465786
1772789962736321800,22.61132177734375,-0.04509172588586807,0.017465218901634216,-0.010853508487343788
1772789962756355800,22.63135595703125,-0.026243358850479126,0.034393563866615295,-0.025605101138353348
1772789962776391000,22.651390869140624,-0.033984169363975525,-0.028239428997039795,-0.03947611153125763
1772789962796425700,22.67142578125,-0.03830528259277344,-0.02900753915309906,-0.05142504721879959
1772789962816460800,22.691460693359375,-0.029577434062957764,0.003580654039978981,-0.07644346356391907
1772789962836496000,22.711495849609374,-0.039475154131650925,0.04209186136722565,-0.09729110449552536
1772789962856529700,22.73152978515625,-0.03722917288541794,0.0504428930580616,-0.10171663016080856
1772789962876564700,22.751564697265625,-0.04135645925998688,0.034481897950172424,-0.06760004162788391
1772789962896599800,22.771599853515625,-0.035723086446523666,0.008867300115525723,-0.031429488211870193
1772789962916635000,22.791634765625,-0.03891556337475777,0.046680890023708344,-0.01637633517384529
1772789962936669000,22.8116689453125,-0.023214731365442276,0.09290893375873566,-0.01870735175907612
1772789962956704000,22.8317041015625,-0.01109382975846529,0.057397570461034775,-0.019467994570732117
1772789962976738800,22.85173876953125,-0.012288437224924564,-0.030776534229516983,-0.012509269639849663
1772789962996773600,22.871773681640626,-0.007622657343745232,-0.03759104758501053,-0.0071823205798864365
1772789963016807700,22.8918076171875,0.008249249309301376,0.027786627411842346,0.003924126271158457
1772789963036842800,22.9118427734375,0.028653979301452637,0.03509264439344406,0.02306816168129444
1772789963056877800,22.9318779296875,0.030408591032028198,-0.02773888409137726,0.011929926462471485
1772789963076912400,22.951912353515624,0.018195481970906258,-0.0815928503870964,-0.023915868252515793
1772789963096946200,22.9719462890625,0.020910117775201797,-0.008842199109494686,-0.0266044232994318
1772789963116981200,22.991981201171875,0.040011245757341385,0.055414870381355286,-0.02123989164829254
1772789963137016300,23.012016357421874,0.02619268000125885,0.014136390760540962,0.003849203232675791
1772789963157051400,23.032051513671874,-0.003205882152542472,-0.06059172376990318,0.012263908982276917
1772789963177086500,23.05208642578125,0.009352520108222961,-0.02965804561972618,-0.010181478224694729
1772789963197120300,23.072120361328125,0.01913483999669552,0.08107076585292816,-0.051686301827430725
1772789963217155300,23.0921552734375,0.023262016475200653,0.08913616091012955,-0.05301904305815697
1772789963237190100,23.112190185546876,0.011871944181621075,0.028232336044311523,-0.02319030463695526
1772789963257225200,23.13222509765625,0.005893270950764418,0.025645878165960312,-0.03211839497089386
1772789963277259300,23.15225927734375,-0.004195242654532194,0.04889465868473053,-0.04496370255947113
1772789963297294300,23.17229443359375,-0.0006817260291427374,0.11048952490091324,-0.027037452906370163
1772789963317329400,23.192329345703126,-0.003528134897351265,0.08195418864488602,-0.013729577884078026
1772789963337364200,23.2123642578125,-0.015132701955735683,-0.0013938192278146744,-0.024381622672080994
1772789963357398300,23.232398193359376,-0.01661769300699234,-0.04171651974320412,-0.039667870849370956
1772789963377433300,23.252433349609376,-0.02588195726275444,-0.07982724159955978,-0.028957784175872803
1772789963397468400,23.272468505859376,0.0011850646696984768,-0.059800948947668076,0.008234897628426552
1772789963417503200,23.292503173828123,0.04283471778035164,0.03725563362240791,-0.04481790214776993
1772789963437537300,23.312537353515626,0.043558310717344284,0.04454357922077179,-0.09634023904800415
1772789963457572000,23.332572021484374,0.016856761649250984,-0.05757957696914673,-0.04586859419941902
1772789963477607200,23.352607177734374,0.003593520727008581,-0.1231752559542656,-0.030630141496658325
1772789963497642200,23.372642333984373,0.012036165222525597,-0.07070048898458481,-0.049128271639347076
1772789963517677300,23.39267724609375,0.020345181226730347,0.010268786922097206,-0.040991783142089844
1772789963537711400,23.41271142578125,-0.004882411099970341,-0.008933136239647865,0.003388733137398958
1772789963557746400,23.432746337890624,-0.019267866387963295,-0.062011539936065674,0.02602357789874077
1772789963577781200,23.45278125,-0.017284011468291283,-0.03770063444972038,-0.010543550364673138
1772789963597816300,23.47281640625,-0.0027901590801775455,0.023834846913814545,-0.017686009407043457
1772789963617850400,23.492850341796874,-0.008792142383754253,0.035587385296821594,-0.00885225459933281
1772789963637885400,23.512885498046874,-0.019830118864774704,0.0028639910742640495,0.006522370036691427
1772789963657920300,23.532920166015625,-0.005280612036585808,0.007562184706330299,-0.016375873237848282
1772789963677955300,23.552955322265625,-0.00017746677622199059,-0.013698467053472996,-0.02017938904464245
1772789963697989000,23.572989013671876,-0.0009377407841384411,-0.027833696454763412,-0.02187107317149639
1772789963718024200,23.593024169921875,0.0010839342139661312,-0.005142952315509319,-0.02042664960026741
1772789963738059300,23.613059326171875,0.006018111482262611,-0.0033763209357857704,0.005451937671750784
1772789963758094300,23.63309423828125,-0.015108421444892883,-0.036152876913547516,0.012229904532432556
1772789963778128400,23.65312841796875,-0.03449995070695877,-0.053193867206573486,-0.009682614356279373
1772789963798163500,23.67316357421875,-0.023762503638863564,-0.049740590155124664,-0.015582658350467682
1772789963818198300,23.6931982421875,-0.013786552473902702,0.027555521577596664,-0.021915705874562263
1772789963838233300,23.7132333984375,-0.019039656966924667,0.023756161332130432,-0.03508817404508591
1772789963858268200,23.73326806640625,-0.03069743514060974,-0.00435263104736805,-0.022720418870449066
1772789963878302200,23.75330224609375,-0.023737981915473938,-0.03444622457027435,-0.01897532120347023
1772789963898337300,23.773337158203127,-0.013576632365584373,0.008416851051151752,-0.026742206886410713
1772789963918372400,23.793372314453126,-0.001432095654308796,0.06140465289354324,-0.018080245703458786
1772789963938407200,23.8134072265625,-0.0030591522809118032,-0.02940642461180687,-0.0068761990405619144
1772789963958441200,23.833441162109374,-0.013953064568340778,-0.05477261543273926,-0.004118003416806459
1772789963978476300,23.853476318359377,0.00635798554867506,-0.05057479813694954,-0.026432525366544724
1772789963998511400,23.873511474609376,0.0191961657255888,-0.0002476135268807411,-0.03218032792210579
