time,seconds_elapsed,z,y,x
1772789631471470000,0.215469970703125,10.034659385681152,0.4204064905643463,0.877344012260437
1772789631491569400,0.2355693359375,9.987348556518555,0.4204064905643463,0.9587903022766113
1772789631511668700,0.255668701171875,9.978365898132324,0.41082456707954407,0.9396264553070068
1772789631531768000,0.27576806640625,10.011303901672363,0.42998838424682617,0.9060897827148438
1772789631551867400,0.295867431640625,10.001721382141113,0.42998838424682617,0.9156716465950012
1772789631571966700,0.315966796875,10.020885467529297,0.4347793459892273,0.9060897827148438
1772789631592066000,0.336066162109375,10.011303901672363,0.41082456707954407,0.9204626083374023
1772789631612165400,0.356165283203125,10.016094207763672,0.42519745230674744,0.9108807444572449
1772789631632264700,0.3762646484375,10.006512641906738,0.42998838424682617,0.9156716465950012
1772789631652364000,0.396364013671875,10.016094207763672,0.4347793459892273,0.9108807444572449
1772789631672462600,0.416462646484375,10.006512641906738,0.4539431929588318,0.9204626083374023
1772789631692560000,0.436559814453125,10.011303901672363,0.4437623918056488,0.9072874784469604
1772789631712657200,0.4566572265625,10.002320289611816,0.43418049812316895,0.9312422871589661
1772789631732754400,0.47675439453125,9.997529983520508,0.4389714300632477,0.9312422871589661
1772789631752851700,0.496851806640625,9.997529983520508,0.4293895363807678,0.9120784401893616
1772789631772949000,0.516948974609375,10.007111549377441,0.4335816204547882,0.9072874784469604
1772789631793046300,0.53704638671875,10.011902809143066,0.42399969696998596,0.9126773476600647
1772789631813143600,0.5571435546875,10.016693115234375,0.4287906587123871,0.9078863859176636
1772789631833240800,0.57724072265625,10.020885467529297,0.4144177734851837,0.9078863859176636
1772789631853338000,0.597338134765625,10.016693115234375,0.42399969696998596,0.9174683094024658
1772789631873435400,0.617435302734375,10.016693115234375,0.4335816204547882,0.9078863859176636
1772789631893532700,0.63753271484375,9.996931076049805,0.4245985746383667,0.8971067070960999
1772789631913630000,0.6576298828125,10.016094207763672,0.41022568941116333,0.9066886305809021
1772789631933727200,0.677727294921875,10.006512641906738,0.43418049812316895,0.9162705540657043
1772789631953824500,0.697824462890625,9.987947463989258,0.4198076128959656,0.9162705540657043
1772789631973921800,0.717921875,10.001721382141113,0.41501665115356445,0.9066886305809021
1772789631994019000,0.73801904296875,10.011303901672363,0.4245985746383667,0.9210615158081055
1772789632014116400,0.758116455078125,10.020885467529297,0.43418049812316895,0.9210615158081055
1772789632034213600,0.778213623046875,10.001721382141113,0.4389714300632477,0.9114795923233032
1772789632074408400,0.818408447265625,10.020885467529297,0.4198076128959656,0.9066886305809021
1772789632094505700,0.838505615234375,10.011303901672363,0.4156155288219452,0.9012988209724426
1772789632114603000,0.85860302734375,10.001721382141113,0.42519745230674744,0.8965078592300415
1772789632134700300,0.8787001953125,10.006512641906738,0.40603360533714294,0.8965078592300415
1772789632154797600,0.898797607421875,10.016094207763672,0.4156155288219452,0.8965078592300415
1772789632174895900,0.918895751953125,10.001721382141113,0.4156155288219452,0.9060897827148438
1772789632194995700,0.93899560546875,10.006512641906738,0.4204064905643463,0.9006999135017395
1772789632215095600,0.959095458984375,10.011303901672363,0.42519745230674744,0.9054908752441406
1772789632235195400,0.9791953125,10.020286560058594,0.42519745230674744,0.9102818369865417
1772789632275395300,1.019395263671875,9.987348556518555,0.4156155288219452,0.9150727987289429
1772789632295495200,1.0394951171875,10.016094207763672,0.4293895363807678,0.9210615158081055
1772789632315595000,1.059594970703125,9.992738723754883,0.4198076128959656,0.9066886305809021
1772789632335694800,1.07969482421875,10.011303901672363,0.4054347574710846,0.8923157453536987
1772789632355794700,1.099794677734375,10.016094207763672,0.4054347574710846,0.8971067070960999
1772789632375894500,1.11989453125,10.011303901672363,0.41022568941116333,0.9066886305809021
1772789632395994400,1.139994384765625,10.001721382141113,0.4245985746383667,0.9066886305809021
1772789632416094200,1.16009423828125,10.006512641906738,0.4293895363807678,0.9066886305809021
1772789632436194000,1.180194091796875,10.001721382141113,0.43418049812316895,0.9114795923233032
1772789632456294100,1.200294189453125,10.001721382141113,0.43418049812316895,0.8977055549621582
1772789632476394000,1.22039404296875,9.987947463989258,0.43418049812316895,0.9258524775505066
1772789632496493800,1.240493896484375,10.006512641906738,0.4198076128959656,0.9258524775505066
1772789632516593700,1.26059375,10.006512641906738,0.4198076128959656,0.8971067070960999
1772789632536693500,1.280693603515625,9.996931076049805,0.4198076128959656,0.8971067070960999
1772789632556793300,1.30079345703125,10.001721382141113,0.4054347574710846,0.9114795923233032
1772789632576893200,1.32089306640625,9.996931076049805,0.4198076128959656,0.901897668838501
1772789632596993000,1.340992919921875,10.016094207763672,0.4245985746383667,0.9114795923233032
1772789632617093000,1.361093017578125,10.001721382141113,0.4293895363807678,0.9210615158081055
1772789632637193000,1.38119287109375,9.996931076049805,0.4293895363807678,0.9114795923233032
1772789632657292800,1.401292724609375,10.006512641906738,0.41501665115356445,0.9066886305809021
1772789632677392600,1.421392578125,9.99213981628418,0.4293895363807678,0.9114795923233032
1772789632697492700,1.44149267578125,9.996931076049805,0.43418049812316895,0.9258524775505066
1772789632717592800,1.4615927734375,10.020885467529297,0.3820788264274597,0.9162705540657043
1772789632737693000,1.48169287109375,10.001721382141113,0.38686978816986084,0.9066886305809021
1772789632757792800,1.501792724609375,10.016094207763672,0.4156155288219452,0.9114795923233032
1772789632777892900,1.521892822265625,10.006512641906738,0.4204064905643463,0.9114795923233032
1772789632797993000,1.541992919921875,9.98315715789795,0.40603360533714294,0.9114795923233032
1772789632818092800,1.5620927734375,9.98315715789795,0.4293895363807678,0.9156716465950012
1772789632838193000,1.58219287109375,10.006512641906738,0.4389714300632477,0.9204626083374023
1772789632858293000,1.60229296875,10.016094207763672,0.4389714300632477,0.9012988209724426
1772789632878393000,1.62239306640625,10.001721382141113,0.4437623918056488,0.901897668838501
1772789632898493200,1.6424931640625,10.011303901672363,0.4198076128959656,0.9258524775505066
1772789632918593000,1.662593017578125,9.987947463989258,0.41501665115356445,0.9162705540657043
1772789632938693000,1.682693115234375,9.992738723754883,0.41022568941116333,0.9210615158081055
1772789632958793200,1.702793212890625,10.011303901672363,0.4054347574710846,0.9072874784469604
1772789632978893000,1.72289306640625,10.001721382141113,0.3910618722438812,0.9072874784469604
1772789632998993200,1.7429931640625,9.987947463989258,0.41501665115356445,0.9168694019317627
1772789633019093200,1.76309326171875,10.002320289611816,0.4198076128959656,0.9168694019317627
1772789633039193300,1.783193359375,10.011303901672363,0.4293895363807678,0.9264513254165649
1772789633059293200,1.803293212890625,10.006512641906738,0.4389714300632477,0.9360332489013672
1772789633079393300,1.823393310546875,9.978365898132324,0.4293895363807678,0.9066886305809021
1772789633099493400,1.843493408203125,10.006512641906738,0.4293895363807678,0.8971067070960999
1772789633119593500,1.863593505859375,10.001721382141113,0.38686978816986084,0.8923157453536987
1772789633139693600,1.883693603515625,9.99213981628418,0.38686978816986084,0.8971067070960999
1772789633159793400,1.90379345703125,10.016094207763672,0.4012426435947418,0.9066886305809021
1772789633179893500,1.9238935546875,10.001721382141113,0.3964517116546631,0.9066886305809021
1772789633199993900,1.943993896484375,10.011303901672363,0.4012426435947418,0.9162705540657043
1772789633220094000,1.964093994140625,10.006512641906738,0.4204064905643463,0.9252535700798035
1772789633240194000,1.984194091796875,9.99213981628418,0.42519745230674744,0.9348354935646057
1772789633260294400,2.00429443359375,10.006512641906738,0.4156155288219452,0.9300445318222046
1772789633280394500,2.02439453125,9.99213981628418,0.41501665115356445,0.9210615158081055
1772789633300494600,2.04449462890625,10.001721382141113,0.4198076128959656,0.9066886305809021
1772789633320594700,2.0645947265625,10.001721382141113,0.41501665115356445,0.9066886305809021
1772789633340695000,2.084695068359375,10.016094207763672,0.41022568941116333,0.9114795923233032
1772789633360795100,2.104795166015625,10.020885467529297,0.41022568941116333,0.9162705540657043
1772789633380895200,2.124895263671875,9.987947463989258,0.4198076128959656,0.9162705540657043
1772789633400995600,2.14499560546875,9.996931076049805,0.41501665115356445,0.9354343414306641
1772789633421095700,2.165095703125,10.016094207763672,0.4437623918056488,0.9306434392929077
1772789633441195800,2.18519580078125,10.006512641906738,0.43418049812316895,0.9114795923233032
1772789633461295900,2.2052958984375,10.001721382141113,0.43418049812316895,0.9162705540657043
1772789633481396200,2.225396240234375,9.99213981628418,0.4293895363807678,0.9114795923233032
1772789633501496300,2.245496337890625,10.011303901672363,0.4245985746383667,0.9354343414306641
1772789633521596400,2.265596435546875,10.001721382141113,0.41501665115356445,0.9162705540657043
1772789633541696800,2.28569677734375,9.987947463989258,0.40064379572868347,0.9066886305809021
1772789633561796900,2.305796875,10.006512641906738,0.41501665115356445,0.9114795923233032
1772789633581897000,2.32589697265625,10.011303901672363,0.4245985746383667,0.9162705540657043
1772789633601997300,2.345997314453125,10.020885467529297,0.4054347574710846,0.901897668838501
1772789633622097400,2.366097412109375,10.006512641906738,0.41501665115356445,0.901897668838501
1772789633642197500,2.386197509765625,10.011303901672363,0.41501665115356445,0.9066886305809021
1772789633662297600,2.406297607421875,10.020885467529297,0.4245985746383667,0.9162705540657043
1772789633682398000,2.42639794921875,9.99213981628418,0.4204064905643463,0.9150727987289429
1772789633702498000,2.446498046875,9.972975730895996,0.42519745230674744,0.9150727987289429
1772789633722598400,2.466598388671875,9.99213981628418,0.4347793459892273,0.9150727987289429
1772789633742698500,2.486698486328125,9.987348556518555,0.4204064905643463,0.919863760471344
1772789633762798800,2.506798828125,9.996931076049805,0.42519745230674744,0.9102818369865417
1772789633782899000,2.52689892578125,10.005913734436035,0.4257963001728058,0.9006999135017395
1772789633802999300,2.546999267578125,10.005913734436035,0.42100536823272705,0.9192649126052856
1772789633823099400,2.567099365234375,10.01070499420166,0.4066324830055237,0.9192649126052856
1772789633843199500,2.587199462890625,9.996332168579102,0.43537822365760803,0.9192649126052856
1772789633863299800,2.6072998046875,9.99213981628418,0.42100536823272705,0.9096829891204834
1772789633883400000,2.62739990234375,9.996931076049805,0.41501665115356445,0.9258524775505066
1772789633903500300,2.647500244140625,9.996931076049805,0.43418049812316895,0.9258524775505066
1772789633923600400,2.667600341796875,9.996931076049805,0.4293895363807678,0.9258524775505066
1772789633943700700,2.68770068359375,9.996931076049805,0.4245985746383667,0.9210615158081055
1772789633963800800,2.70780078125,9.987947463989258,0.41501665115356445,0.9162705540657043
1772789633983901000,2.72790087890625,9.997529983520508,0.4293895363807678,0.9162705540657043
1772789634004001300,2.748001220703125,10.001721382141113,0.4389714300632477,0.9216603636741638
1772789634024101600,2.7681015625,9.987947463989258,0.4389714300632477,0.9216603636741638
1772789634044201700,2.78820166015625,10.002320289611816,0.4389714300632477,0.9264513254165649
1772789634064301800,2.8083017578125,10.002320289611816,0.39585283398628235,0.9168694019317627
1772789634084402200,2.828402099609375,10.001721382141113,0.4156155288219452,0.9102818369865417
1772789634104502300,2.848502197265625,10.025077819824219,0.42519745230674744,0.9054908752441406
1772789634124602600,2.8686025390625,10.006512641906738,0.41082456707954407,0.8959089517593384
1772789634164803000,2.908802978515625,9.99213981628418,0.42998838424682617,0.9054908752441406
1772789634184902400,2.92890234375,9.99213981628418,0.42998838424682617,0.9150727987289429
1772789634205002000,2.949001953125,9.99213981628418,0.4257963001728058,0.9192649126052856
1772789634225101300,2.969101318359375,10.020286560058594,0.4066324830055237,0.9096829891204834
1772789634245201000,2.989200927734375,10.034659385681152,0.4257963001728058,0.9048920273780823
1772789634265300200,3.00930029296875,9.996332168579102,0.4162144064903259,0.9001010656356812
1772789634285399800,3.02939990234375,10.001721382141113,0.40603360533714294,0.9102818369865417
1772789634305499100,3.0494990234375,10.006512641906738,0.41082456707954407,0.9054908752441406
1772789634325598700,3.0695986328125,10.001721382141113,0.42998838424682617,0.9150727987289429
1772789634345698000,3.089697998046875,10.020286560058594,0.44436126947402954,0.9054908752441406
1772789634365797600,3.109797607421875,10.001721382141113,0.4347793459892273,0.919863760471344
1772789634385897000,3.12989697265625,9.996931076049805,0.4204064905643463,0.9246547222137451
1772789634405996500,3.14999658203125,10.006512641906738,0.42998838424682617,0.9246547222137451
1772789634426095900,3.170095947265625,9.996931076049805,0.4204064905643463,0.9246547222137451
1772789634446195500,3.190195556640625,9.99213981628418,0.4156155288219452,0.9054908752441406
1772789634466294800,3.210294677734375,10.006512641906738,0.41082456707954407,0.9102818369865417
1772789634486394400,3.230394287109375,9.996931076049805,0.4156155288219452,0.9054908752441406
1772789634506493700,3.25049365234375,9.99213981628418,0.42998838424682617,0.9054908752441406
1772789634526593300,3.27059326171875,10.015496253967285,0.42998838424682617,0.9102818369865417
1772789634546692600,3.290692626953125,9.996931076049805,0.4162144064903259,0.9150727987289429
1772789634566792200,3.310792236328125,9.996931076049805,0.39705055952072144,0.9054908752441406
1772789634586891500,3.3308916015625,10.020286560058594,0.4395703077316284,0.919863760471344
1772789634606991000,3.3509912109375,10.01070499420166,0.4114234447479248,0.919863760471344
1772789634627090400,3.37109033203125,10.001721382141113,0.40184152126312256,0.9144739508628845
1772789634647190000,3.39118994140625,9.996931076049805,0.4162144064903259,0.9096829891204834
1772789634667289600,3.41128955078125,10.005913734436035,0.4162144064903259,0.9288467764854431
1772789634687389400,3.431389404296875,10.001721382141113,0.41082456707954407,0.9150727987289429
1772789634727589000,3.471589111328125,9.977766990661621,0.40603360533714294,0.9150727987289429
1772789634747689000,3.49168896484375,9.99213981628418,0.4204064905643463,0.9150727987289429
1772789634767789000,3.5117890625,10.011303901672363,0.4204064905643463,0.919863760471344
1772789634787889000,3.531888916015625,9.99213981628418,0.42519745230674744,0.9150727987289429
1772789634807988700,3.55198876953125,9.982558250427246,0.4156155288219452,0.9150727987289429
1772789634828088600,3.572088623046875,10.001721382141113,0.4204064905643463,0.9108807444572449
1772789634848188700,3.592188720703125,10.001721382141113,0.41082456707954407,0.9108807444572449
1772789634868288500,3.61228857421875,9.99213981628418,0.40603360533714294,0.9060897827148438
1772789634888388400,3.632388427734375,9.99213981628418,0.4162144064903259,0.9054908752441406
1772789634928588000,3.672588134765625,9.987348556518555,0.4114234447479248,0.9054908752441406
1772789634948688100,3.692688232421875,10.001721382141113,0.4114234447479248,0.9144739508628845
1772789634968788000,3.7127880859375,10.00112247467041,0.42100536823272705,0.9192649126052856
1772789634988887800,3.7328876953125,9.996931076049805,0.4066324830055237,0.9048920273780823
1772789635008987600,3.752987548828125,9.996931076049805,0.4114234447479248,0.9192649126052856
1772789635029087500,3.77308740234375,9.99213981628418,0.42100536823272705,0.9144739508628845
1772789635049187600,3.7931875,9.99213981628418,0.4066324830055237,0.9192649126052856
1772789635069287400,3.813287353515625,9.996931076049805,0.4066324830055237,0.9144739508628845
1772789635089387300,3.83338720703125,9.99213981628418,0.4305872619152069,0.9240558743476868
1772789635109487000,3.853487060546875,10.005913734436035,0.4257963001728058,0.9240558743476868
1772789635129587200,3.873587158203125,9.987348556518555,0.39705055952072144,0.9144739508628845
1772789635149687000,3.89368701171875,9.996332168579102,0.42100536823272705,0.9096829891204834
1772789635169787000,3.913786865234375,10.005913734436035,0.4257963001728058,0.9048920273780823
1772789635209987300,3.9539873046875,10.00112247467041,0.4162144064903259,0.9240558743476868
1772789635230087400,3.97408740234375,9.991540908813477,0.42100536823272705,0.9240558743476868
1772789635250187800,3.994187744140625,9.982558250427246,0.42100536823272705,0.9144739508628845
1772789635270288000,4.014287841796875,10.00112247467041,0.4066324830055237,0.9096829891204834
1772789635290388000,4.034387939453125,9.991540908813477,0.40184152126312256,0.9048920273780823
1772789635310488300,4.05448828125,9.987348556518555,0.4257963001728058,0.9144739508628845
1772789635330588400,4.07458837890625,9.996332168579102,0.43537822365760803,0.9186660051345825
1772789635350688800,4.094688720703125,10.005913734436035,0.4162144064903259,0.9138750433921814
1772789635370788900,4.114788818359375,10.005913734436035,0.4114234447479248,0.9138750433921814
1772789635390889200,4.13488916015625,9.991540908813477,0.42100536823272705,0.9138750433921814
1772789635431089400,4.17508935546875,10.00112247467041,0.4162144064903259,0.8995022177696228
1772789635451189800,4.195189697265625,9.991540908813477,0.42100536823272705,0.9234569668769836
1772789635471289900,4.215289794921875,10.00112247467041,0.4257963001728058,0.9282479286193848
1772789635491390200,4.23539013671875,9.99213981628418,0.4162144064903259,0.9144739508628845
1772789635511490300,4.255490234375,10.01070499420166,0.42100536823272705,0.9144739508628845
1772789635531590400,4.27559033203125,9.987348556518555,0.42100536823272705,0.9096829891204834
1772789635551689700,4.295689697265625,9.99213981628418,0.4114234447479248,0.9144739508628845
1772789635571788800,4.315788818359375,10.001721382141113,0.3964517116546631,0.9150727987289429
1772789635591887600,4.3358876953125,10.016094207763672,0.41082456707954407,0.9156716465950012
1772789635611986700,4.355986572265625,10.006512641906738,0.41501665115356445,0.9210615158081055
1772789635632085800,4.376085693359375,10.002320289611816,0.4293895363807678,0.9072874784469604
1772789635652184600,4.3961845703125,10.007111549377441,0.4144177734851837,0.9078863859176636
1772789635672284700,4.41628466796875,9.997529983520508,0.4287906587123871,0.9036942720413208
1772789635692386300,4.43638623046875,10.002320289611816,0.4234008193016052,0.9042931795120239
1772789635712488200,4.45648828125,10.00291919708252,0.40902796387672424,0.9282479286193848
1772789635732590000,4.476590087890625,9.998128890991211,0.43298274278640747,0.9192649126052856
1772789635752691700,4.496691650390625,10.001721382141113,0.42998838424682617,0.9054908752441406
1772789635772793600,4.516793701171875,10.015496253967285,0.4156155288219452,0.9150727987289429
1772789635792895500,4.5368955078125,10.020286560058594,0.42998838424682617,0.9054908752441406
1772789635812997400,4.556997314453125,10.020286560058594,0.42519745230674744,0.9150727987289429
1772789635833099000,4.57709912109375,9.996931076049805,0.4156155288219452,0.919863760471344
1772789635853201000,4.597200927734375,10.006512641906738,0.40603360533714294,0.9150727987289429
1772789635893404400,4.637404296875,9.996931076049805,0.41082456707954407,0.9294456839561462
1772789635913506300,4.65750634765625,10.016094207763672,0.41082456707954407,0.9534004330635071
1772789635933608200,4.677608154296875,9.977766990661621,0.42998838424682617,0.9300445318222046
1772789635953710000,4.6977099609375,10.00112247467041,0.4257963001728058,0.9240558743476868
1772789635973811700,4.717811767578125,10.005913734436035,0.44016918540000916,0.9384286999702454
1772789636014015500,4.758015380859375,10.005913734436035,0.44016918540000916,0.9234569668769836
1772789636034117000,4.7781171875,9.996332168579102,0.42100536823272705,0.9186660051345825
1772789636054219000,4.798218994140625,10.005913734436035,0.4162144064903259,0.8995022177696228
1772789636074321000,4.81832080078125,10.01070499420166,0.4257963001728058,0.9090840816497803
1772789636094422500,4.838422607421875,9.991540908813477,0.4066324830055237,0.9234569668769836
1772789636114524400,4.8585244140625,9.991540908813477,0.3976494371891022,0.9138750433921814
1772789636134626300,4.878626220703125,10.024478912353516,0.4162144064903259,0.9186660051345825
1772789636154728000,4.89872802734375,9.996332168579102,0.4257963001728058,0.9288467764854431
1772789636174828500,4.91882861328125,9.996332168579102,0.4066324830055237,0.9336377382278442
1772789636194927400,4.93892724609375,10.005913734436035,0.4114234447479248,0.9336377382278442
1772789636215026000,4.95902587890625,10.015496253967285,0.4305872619152069,0.9432196617126465
1772789636235124500,4.97912451171875,10.005913734436035,0.4162144064903259,0.9096829891204834
1772789636255223300,4.999223388671875,10.00112247467041,0.4114234447479248,0.9288467764854431
1772789636275321900,5.01932177734375,9.987348556518555,0.4162144064903259,0.9288467764854431
1772789636295420700,5.039420654296875,9.996332168579102,0.4162144064903259,0.9240558743476868
1772789636315519200,5.059519287109375,10.01070499420166,0.44016918540000916,0.9384286999702454
1772789636335618000,5.0796181640625,10.005913734436035,0.43537822365760803,0.9336377382278442
1772789636355716600,5.099716552734375,9.987348556518555,0.4305872619152069,0.9234569668769836
1772789636375815400,5.1198154296875,9.996332168579102,0.42100536823272705,0.9330388903617859
1772789636395914000,5.1399140625,10.005913734436035,0.4162144064903259,0.9282479286193848
1772789636416012500,5.160012451171875,10.01070499420166,0.4305872619152069,0.9186660051345825
1772789636436111400,5.180111328125,10.005913734436035,0.4162144064903259,0.9138750433921814
1772789636456210000,5.2002099609375,10.015496253967285,0.42100536823272705,0.9186660051345825
1772789636476308700,5.220308837890625,10.02927017211914,0.4162144064903259,0.9330388903617859
1772789636496407300,5.2404072265625,9.996332168579102,0.4449601471424103,0.9234569668769836
1772789636516506000,5.260506103515625,9.991540908813477,0.44016918540000916,0.9186660051345825
1772789636536604700,5.280604736328125,9.991540908813477,0.4066324830055237,0.9330388903617859
1772789636556703200,5.300703125,9.977766990661621,0.4162144064903259,0.9186660051345825
1772789636576802000,5.320802001953125,10.005913734436035,0.42100536823272705,0.9282479286193848
1772789636596900600,5.340900634765625,10.00112247467041,0.4162144064903259,0.9138750433921814
1772789636616999400,5.36099951171875,10.01070499420166,0.4066324830055237,0.9234569668769836
1772789636637098000,5.381097900390625,9.991540908813477,0.42100536823272705,0.9186660051345825
1772789636657196800,5.40119677734375,10.00112247467041,0.4257963001728058,0.9186660051345825
1772789636677295000,5.421295166015625,10.029869079589844,0.44016918540000916,0.9282479286193848
1772789636697393200,5.44139306640625,10.020286560058594,0.43537822365760803,0.9282479286193848
1772789636717491200,5.4614912109375,9.991540908813477,0.42100536823272705,0.9426208138465881
1772789636737589200,5.48158935546875,9.991540908813477,0.44016918540000916,0.9234569668769836
1772789636757687300,5.501687255859375,10.01070499420166,0.4257963001728058,0.9048920273780823
1772789636777785600,5.52178564453125,10.005913734436035,0.39705055952072144,0.9288467764854431
1772789636797883600,5.541883544921875,9.99213981628418,0.4066324830055237,0.9150727987289429
1772789636817981700,5.561981689453125,10.005913734436035,0.4156155288219452,0.919863760471344
1772789636838079700,5.582079833984375,10.020286560058594,0.4156155288219452,0.9342366456985474
1772789636858177800,5.602177734375,9.996931076049805,0.4395703077316284,0.9294456839561462
1772789636898374000,5.642373779296875,10.006512641906738,0.4347793459892273,0.9294456839561462
1772789636918472200,5.66247216796875,10.011303901672363,0.4347793459892273,0.9294456839561462
1772789636938570200,5.6825703125,10.001721382141113,0.42998838424682617,0.9150727987289429
1772789636958668300,5.702668212890625,10.020286560058594,0.42998838424682617,0.9294456839561462
1772789636978766300,5.722766357421875,10.011303901672363,0.4156155288219452,0.9204626083374023
1772789636998864400,5.742864501953125,10.001721382141113,0.42519745230674744,0.9252535700798035
1772789637018962400,5.76296240234375,10.029869079589844,0.41082456707954407,0.9108807444572449
1772789637039060700,5.783060791015625,10.016094207763672,0.40603360533714294,0.9252535700798035
1772789637079256800,5.8232568359375,10.006512641906738,0.4204064905643463,0.9252535700798035
1772789637099355000,5.84335498046875,10.020885467529297,0.40603360533714294,0.9252535700798035
1772789637119453000,5.863452880859375,10.011303901672363,0.42998838424682617,0.9156716465950012
1772789637139551200,5.88355126953125,9.99213981628418,0.4293895363807678,0.9396264553070068
1772789637159649300,5.903649169921875,10.020286560058594,0.4347793459892273,0.9294456839561462
1772789637179747600,5.92374755859375,10.020286560058594,0.4257963001728058,0.9288467764854431
1772789637199846100,5.94384619140625,10.005913734436035,0.4162144064903259,0.9192649126052856
1772789637219944700,5.96394482421875,10.020286560058594,0.4162144064903259,0.9384286999702454
1772789637240043300,5.984043212890625,10.00112247467041,0.4066324830055237,0.9336377382278442
1772789637280240600,6.02424072265625,9.99213981628418,0.43537822365760803,0.9192649126052856
1772789637300339200,6.044339111328125,10.029869079589844,0.4257963001728058,0.9288467764854431
1772789637320437800,6.064437744140625,10.01070499420166,0.4162144064903259,0.9384286999702454
1772789637340536300,6.084536376953125,9.982558250427246,0.4305872619152069,0.9192649126052856
1772789637360635000,6.104634765625,10.015496253967285,0.40603360533714294,0.9150727987289429
1772789637380733400,6.1247333984375,10.006512641906738,0.4204064905643463,0.9294456839561462
1772789637400832000,6.14483203125,10.011303901672363,0.4204064905643463,0.9252535700798035
1772789637420930600,6.1649306640625,10.011303901672363,0.40603360533714294,0.9252535700798035
1772789637441029400,6.185029296875,10.025077819824219,0.4156155288219452,0.9204626083374023
1772789637461128000,6.2051279296875,10.016094207763672,0.41082456707954407,0.9300445318222046
1772789637481226500,6.2252265625,10.016094207763672,0.4204064905643463,0.9300445318222046
1772789637501325000,6.245324951171875,10.025077819824219,0.4156155288219452,0.9060897827148438
1772789637521423600,6.265423583984375,10.020885467529297,0.42998838424682617,0.9300445318222046
1772789637561620700,6.305620849609375,10.005913734436035,0.43537822365760803,0.9240558743476868
1772789637581719300,6.32571923828125,10.015496253967285,0.4257963001728058,0.9192649126052856
1772789637601817900,6.34581787109375,10.00112247467041,0.4257963001728058,0.9234569668769836
1772789637621916400,6.36591650390625,10.015496253967285,0.40184152126312256,0.9282479286193848
1772789637642015200,6.38601513671875,10.01070499420166,0.4114234447479248,0.9330388903617859
1772789637662113800,6.40611376953125,10.025077819824219,0.4066324830055237,0.9234569668769836
1772789637682213600,6.426213623046875,10.005913734436035,0.4114234447479248,0.9138750433921814
1772789637702314000,6.44631396484375,10.015496253967285,0.4072313606739044,0.8995022177696228
1772789637722414300,6.466414306640625,10.015496253967285,0.4216042160987854,0.9282479286193848
1772789637762615000,6.506614990234375,10.025077819824219,0.40603360533714294,0.9102818369865417
1772789637782715600,6.526715576171875,10.006512641906738,0.40603360533714294,0.9102818369865417
1772789637802815700,6.546815673828125,10.006512641906738,0.42519745230674744,0.9246547222137451
1772789637822916000,6.566916015625,10.001721382141113,0.4395703077316284,0.9342366456985474
1772789637863117000,6.607116943359375,10.025077819824219,0.4347793459892273,0.9294456839561462
1772789637883217400,6.627217529296875,10.006512641906738,0.44436126947402954,0.9252535700798035
1772789637903317800,6.64731787109375,10.006512641906738,0.46352508664131165,0.944417417049408
1772789637923417900,6.66741796875,10.025077819824219,0.44436126947402954,0.9492083787918091
1772789637943518500,6.6875185546875,10.016094207763672,0.4347793459892273,0.9156716465950012
1772789637963618800,6.707618896484375,9.99213981628418,0.42998838424682617,0.9012988209724426
1772789637983719200,6.72771923828125,10.016094207763672,0.4012426435947418,0.9156716465950012
1772789638003819500,6.747819580078125,10.016094207763672,0.39166074991226196,0.9108807444572449
1772789638023919600,6.767919677734375,10.020885467529297,0.4156155288219452,0.9108807444572449
1772789638044020200,6.788020263671875,9.996931076049805,0.4347793459892273,0.9060897827148438
1772789638064120600,6.80812060546875,10.016094207763672,0.42519745230674744,0.9348354935646057
1772789638084221000,6.828220947265625,10.025077819824219,0.4204064905643463,0.9587903022766113
1772789638104321300,6.8483212890625,10.011303901672363,0.42519745230674744,0.9348354935646057
1772789638124421600,6.868421630859375,10.001721382141113,0.42998838424682617,0.9204626083374023
1772789638164622300,6.908622314453125,10.011303901672363,0.39166074991226196,0.9060897827148438
1772789638184722200,6.92872216796875,10.016094207763672,0.4012426435947418,0.9108807444572449
1772789638204822000,6.948822021484375,10.025676727294922,0.3964517116546631,0.9156716465950012
1772789638224921900,6.968921875,10.020885467529297,0.3964517116546631,0.9252535700798035
1772789638245021700,6.989021728515625,10.001721382141113,0.42998838424682617,0.9396264553070068
1772789638265121500,7.00912158203125,10.016094207763672,0.4204064905643463,0.9300445318222046
1772789638285221400,7.029221435546875,9.996931076049805,0.4204064905643463,0.9060897827148438
1772789638305321200,7.0493212890625,10.006512641906738,0.42519745230674744,0.9114795923233032
1772789638325421000,7.069421142578125,10.020885467529297,0.4293895363807678,0.9348354935646057
1772789638345521000,7.08952099609375,10.020885467529297,0.4347793459892273,0.9300445318222046
1772789638365620700,7.109620849609375,10.011303901672363,0.45334431529045105,0.9348354935646057
1772789638385720600,7.129720458984375,10.016094207763672,0.42998838424682617,0.9492083787918091
1772789638405820700,7.149820556640625,10.016094207763672,0.4389714300632477,0.9348354935646057
1772789638425920500,7.16992041015625,10.011303901672363,0.4293895363807678,0.9348354935646057
1772789638446020400,7.190020263671875,10.020885467529297,0.4437623918056488,0.9258524775505066
1772789638466120200,7.2101201171875,10.011303901672363,0.43418049812316895,0.9210615158081055
1772789638486220000,7.230219970703125,10.001721382141113,0.39166074991226196,0.9306434392929077
1772789638506320000,7.25031982421875,10.001721382141113,0.4012426435947418,0.9258524775505066
1772789638526419700,7.270419677734375,10.011303901672363,0.41082456707954407,0.9114795923233032
1772789638546519600,7.29051953125,10.029869079589844,0.38686978816986084,0.9156716465950012
1772789638566619400,7.310619384765625,10.001721382141113,0.4012426435947418,0.9252535700798035
1772789638586719200,7.33071923828125,9.99213981628418,0.4204064905643463,0.9300445318222046
1772789638606819000,7.350819091796875,10.001721382141113,0.4347793459892273,0.9300445318222046
1772789638626919000,7.3709189453125,10.034659385681152,0.4204064905643463,0.944417417049408
1772789638647018800,7.391018798828125,10.020885467529297,0.44436126947402954,0.9252535700798035
1772789638667118800,7.411118896484375,10.020885467529297,0.42519745230674744,0.9204626083374023
1772789638687219200,7.43121923828125,10.011303901672363,0.40603360533714294,0.9156716465950012
1772789638707319600,7.451319580078125,9.996931076049805,0.4012426435947418,0.9060897827148438
1772789638727420200,7.471420166015625,10.025676727294922,0.41082456707954407,0.9204626083374023
1772789638747520500,7.4915205078125,10.030467987060547,0.41022568941116333,0.9306434392929077
1772789638767621000,7.51162109375,10.016094207763672,0.4245985746383667,0.9354343414306641
1772789638787721500,7.531721435546875,10.016094207763672,0.4198076128959656,0.9306434392929077
1772789638807821800,7.55182177734375,10.006512641906738,0.43418049812316895,0.9354343414306641
1772789638827922400,7.57192236328125,10.006512641906738,0.41022568941116333,0.9354343414306641
1772789638848022800,7.592022705078125,10.006512641906738,0.41501665115356445,0.9354343414306641
1772789638868123100,7.612123046875,10.020885467529297,0.41501665115356445,0.9258524775505066
1772789638888223700,7.6322236328125,10.001721382141113,0.4293895363807678,0.9210615158081055
1772789638908324000,7.652323974609375,10.020885467529297,0.4245985746383667,0.9402253031730652
1772789638928424700,7.6724248046875,10.025676727294922,0.4293895363807678,0.9450162649154663
1772789638948525000,7.692525146484375,9.987947463989258,0.4198076128959656,0.9492083787918091
1772789638968625400,7.71262548828125,10.001721382141113,0.4245985746383667,0.9306434392929077
1772789638988726000,7.73272607421875,10.016094207763672,0.4156155288219452,0.9210615158081055
1772789639008826400,7.752826416015625,10.016094207763672,0.4012426435947418,0.9354343414306641
1772789639049027300,7.79302734375,10.011303901672363,0.40603360533714294,0.9348354935646057
1772789639069127700,7.813127685546875,10.001721382141113,0.41082456707954407,0.9210615158081055
1772789639089228300,7.833228271484375,10.034659385681152,0.4156155288219452,0.9300445318222046
1772789639109328600,7.85332861328125,10.020885467529297,0.4204064905643463,0.9300445318222046
1772789639149529600,7.893529541015625,10.020885467529297,0.4198076128959656,0.9450162649154663
1772789639169630000,7.9136298828125,10.020885467529297,0.4054347574710846,0.9306434392929077
1772789639189730000,7.93372998046875,10.011303901672363,0.4198076128959656,0.9306434392929077
1772789639209830100,7.953830078125,10.011303901672363,0.41022568941116333,0.9312422871589661
1772789639229930500,7.973930419921875,10.030467987060547,0.40064379572868347,0.9360332489013672
1772789639250030600,7.994030517578125,10.011303901672363,0.4054347574710846,0.9312422871589661
1772789639270130700,8.014130615234375,10.011303901672363,0.40064379572868347,0.9504061341285706
1772789639290231000,8.03423095703125,10.011303901672363,0.3862709105014801,0.9551970958709717
1772789639310331100,8.0543310546875,10.002320289611816,0.4293895363807678,0.9264513254165649
1772789639350531600,8.094531494140625,9.99213981628418,0.41082456707954407,0.9300445318222046
1772789639370631700,8.114631591796876,9.987348556518555,0.4156155288219452,0.9300445318222046
1772789639390731800,8.134731689453124,10.006512641906738,0.3964517116546631,0.9204626083374023
1772789639410832000,8.154831787109375,10.025676727294922,0.4156155288219452,0.9204626083374023
1772789639430932200,8.17493212890625,10.020885467529297,0.42998838424682617,0.9252535700798035
1772789639451032300,8.1950322265625,10.020885467529297,0.4156155288219452,0.9396264553070068
1772789639471132700,8.215132568359374,10.016094207763672,0.42998838424682617,0.9396264553070068
1772789639491232800,8.235232666015625,10.020885467529297,0.4347793459892273,0.9204626083374023
1772789639511332900,8.255332763671875,10.020885467529297,0.4156155288219452,0.9300445318222046
1772789639531433000,8.275432861328126,9.99213981628418,0.42998838424682617,0.9252535700798035
1772789639551533300,8.295533203125,9.992738723754883,0.4198076128959656,0.9210615158081055
1772789639571633400,8.31563330078125,10.006512641906738,0.40064379572868347,0.9162705540657043
1772789639591733500,8.3357333984375,10.001721382141113,0.41501665115356445,0.9306434392929077
1772789639631934000,8.375933837890624,10.020885467529297,0.4245985746383667,0.9354343414306641
1772789639652034000,8.396033935546875,10.001721382141113,0.4245985746383667,0.9450162649154663
1772789639672134000,8.4161337890625,10.020885467529297,0.4054347574710846,0.9306434392929077
1772789639692233500,8.4362333984375,10.035258293151855,0.4245985746383667,0.9210615158081055
1772789639732432100,8.47643212890625,10.006512641906738,0.4054347574710846,0.9216603636741638
1772789639752531700,8.49653173828125,9.997529983520508,0.41501665115356445,0.9216603636741638
1772789639772631000,8.516631103515625,10.011303901672363,0.40064379572868347,0.9312422871589661
1772789639792730400,8.53673046875,10.007111549377441,0.41501665115356445,0.9312422871589661
1772789639812830000,8.556829833984375,10.020885467529297,0.4198076128959656,0.9168694019317627
1772789639832929300,8.57692919921875,10.007111549377441,0.41022568941116333,0.9312422871589661
1772789639853028600,8.597028564453124,10.016094207763672,0.4245985746383667,0.9408242106437683
1772789639873128200,8.617128173828124,10.011902809143066,0.4293895363807678,0.9360332489013672
1772789639893227500,8.6372275390625,10.007111549377441,0.41501665115356445,0.9264513254165649
1772789639913327000,8.6573271484375,10.016094207763672,0.42399969696998596,0.9360332489013672
1772789639933426400,8.677426513671875,10.007111549377441,0.41920873522758484,0.9270501732826233
1772789639953525800,8.69752587890625,10.020885467529297,0.4245985746383667,0.9066886305809021
1772789639973625000,8.717625,10.025676727294922,0.4198076128959656,0.9306434392929077
1772789639993724700,8.737724609375,10.011303901672363,0.41022568941116333,0.9258524775505066
1772789640013824000,8.757823974609375,10.001721382141113,0.41022568941116333,0.9162705540657043
1772789640033923300,8.77792333984375,10.016094207763672,0.41022568941116333,0.9450162649154663
1772789640054023000,8.79802294921875,9.996931076049805,0.4245985746383667,0.9450162649154663
1772789640074122200,8.818122314453126,10.011303901672363,0.41022568941116333,0.9450162649154663
1772789640094221600,8.8382216796875,10.039450645446777,0.4245985746383667,0.9210615158081055
1772789640114321200,8.858321044921874,10.025676727294922,0.4204064905643463,0.9210615158081055
1772789640134420500,8.87842041015625,10.016094207763672,0.42519745230674744,0.9348354935646057
1772789640154520000,8.89852001953125,10.002320289611816,0.41501665115356445,0.9312422871589661
1772789640174619100,8.918619140625,10.011303901672363,0.4054347574710846,0.9264513254165649
1772789640194718500,8.938718505859375,9.997529983520508,0.41501665115356445,0.9216603636741638
1772789640214817500,8.958817626953126,10.011303901672363,0.4245985746383667,0.9264513254165649
1772789640234916600,8.97891650390625,10.011303901672363,0.4198076128959656,0.9264513254165649
1772789640255015700,8.999015625,9.992738723754883,0.4198076128959656,0.9216603636741638
1772789640275115000,9.019114990234375,9.997529983520508,0.4245985746383667,0.9360332489013672
1772789640295214000,9.039214111328125,10.016094207763672,0.4054347574710846,0.9312422871589661
1772789640315313200,9.059313232421875,10.035258293151855,0.42399969696998596,0.9360332489013672
1772789640335412200,9.079412109375,10.025676727294922,0.4287906587123871,0.9366320967674255
1772789640355511300,9.09951123046875,10.016094207763672,0.4198076128959656,0.9402253031730652
1772789640375610600,9.119610595703126,10.025676727294922,0.41501665115356445,0.9402253031730652
1772789640415808800,9.159808837890624,10.001721382141113,0.4198076128959656,0.9306434392929077
1772789640456007200,9.200007080078125,10.006512641906738,0.43418049812316895,0.9258524775505066
1772789640476106200,9.220106201171875,10.011303901672363,0.43418049812316895,0.9258524775505066
1772789640496205300,9.240205322265625,9.996931076049805,0.4245985746383667,0.9306434392929077
1772789640516304400,9.260304443359376,10.006512641906738,0.4293895363807678,0.9258524775505066
1772789640536403700,9.28040380859375,10.006512641906738,0.4293895363807678,0.9402253031730652
1772789640556502800,9.300502685546874,10.020885467529297,0.4335816204547882,0.9318411350250244
1772789640576601900,9.320601806640624,10.016693115234375,0.42399969696998596,0.9222592115402222
1772789640596701000,9.340700927734375,10.030467987060547,0.41920873522758484,0.9270501732826233
1772789640616800300,9.36080029296875,10.016693115234375,0.43837258219718933,0.9366320967674255
1772789640636899300,9.3808994140625,10.002320289611816,0.4335816204547882,0.9222592115402222
1772789640656998400,9.400998291015625,10.007111549377441,0.409626841545105,0.9222592115402222
1772789640677097000,9.421096923828125,10.021484375,0.40483587980270386,0.9318411350250244
1772789640697195300,9.4411953125,10.030467987060547,0.4287906587123871,0.9174683094024658
1772789640717293600,9.46129345703125,10.007111549377441,0.4527454376220703,0.9228581190109253
1772789640737391900,9.481391845703126,10.031065940856934,0.42399969696998596,0.9228581190109253
1772789640757490200,9.501490234375,10.020885467529297,0.4335816204547882,0.9222592115402222
1772789640777588500,9.52158837890625,10.007111549377441,0.4198076128959656,0.9264513254165649
1772789640797686800,9.541686767578126,9.987947463989258,0.3862709105014801,0.9264513254165649
1772789640817785000,9.56178515625,10.020885467529297,0.40064379572868347,0.9030954241752625
1772789640837883400,9.58188330078125,10.011902809143066,0.41501665115356445,0.9264513254165649
1772789640857981700,9.601981689453124,10.011902809143066,0.41501665115356445,0.9312422871589661
1772789640878080000,9.622080078125,10.002320289611816,0.44316354393959045,0.9216603636741638
1772789640918276600,9.662276611328124,9.997529983520508,0.4198076128959656,0.9216603636741638
1772789640938375000,9.682375,10.020885467529297,0.4198076128959656,0.9264513254165649
1772789640958473200,9.70247314453125,10.011303901672363,0.41501665115356445,0.9312422871589661
1772789640978571500,9.722571533203125,10.016094207763672,0.41501665115356445,0.9264513254165649
1772789640998669800,9.742669921875,10.020885467529297,0.4293895363807678,0.9264513254165649
1772789641018768100,9.76276806640625,10.002320289611816,0.4293895363807678,0.9264513254165649
1772789641038866400,9.782866455078125,10.002320289611816,0.40064379572868347,0.9168694019317627
1772789641058964700,9.80296484375,10.016094207763672,0.41501665115356445,0.9120784401893616
1772789641079063000,9.82306298828125,10.016094207763672,0.4245985746383667,0.9456151723861694
1772789641099161300,9.843161376953125,10.011303901672363,0.3910618722438812,0.9360332489013672
1772789641119259600,9.863259765625,10.016094207763672,0.4198076128959656,0.9168694019317627
1772789641139358000,9.88335791015625,10.011303901672363,0.40064379572868347,0.9312422871589661
1772789641159456300,9.903456298828125,10.020885467529297,0.40483587980270386,0.9222592115402222
1772789641179555800,9.923555908203125,9.992738723754883,0.4144177734851837,0.9366320967674255
1772789641199656200,9.94365625,9.978365898132324,0.4144177734851837,0.9318411350250244
1772789641239856600,9.983856689453125,9.997529983520508,0.40483587980270386,0.9318411350250244
1772789641259957000,10.00395703125,9.992738723754883,0.4144177734851837,0.9462140202522278
1772789641280057000,10.02405712890625,10.021484375,0.40004491806030273,0.9222592115402222
1772789641300157400,10.044157470703125,10.025676727294922,0.42399969696998596,0.9222592115402222
1772789641320257500,10.064257568359375,10.021484375,0.40483587980270386,0.9222592115402222
1772789641340358000,10.08435791015625,10.016693115234375,0.42399969696998596,0.9222592115402222
1772789641360458000,10.1044580078125,10.002320289611816,0.4293895363807678,0.9312422871589661
1772789641380558300,10.124558349609375,10.016094207763672,0.4198076128959656,0.9312422871589661
1772789641400658400,10.144658447265625,10.011303901672363,0.4245985746383667,0.9354343414306641
1772789641420758800,10.1647587890625,10.016094207763672,0.4198076128959656,0.9258524775505066
1772789641440859000,10.18485888671875,10.025676727294922,0.41501665115356445,0.9162705540657043
1772789641460959200,10.204959228515625,10.030467987060547,0.4198076128959656,0.9210615158081055
1772789641481059300,10.225059326171875,10.020885467529297,0.41501665115356445,0.9306434392929077
1772789641501159700,10.24515966796875,10.016094207763672,0.4245985746383667,0.9306434392929077
1772789641541360000,10.285360107421875,9.996931076049805,0.4293895363807678,0.9258524775505066
1772789641561460200,10.305460205078125,10.007111549377441,0.4054347574710846,0.9264513254165649
1772789641581560600,10.325560546875,10.016094207763672,0.42399969696998596,0.9216603636741638
1772789641601660700,10.34566064453125,10.002320289611816,0.4054347574710846,0.9270501732826233
1772789641621761000,10.365760986328125,10.007111549377441,0.3910618722438812,0.9270501732826233
1772789641641861000,10.385861083984375,10.020885467529297,0.43837258219718933,0.9174683094024658
1772789641661961500,10.40596142578125,10.016693115234375,0.409626841545105,0.9318411350250244
1772789641682061800,10.426061767578124,10.011902809143066,0.4144177734851837,0.9318411350250244
1772789641702162000,10.446161865234375,10.002320289611816,0.42399969696998596,0.9222592115402222
1772789641722262300,10.46626220703125,10.016693115234375,0.41920873522758484,0.9174683094024658
1772789641742362600,10.486362548828126,10.011902809143066,0.42399969696998596,0.9222592115402222
1772789641762463000,10.506462890625,9.992738723754883,0.42399969696998596,0.9270501732826233
1772789641782563300,10.526563232421875,9.997529983520508,0.42399969696998596,0.9318411350250244
1772789641802663700,10.54666357421875,10.002320289611816,0.4287906587123871,0.9318411350250244
1772789641822764000,10.566763916015624,10.011902809143066,0.409626841545105,0.9462140202522278
1772789641842864000,10.586864013671875,10.020885467529297,0.41920873522758484,0.9270501732826233
1772789641862964500,10.606964599609375,10.025676727294922,0.409626841545105,0.9222592115402222
1772789641883064800,10.62706494140625,10.007111549377441,0.4144177734851837,0.9270501732826233
1772789641903165200,10.647165283203124,10.016693115234375,0.4144177734851837,0.9366320967674255
1772789641923265500,10.667265625,10.002320289611816,0.40483587980270386,0.9270501732826233
1772789641943366000,10.687365966796875,10.016693115234375,0.4144177734851837,0.9318411350250244
1772789641963466000,10.707466064453126,10.016693115234375,0.41920873522758484,0.9270501732826233
1772789641983566300,10.72756640625,10.030467987060547,0.409626841545105,0.9270501732826233
1772789642003666700,10.747666748046875,10.021484375,0.409626841545105,0.9270501732826233
1772789642023767000,10.76776708984375,9.997529983520508,0.4144177734851837,0.9222592115402222
1772789642043867400,10.787867431640626,10.016693115234375,0.42399969696998596,0.9318411350250244
1772789642063967700,10.8079677734375,10.030467987060547,0.4144177734851837,0.9126773476600647
1772789642084068000,10.828068115234375,10.002320289611816,0.4144177734851837,0.9270501732826233
1772789642104168400,10.84816845703125,10.016693115234375,0.40483587980270386,0.9318411350250244
1772789642124268500,10.8682685546875,10.002320289611816,0.4144177734851837,0.9414230585098267
1772789642144369000,10.888368896484375,10.011902809143066,0.4144177734851837,0.9222592115402222
1772789642184568800,10.92856884765625,9.987947463989258,0.40004491806030273,0.9174683094024658
1772789642204668400,10.94866845703125,10.002320289611816,0.3952539563179016,0.9270501732826233
1772789642224768000,10.96876806640625,9.987947463989258,0.4144177734851837,0.9366320967674255
1772789642244867600,10.98886767578125,10.007111549377441,0.4287906587123871,0.9126773476600647
1772789642285066800,11.029066650390625,9.992738723754883,0.4144177734851837,0.9270501732826233
1772789642305166300,11.049166259765625,10.016693115234375,0.409626841545105,0.9366320967674255
1772789642325266000,11.069265869140626,10.016693115234375,0.40483587980270386,0.9270501732826233
1772789642365463600,11.109463623046874,9.992738723754883,0.41920873522758484,0.9276490807533264
1772789642385562000,11.12956201171875,10.021484375,0.409626841545105,0.9324400424957275
1772789642405661000,11.149660888671875,10.026275634765625,0.409626841545105,0.9276490807533264
1772789642425759700,11.169759765625,10.007111549377441,0.42399969696998596,0.9372310042381287
1772789642445858300,11.1898583984375,9.987947463989258,0.4144177734851837,0.9276490807533264
1772789642465957000,11.20995703125,9.997529983520508,0.41920873522758484,0.9228581190109253
1772789642486056000,11.230055908203125,10.007111549377441,0.42399969696998596,0.9372310042381287
1772789642506154800,11.25015478515625,10.002320289611816,0.409626841545105,0.9324400424957275
1772789642526253300,11.27025341796875,9.997529983520508,0.41920873522758484,0.9372310042381287
1772789642546352000,11.29035205078125,10.007111549377441,0.4287906587123871,0.9366320967674255
1772789642566451000,11.310450927734376,10.011902809143066,0.41920873522758484,0.9366320967674255
1772789642586549500,11.330549560546874,10.011902809143066,0.409626841545105,0.9462140202522278
1772789642606648300,11.3506484375,10.021484375,0.409626841545105,0.9222592115402222
1772789642626747100,11.3707470703125,10.007111549377441,0.41920873522758484,0.9222592115402222
1772789642646845700,11.390845703125,10.007111549377441,0.41920873522758484,0.9318411350250244
1772789642666944500,11.410944580078125,10.002320289611816,0.4144177734851837,0.9462140202522278
1772789642707142400,11.451142333984375,10.016693115234375,0.4144177734851837,0.9270501732826233
1772789642727241200,11.4712412109375,9.992738723754883,0.4144177734851837,0.9318411350250244
1772789642747340000,11.491340087890626,10.016693115234375,0.41920873522758484,0.9276490807533264
1772789642787538000,11.531537841796874,10.026275634765625,0.42399969696998596,0.9180671572685242
1772789642807636700,11.55163671875,10.011902809143066,0.4144177734851837,0.9228581190109253
1772789642827735800,11.57173583984375,10.021484375,0.409626841545105,0.9372310042381287
1772789642847834600,11.591834716796875,10.026275634765625,0.4144177734851837,0.9324400424957275
1772789642867933400,11.611933349609375,10.002320289611816,0.4144177734851837,0.9180671572685242
1772789642888032500,11.632032470703125,10.002320289611816,0.4287906587123871,0.9084852337837219
1772789642908131300,11.65213134765625,10.002320289611816,0.409626841545105,0.9372310042381287
1772789642928230100,11.672230224609375,10.007111549377441,0.43298274278640747,0.9324400424957275
1772789642948329000,11.692328857421876,10.016693115234375,0.4287906587123871,0.9180671572685242
1772789642988526800,11.73252685546875,10.016693115234375,0.41920873522758484,0.9228581190109253
1772789643008625700,11.752625732421874,10.007111549377441,0.41920873522758484,0.9324400424957275
1772789643028724700,11.772724853515625,9.987947463989258,0.40483587980270386,0.9420219659805298
1772789643048823600,11.792823486328125,10.007111549377441,0.42399969696998596,0.9420219659805298
1772789643068922600,11.812922607421875,10.007111549377441,0.41920873522758484,0.9372310042381287
1772789643089021400,11.833021484375,10.016693115234375,0.4287906587123871,0.9276490807533264
1772789643109120300,11.853120361328125,10.007111549377441,0.40483587980270386,0.9228581190109253
1772789643129219000,11.873218994140625,10.011902809143066,0.42399969696998596,0.9276490807533264
1772789643149318100,11.893318115234376,10.030467987060547,0.42399969696998596,0.9468128681182861
1772789643189517000,11.93351708984375,10.016693115234375,0.40004491806030273,0.9420219659805298
1772789643209617200,11.9536171875,9.997529983520508,0.409626841545105,0.9420219659805298
1772789643229717200,11.97371728515625,9.983756065368652,0.40004491806030273,0.9324400424957275
1772789643269917200,12.013917236328124,10.026275634765625,0.4144177734851837,0.9366320967674255
1772789643290017300,12.034017333984375,9.987947463989258,0.41920873522758484,0.9324400424957275
1772789643310117400,12.054117431640625,10.002320289611816,0.42399969696998596,0.9324400424957275
1772789643330217500,12.074217529296876,10.021484375,0.41920873522758484,0.9366320967674255
1772789643350317300,12.0943173828125,10.016693115234375,0.4144177734851837,0.9372310042381287
1772789643370417400,12.11441748046875,10.011902809143066,0.40483587980270386,0.9180671572685242
1772789643390517500,12.134517578125,10.016693115234375,0.40483587980270386,0.9324400424957275
1772789643410617300,12.154617431640625,10.016693115234375,0.42399969696998596,0.913276195526123
1772789643430717400,12.174717529296874,10.007111549377441,0.41920873522758484,0.9276490807533264
1772789643450817500,12.194817626953125,9.997529983520508,0.42399969696998596,0.9276490807533264
1772789643470917600,12.214917724609375,10.007111549377441,0.4287906587123871,0.9276490807533264
1772789643491017700,12.235017822265625,9.992738723754883,0.40483587980270386,0.9420219659805298
1772789643531217700,12.2752177734375,10.016693115234375,0.4335816204547882,0.9324400424957275
1772789643551317800,12.29531787109375,10.007111549377441,0.40483587980270386,0.9324400424957275
1772789643571417600,12.31541748046875,10.011902809143066,0.409626841545105,0.9372310042381287
1772789643591517700,12.335517578125,10.035258293151855,0.42399969696998596,0.9228581190109253
1772789643611617800,12.35561767578125,10.031065940856934,0.4335816204547882,0.9228581190109253
1772789643651818000,12.39581787109375,10.011902809143066,0.4144177734851837,0.9468128681182861
1772789643692017200,12.43601708984375,10.021484375,0.4287906587123871,0.9228581190109253
1772789643732216000,12.476216064453125,10.007111549377441,0.41920873522758484,0.9276490807533264
1772789643772415200,12.516415283203125,9.992738723754883,0.4287906587123871,0.9276490807533264
1772789643812614100,12.5566142578125,10.026275634765625,0.4287906587123871,0.9276490807533264
1772789643832713500,12.57671337890625,10.011902809143066,0.4144177734851837,0.9228581190109253
1772789643852813000,12.59681298828125,10.002320289611816,0.3952539563179016,0.9276490807533264
1772789643872912600,12.61691259765625,10.002320289611816,0.3904629945755005,0.9180671572685242
1772789643893012000,12.637011962890625,10.002320289611816,0.40483587980270386,0.9228581190109253
1772789643913111600,12.657111572265626,10.031065940856934,0.4335816204547882,0.9468128681182861
1772789643933211100,12.677211181640626,10.016693115234375,0.44316354393959045,0.9468128681182861
1772789643953310500,12.697310546875,10.007111549377441,0.409626841545105,0.9276490807533264
1772789643973410000,12.71741015625,10.016693115234375,0.4144177734851837,0.9084852337837219
1772789643993509600,12.737509521484375,10.002320289611816,0.42399969696998596,0.9084852337837219
1772789644013609000,12.75760888671875,9.997529983520508,0.41920873522758484,0.9228581190109253
1772789644033708500,12.77770849609375,9.992738723754883,0.41920873522758484,0.9372310042381287
1772789644053807900,12.797807861328126,10.007111549377441,0.4144177734851837,0.9372310042381287
1772789644073907500,12.817907470703124,10.021484375,0.4144177734851837,0.9324400424957275
1772789644094007000,12.838007080078125,10.011902809143066,0.4335816204547882,0.9324400424957275
1772789644114106400,12.8581064453125,9.988546371459961,0.4287906587123871,0.9228581190109253
1772789644134206000,12.8782060546875,10.002320289611816,0.4335816204547882,0.9468128681182861
1772789644154305500,12.898305419921876,10.030467987060547,0.41920873522758484,0.9414230585098267
1772789644194503700,12.938503662109374,10.007111549377441,0.40004491806030273,0.9222592115402222
1772789644234701600,12.97870166015625,10.025676727294922,0.42399969696998596,0.9414230585098267
1772789644254800400,12.99880029296875,10.020885467529297,0.40064379572868347,0.9366320967674255
1772789644274899500,13.0188994140625,10.035258293151855,0.42399969696998596,0.9312422871589661
1772789644315097300,13.059097412109375,9.992738723754883,0.41501665115356445,0.9312422871589661
1772789644335196200,13.079196044921876,10.011303901672363,0.4245985746383667,0.9168694019317627
1772789644355295200,13.099295166015626,10.021484375,0.409626841545105,0.9228581190109253
1772789644375394000,13.11939404296875,10.007111549377441,0.40902796387672424,0.9138750433921814
1772789644395493000,13.1394931640625,9.983756065368652,0.43298274278640747,0.9234569668769836
1772789644415592200,13.15959228515625,9.998128890991211,0.42819178104400635,0.9186660051345825
1772789644435691000,13.17969091796875,10.011902809143066,0.42819178104400635,0.937829852104187
1772789644475889000,13.219888916015625,9.998128890991211,0.42819178104400635,0.9234569668769836
1772789644495988000,13.239988037109375,10.007710456848145,0.4234008193016052,0.9138750433921814
1772789644516086800,13.260086669921876,10.01250171661377,0.399446040391922,0.9240558743476868
1772789644536185900,13.280185791015626,10.031065940856934,0.38986414670944214,0.9288467764854431
1772789644556284700,13.30028466796875,10.035258293151855,0.4335816204547882,0.9372310042381287
1772789644576383700,13.3203837890625,10.031065940856934,0.3904629945755005,0.913276195526123
1772789644596482600,13.340482666015625,10.002320289611816,0.42399969696998596,0.9228581190109253
1772789644616581600,13.36058154296875,9.988546371459961,0.44316354393959045,0.9276490807533264
1772789644636680700,13.3806806640625,10.011902809143066,0.4287906587123871,0.9372310042381287
1772789644656779500,13.400779541015625,10.021484375,0.42399969696998596,0.9420219659805298
1772789644676879400,13.42087939453125,10.026275634765625,0.41920873522758484,0.9324400424957275
1772789644696980000,13.44097998046875,9.997529983520508,0.4287906587123871,0.9372310042381287
1772789644717080300,13.461080322265625,10.011902809143066,0.4479544758796692,0.9228581190109253
1772789644737181000,13.481180908203125,10.007111549377441,0.4335816204547882,0.9276490807533264
1772789644757281500,13.501281494140626,9.998128890991211,0.40902796387672424,0.9330388903617859
1772789644797482500,13.541482421875,10.016693115234375,0.4234008193016052,0.9186660051345825
1772789644837683700,13.58168359375,10.016693115234375,0.41381892561912537,0.9138750433921814
1772789644857784000,13.6017841796875,10.021484375,0.4186098873615265,0.9282479286193848
1772789644877884700,13.621884765625,10.016693115234375,0.4186098873615265,0.9330388903617859
1772789644897985300,13.6419853515625,9.993337631225586,0.38986414670944214,0.9474117755889893
1772789644918086000,13.6620859375,9.998128890991211,0.4186098873615265,0.937829852104187
1772789644938186200,13.682186279296875,10.016693115234375,0.4234008193016052,0.9282479286193848
1772789644958286800,13.702286865234376,10.007111549377441,0.4335816204547882,0.9324400424957275
1772789644978387500,13.722387451171874,9.997529983520508,0.42399969696998596,0.9228581190109253
1772789644998487800,13.74248779296875,9.997529983520508,0.409626841545105,0.913276195526123
1772789645018588400,13.76258837890625,10.026275634765625,0.40004491806030273,0.9228581190109253
1772789645038689000,13.78268896484375,10.016693115234375,0.41920873522758484,0.9366320967674255
1772789645058789600,13.80278955078125,10.011902809143066,0.41920873522758484,0.9270501732826233
1772789645078890000,13.822889892578125,10.002320289611816,0.42399969696998596,0.9318411350250244
1772789645098990600,13.842990478515626,10.016693115234375,0.4287906587123871,0.9366320967674255
1772789645119091200,13.86309130859375,10.016693115234375,0.42399969696998596,0.9414230585098267
1772789645139191600,13.883191650390625,10.021484375,0.409626841545105,0.9318411350250244
1772789645159292200,13.903292236328125,9.993337631225586,0.4186098873615265,0.9138750433921814
1772789645179392300,13.923392333984374,10.021484375,0.4234008193016052,0.9282479286193848
1772789645199492000,13.9434921875,10.026275634765625,0.4234008193016052,0.937829852104187
1772789645219591700,13.963591796875,10.007111549377441,0.42819178104400635,0.9186660051345825
1772789645239691500,13.98369140625,9.983756065368652,0.4186098873615265,0.9330388903617859
1772789645259791400,14.003791259765626,9.998128890991211,0.4425646662712097,0.9330388903617859
1772789645299990800,14.04399072265625,10.007111549377441,0.41381892561912537,0.9234569668769836
1772789645320090600,14.064090576171875,10.007111549377441,0.4186098873615265,0.9186660051345825
1772789645340190500,14.0841904296875,10.011902809143066,0.41381892561912537,0.9234569668769836
1772789645360290300,14.104290283203126,10.007111549377441,0.4287906587123871,0.9372310042381287
1772789645380390100,14.12439013671875,10.011902809143066,0.41920873522758484,0.9324400424957275
1772789645420589600,14.164589599609375,10.016693115234375,0.409626841545105,0.9324400424957275
1772789645440689400,14.184689453125,9.992738723754883,0.4144177734851837,0.9324400424957275
1772789645460789200,14.204789306640626,10.002320289611816,0.40004491806030273,0.9324400424957275
1772789645480889000,14.22488916015625,10.04004955291748,0.40483587980270386,0.9276490807533264
1772789645500989000,14.244989013671875,10.011902809143066,0.42399969696998596,0.9324400424957275
1772789645521088500,14.265088623046875,10.011902809143066,0.4287906587123871,0.9228581190109253
1772789645541188400,14.285188232421875,10.007111549377441,0.409626841545105,0.9372310042381287
1772789645561288200,14.3052880859375,10.007710456848145,0.40902796387672424,0.9330388903617859
1772789645581388000,14.325387939453124,9.998128890991211,0.41381892561912537,0.9330388903617859
1772789645601488000,14.34548779296875,10.007710456848145,0.41381892561912537,0.9330388903617859
1772789645621587500,14.36558740234375,10.007710456848145,0.40902796387672424,0.937829852104187
1772789645641687300,14.385687255859375,10.016693115234375,0.40902796387672424,0.937829852104187
1772789645661787100,14.405787109375,10.016693115234375,0.40902796387672424,0.9240558743476868
1772789645681886200,14.42588623046875,9.993337631225586,0.4186098873615265,0.9288467764854431
1772789645701985000,14.445985107421874,10.00291919708252,0.41381892561912537,0.9192649126052856
1772789645722083800,14.466083740234374,10.00291919708252,0.4186098873615265,0.9192649126052856
1772789645742183000,14.486182861328125,10.00291919708252,0.41381892561912537,0.9240558743476868
1772789645762281700,14.50628173828125,10.007111549377441,0.42819178104400635,0.9282479286193848
1772789645782380500,14.526380615234375,10.031065940856934,0.4042370021343231,0.937829852104187
1772789645802479400,14.546479248046875,9.998128890991211,0.4186098873615265,0.9186660051345825
1772789645822578400,14.566578369140625,9.993337631225586,0.4234008193016052,0.9330388903617859
1772789645862776000,14.606776123046876,10.026275634765625,0.4042370021343231,0.9330388903617859
1772789645902974000,14.646973876953124,9.998128890991211,0.4042370021343231,0.9330388903617859
1772789645923072800,14.66707275390625,9.974173545837402,0.399446040391922,0.9282479286193848
1772789645943171600,14.687171630859375,9.993337631225586,0.4042370021343231,0.937829852104187
1772789645963270400,14.7072705078125,10.021484375,0.4234008193016052,0.9282479286193848
1772789645983369500,14.727369384765625,10.011902809143066,0.4234008193016052,0.937829852104187
1772789646003468300,14.74746826171875,10.016693115234375,0.42819178104400635,0.9282479286193848
1772789646023567000,14.767567138671875,10.007710456848145,0.4377737045288086,0.937829852104187
1772789646043666000,14.787666015625,10.026275634765625,0.4186098873615265,0.9090840816497803
1772789646063765000,14.807764892578126,10.011902809143066,0.385073184967041,0.9090840816497803
1772789646083863800,14.82786376953125,9.983756065368652,0.4425646662712097,0.9090840816497803
1772789646103962600,14.847962646484374,10.011902809143066,0.4377737045288086,0.9282479286193848
1772789646124061400,14.8680615234375,10.021484375,0.42819178104400635,0.9426208138465881
1772789646144160500,14.888160400390625,10.00291919708252,0.41381892561912537,0.9282479286193848
1772789646164259300,14.90825927734375,10.00291919708252,0.42819178104400635,0.9282479286193848
1772789646184359200,14.928359130859375,10.021484375,0.41381892561912537,0.9282479286193848
1772789646204459300,14.948459228515626,9.988546371459961,0.4042370021343231,0.9330388903617859
1772789646224559000,14.96855908203125,10.00291919708252,0.399446040391922,0.937829852104187
1772789646244659200,14.9886591796875,10.00291919708252,0.42819178104400635,0.9330388903617859
1772789646264759300,15.00875927734375,9.998128890991211,0.40902796387672424,0.9234569668769836
1772789646304959200,15.048959228515624,9.988546371459961,0.4234008193016052,0.9330388903617859
1772789646325059000,15.06905908203125,10.021484375,0.40902796387672424,0.937829852104187
1772789646345159200,15.0891591796875,10.016693115234375,0.40902796387672424,0.9330388903617859
1772789646365259000,15.109259033203125,10.021484375,0.41381892561912537,0.9569936990737915
1772789646385359000,15.129359130859376,10.016693115234375,0.40902796387672424,0.9426208138465881
1772789646405459200,15.149459228515624,10.00291919708252,0.40902796387672424,0.9330388903617859
1772789646425559000,15.16955908203125,9.998128890991211,0.43298274278640747,0.9522027373313904
1772789646445659100,15.1896591796875,10.007111549377441,0.4377737045288086,0.9426208138465881
1772789646465759200,15.20975927734375,10.016693115234375,0.41381892561912537,0.9138750433921814
1772789646485859000,15.229859130859374,10.00291919708252,0.4042370021343231,0.9330388903617859
1772789646505959200,15.249959228515625,10.016693115234375,0.41381892561912537,0.9282479286193848
1772789646526059000,15.27005908203125,10.011902809143066,0.41381892561912537,0.9282479286193848
1772789646546159000,15.2901591796875,9.993337631225586,0.40004491806030273,0.9276490807533264
1772789646586359000,15.330359130859375,10.007111549377441,0.41920873522758484,0.9276490807533264
1772789646606459100,15.350459228515625,9.993337631225586,0.40483587980270386,0.9276490807533264
1772789646626559200,15.370559326171875,10.007111549377441,0.40004491806030273,0.9228581190109253
1772789646646659000,15.3906591796875,9.997529983520508,0.40004491806030273,0.9420219659805298
1772789646666759200,15.41075927734375,10.007111549377441,0.409626841545105,0.9324400424957275
1772789646706958300,15.450958251953125,10.002320289611816,0.4144177734851837,0.9276490807533264
1772789646727058000,15.471057861328125,10.021484375,0.40004491806030273,0.9228581190109253
1772789646747157500,15.491157470703126,10.011902809143066,0.43837258219718933,0.9228581190109253
1772789646787357000,15.53135693359375,10.007111549377441,0.41920873522758484,0.9324400424957275
1772789646807456500,15.55145654296875,9.997529983520508,0.4144177734851837,0.9276490807533264
1772789646827556000,15.57155615234375,10.002320289611816,0.4144177734851837,0.9276490807533264
1772789646847655700,15.59165576171875,10.021484375,0.41920873522758484,0.9276490807533264
1772789646867755500,15.611755615234374,10.007111549377441,0.42399969696998596,0.9276490807533264
1772789646887855000,15.631855224609374,10.002320289611816,0.4335816204547882,0.9228581190109253
1772789646907954700,15.65195458984375,10.002320289611816,0.409626841545105,0.9228581190109253
1772789646928054300,15.67205419921875,9.997529983520508,0.409626841545105,0.9420219659805298
1772789646948153900,15.69215380859375,10.031065940856934,0.4377737045288086,0.937829852104187
1772789646968253700,15.712253662109376,10.040648460388184,0.42819178104400635,0.9234569668769836
1772789646988353300,15.732353271484374,10.00291919708252,0.40902796387672424,0.9186660051345825
1772789647008452900,15.752452880859375,10.007111549377441,0.41381892561912537,0.9138750433921814
1772789647028552400,15.772552490234375,10.007710456848145,0.41381892561912537,0.9330388903617859
1772789647068752000,15.812751953125,10.007710456848145,0.4186098873615265,0.9234569668769836
1772789647108951000,15.852950927734375,10.021484375,0.4042370021343231,0.9330388903617859
1772789647149150200,15.893150146484375,10.011902809143066,0.4186098873615265,0.9234569668769836
1772789647189349600,15.933349609375,9.983756065368652,0.4042370021343231,0.9426208138465881
1772789647229549300,15.97354931640625,10.021484375,0.40902796387672424,0.9090840816497803
1772789647269748700,16.013748779296876,10.016693115234375,0.42819178104400635,0.937829852104187
1772789647289848600,16.0338486328125,10.007111549377441,0.40902796387672424,0.9234569668769836
1772789647309948200,16.0539482421875,10.016693115234375,0.4377737045288086,0.9282479286193848
1772789647330048000,16.074048095703127,9.988546371459961,0.4234008193016052,0.937829852104187
1772789647350147800,16.09414794921875,10.031065940856934,0.4234008193016052,0.9282479286193848
1772789647390347300,16.13434716796875,10.016693115234375,0.4186098873615265,0.9186660051345825
1772789647410447000,16.154447021484376,9.998128890991211,0.4234008193016052,0.9138750433921814
1772789647430547000,16.174546875,10.021484375,0.42819178104400635,0.9186660051345825
1772789647470746400,16.214746337890624,9.998128890991211,0.42819178104400635,0.9330388903617859
1772789647490846200,16.23484619140625,10.002320289611816,0.41381892561912537,0.9186660051345825
1772789647510946000,16.254946044921876,10.011902809143066,0.4042370021343231,0.9282479286193848
1772789647531045600,16.275045654296875,9.988546371459961,0.4234008193016052,0.9234569668769836
1772789647551145500,16.2951455078125,9.998128890991211,0.41381892561912537,0.9282479286193848
1772789647571245300,16.315245361328124,10.016693115234375,0.40483587980270386,0.9330388903617859
1772789647591345200,16.33534521484375,10.011902809143066,0.40004491806030273,0.9474117755889893
1772789647611444700,16.35544482421875,10.002320289611816,0.41381892561912537,0.9282479286193848
1772789647631544600,16.375544677734375,10.011902809143066,0.4234008193016052,0.937829852104187
1772789647651644400,16.39564453125,10.002320289611816,0.4234008193016052,0.9282479286193848
1772789647671743700,16.41574365234375,10.021484375,0.3952539563179016,0.9234569668769836
1772789647691842000,16.435842041015626,9.998128890991211,0.4186098873615265,0.9516038298606873
1772789647711940400,16.4559404296875,10.002320289611816,0.4234008193016052,0.9468128681182861
1772789647732039000,16.476038818359374,9.998128890991211,0.409626841545105,0.9186660051345825
1772789647752137200,16.49613720703125,10.021484375,0.4425646662712097,0.9426208138465881
1772789647772235500,16.516235595703126,9.998128890991211,0.4186098873615265,0.9282479286193848
1772789647792334000,16.536333984375,10.011902809143066,0.41381892561912537,0.9282479286193848
1772789647812432400,16.556432373046874,10.002320289611816,0.41381892561912537,0.9426208138465881
1772789647832530700,16.57653076171875,10.002320289611816,0.4234008193016052,0.9330388903617859
1772789647872727600,16.6167275390625,10.026275634765625,0.41381892561912537,0.9330388903617859
1772789647892825900,16.636825927734375,10.002320289611816,0.4042370021343231,0.937829852104187
1772789647912924200,16.656924072265625,10.002320289611816,0.4234008193016052,0.9330388903617859
1772789647933022700,16.677022705078127,10.007111549377441,0.40902796387672424,0.9282479286193848
1772789647953121000,16.69712109375,10.016693115234375,0.4042370021343231,0.9330388903617859
1772789647973219300,16.71721923828125,10.026275634765625,0.4234008193016052,0.937829852104187
1772789647993318000,16.73731787109375,10.00291919708252,0.4234008193016052,0.9288467764854431
1772789648013416200,16.757416259765623,10.00291919708252,0.4234008193016052,0.9240558743476868
1772789648033514500,16.777514404296873,10.017292022705078,0.4042370021343231,0.9336377382278442
1772789648053613000,16.797613037109375,10.026275634765625,0.4186098873615265,0.9384286999702454
1772789648073711400,16.81771142578125,10.007710456848145,0.4234008193016052,0.9336377382278442
1772789648093809700,16.8378095703125,10.00291919708252,0.41381892561912537,0.9384286999702454
1772789648113908200,16.857908203125,10.007710456848145,0.4234008193016052,0.9288467764854431
1772789648134006500,16.878006591796876,10.007710456848145,0.43298274278640747,0.9336377382278442
1772789648154104800,16.898104736328126,10.01250171661377,0.41381892561912537,0.937829852104187
1772789648174203400,16.918203369140624,10.00291919708252,0.41381892561912537,0.9330388903617859
1772789648194302000,16.938302001953126,10.01250171661377,0.43298274278640747,0.9096829891204834
1772789648214400300,16.958400146484376,10.026275634765625,0.399446040391922,0.9330388903617859
1772789648234498800,16.978498779296874,10.026275634765625,0.4042370021343231,0.9330388903617859
1772789648254597400,16.998597412109376,10.026275634765625,0.42819178104400635,0.9282479286193848
1772789648274695700,17.01869580078125,9.998128890991211,0.40902796387672424,0.9234569668769836
1772789648294794200,17.038794189453125,10.00291919708252,0.41381892561912537,0.9330388903617859
1772789648314892800,17.058892822265626,10.007710456848145,0.4377737045288086,0.9330388903617859
1772789648334991400,17.078991455078125,10.00291919708252,0.41381892561912537,0.9240558743476868
1772789648355090000,17.09908984375,10.007710456848145,0.399446040391922,0.9336377382278442
1772789648375188200,17.119188232421877,10.01250171661377,0.41322004795074463,0.9246547222137451
1772789648395286800,17.139286865234375,10.01250171661377,0.427592933177948,0.9528015851974487
1772789648415385300,17.15938525390625,10.031065940856934,0.43238386511802673,0.9390276074409485
1772789648455582200,17.199582275390625,10.017292022705078,0.41801100969314575,0.9342366456985474
1772789648475680800,17.2196806640625,10.022083282470703,0.4228019714355469,0.9294456839561462
1772789648495779300,17.239779296875,10.007710456848145,0.427592933177948,0.9390276074409485
1772789648515878000,17.2598779296875,9.998128890991211,0.43238386511802673,0.9342366456985474
1772789648535976200,17.27997607421875,10.00291919708252,0.43238386511802673,0.9438185691833496
1772789648556074800,17.30007470703125,10.011902809143066,0.42819178104400635,0.9090840816497803
1772789648576173300,17.32017333984375,10.011902809143066,0.40902796387672424,0.9234569668769836
1772789648596271900,17.34027197265625,9.998128890991211,0.4186098873615265,0.9282479286193848
1772789648616370200,17.3603701171875,9.993337631225586,0.41381892561912537,0.9186660051345825
1772789648636468700,17.38046875,10.026275634765625,0.4186098873615265,0.9234569668769836
1772789648656567300,17.4005673828125,10.002320289611816,0.4144177734851837,0.9276490807533264
1772789648676667000,17.4206669921875,10.026275634765625,0.40483587980270386,0.9420219659805298
1772789648696767000,17.44076708984375,10.021484375,0.409626841545105,0.9228581190109253
1772789648716867000,17.4608671875,10.002320289611816,0.409626841545105,0.9324400424957275
1772789648757067800,17.50106787109375,9.998128890991211,0.41381892561912537,0.9288467764854431
1772789648777168000,17.52116796875,10.017292022705078,0.41801100969314575,0.9432196617126465
1772789648797268200,17.541268310546876,10.017292022705078,0.41801100969314575,0.9246547222137451
1772789648837468700,17.58146875,10.022083282470703,0.3940562307834625,0.9294456839561462
1772789648877669000,17.621669189453126,10.017292022705078,0.4084290862083435,0.9246547222137451
1772789648897769200,17.641769287109376,10.00291919708252,0.41801100969314575,0.9150727987289429
1772789648917869600,17.66186962890625,10.022083282470703,0.41322004795074463,0.9294456839561462
1772789648958070000,17.702070068359376,10.016693115234375,0.4377737045288086,0.9240558743476868
1772789648978170000,17.722170166015626,10.021484375,0.4234008193016052,0.9336377382278442
1772789648998270500,17.7422705078125,10.007710456848145,0.42819178104400635,0.9330388903617859
1772789649018370600,17.76237060546875,10.026275634765625,0.4234008193016052,0.9090840816497803
1772789649038471000,17.782470947265626,10.007710456848145,0.41381892561912537,0.9330388903617859
1772789649058571000,17.802571044921876,9.998128890991211,0.4234008193016052,0.9282479286193848
1772789649078671400,17.82267138671875,10.026275634765625,0.41381892561912537,0.9330388903617859
1772789649098771500,17.842771484375,10.011902809143066,0.4042370021343231,0.9282479286193848
1772789649118871800,17.862871826171876,10.007111549377441,0.41381892561912537,0.9330388903617859
1772789649138972200,17.88297216796875,10.026275634765625,0.4234008193016052,0.9282479286193848
1772789649159072300,17.903072265625,10.017292022705078,0.4234008193016052,0.9192649126052856
1772789649179171800,17.923171875,10.01250171661377,0.40902796387672424,0.9240558743476868
1772789649199271200,17.943271240234374,10.007710456848145,0.4186098873615265,0.9288467764854431
1772789649239469600,17.983469482421874,9.998128890991211,0.4186098873615265,0.9336377382278442
1772789649259569000,18.00356884765625,10.00291919708252,0.4186098873615265,0.9240558743476868
1772789649279668200,18.023668212890627,10.007710456848145,0.42819178104400635,0.9192649126052856
1772789649299767600,18.043767578125,10.01250171661377,0.43717482686042786,0.9336377382278442
1772789649319867000,18.063866943359375,10.022083282470703,0.4186098873615265,0.9432196617126465
1772789649339966200,18.08396630859375,10.022083282470703,0.427592933177948,0.9384286999702454
1772789649380164900,18.124164794921874,10.016693115234375,0.4186098873615265,0.9282479286193848
1772789649400264200,18.14426416015625,9.998128890991211,0.42819178104400635,0.9234569668769836
1772789649420363300,18.16436328125,9.998128890991211,0.4234008193016052,0.9426208138465881
1772789649440462600,18.184462646484373,10.011902809143066,0.4186098873615265,0.9426208138465881
1772789649460562000,18.20456201171875,10.011902809143066,0.43298274278640747,0.9426208138465881
1772789649480661200,18.2246611328125,10.011902809143066,0.4425646662712097,0.9186660051345825
1772789649500760600,18.244760498046876,10.007111549377441,0.40902796387672424,0.9282479286193848
1772789649540959200,18.284959228515625,10.026275634765625,0.4042370021343231,0.937829852104187
1772789649561058600,18.30505859375,10.022083282470703,0.399446040391922,0.9336377382278442
1772789649581158000,18.325157958984374,10.007710456848145,0.4042370021343231,0.9288467764854431
1772789649601257000,18.345257080078124,10.007710456848145,0.38986414670944214,0.9390276074409485
1772789649621356300,18.365356201171874,10.022083282470703,0.41322004795074463,0.9294456839561462
1772789649661555000,18.405554931640626,9.998128890991211,0.427592933177948,0.9294456839561462
1772789649681654300,18.425654296875,10.031664848327637,0.41801100969314575,0.9294456839561462
1772789649701753900,18.44575390625,10.017292022705078,0.41322004795074463,0.9534004330635071
1772789649721853400,18.465853515625,10.007710456848145,0.4084290862083435,0.9390276074409485
1772789649762052400,18.50605224609375,10.01250171661377,0.43298274278640747,0.9192649126052856
1772789649782151700,18.526151611328125,10.00291919708252,0.42819178104400635,0.937829852104187
1772789649802251300,18.546251220703127,10.011902809143066,0.399446040391922,0.9282479286193848
1772789649822350600,18.5663505859375,10.007710456848145,0.42819178104400635,0.9090840816497803
1772789649842450200,18.5864501953125,10.026275634765625,0.4234008193016052,0.9090840816497803
1772789649882649000,18.626649169921876,10.016693115234375,0.40902796387672424,0.9330388903617859
1772789649902748700,18.646748779296875,10.007111549377441,0.43298274278640747,0.9330388903617859
1772789649922848000,18.666847900390625,10.007111549377441,0.4186098873615265,0.9330388903617859
1772789649963047000,18.707046875,10.007710456848145,0.4186098873615265,0.9192649126052856
1772789649983146500,18.727146484375,10.017292022705078,0.4186098873615265,0.9240558743476868
1772789650003246000,18.74724609375,10.035857200622559,0.41381892561912537,0.9192649126052856
1772789650023345400,18.767345458984376,10.01250171661377,0.41381892561912537,0.9240558743476868
1772789650063544300,18.80754443359375,10.022083282470703,0.4186098873615265,0.9288467764854431
1772789650083644000,18.827643798828124,10.017292022705078,0.4234008193016052,0.9336377382278442
1772789650103743500,18.847743408203126,10.022083282470703,0.427592933177948,0.9432196617126465
1772789650123842800,18.8678427734375,10.007710456848145,0.4186098873615265,0.9480106234550476
1772789650143942400,18.8879423828125,10.00291919708252,0.4228019714355469,0.9336377382278442
1772789650164041700,18.908041748046877,10.007710456848145,0.4186098873615265,0.9288467764854431
1772789650184141300,18.928141357421875,10.007710456848145,0.3946550786495209,0.9288467764854431
1772789650204240600,18.94824072265625,10.017292022705078,0.40902796387672424,0.9054908752441406
1772789650224340200,18.96834033203125,10.031065940856934,0.40902796387672424,0.919863760471344
1772789650264539100,19.0085390625,9.998128890991211,0.3946550786495209,0.9342366456985474
1772789650284638500,19.028638427734375,10.01250171661377,0.4228019714355469,0.9390276074409485
1772789650304737800,19.04873779296875,10.00291919708252,0.441965788602829,0.9486095309257507
1772789650324837400,19.06883740234375,9.998128890991211,0.427592933177948,0.9342366456985474
1772789650344936700,19.088936767578126,9.998128890991211,0.41322004795074463,0.9294456839561462
1772789650365036300,19.109036376953124,10.022083282470703,0.41381892561912537,0.9192649126052856
1772789650385135600,19.129135498046875,10.035857200622559,0.41381892561912537,0.9192649126052856
1772789650425334500,19.16933447265625,10.022083282470703,0.41381892561912537,0.9288467764854431
1772789650445433900,19.189433837890626,10.01250171661377,0.41381892561912537,0.9240558743476868
1772789650465533400,19.209533447265624,10.021484375,0.42819178104400635,0.9384286999702454
1772789650485632800,19.2296328125,10.021484375,0.399446040391922,0.9336377382278442
1772789650525837600,19.269837646484376,10.017292022705078,0.40902796387672424,0.9192649126052856
1772789650545937200,19.289937255859375,10.026874542236328,0.4036381244659424,0.9246547222137451
1772789650566036500,19.310036376953125,10.01250171661377,0.39884716272354126,0.9390276074409485
1772789650586136000,19.330135986328123,10.026874542236328,0.4084290862083435,0.9294456839561462
1772789650606235400,19.3502353515625,9.993337631225586,0.4228019714355469,0.9438185691833496
1772789650626334700,19.370334716796876,10.007710456848145,0.43717482686042786,0.9486095309257507
1772789650646434300,19.390434326171874,9.998128890991211,0.41322004795074463,0.9246547222137451
1772789650666533600,19.41053369140625,9.998128890991211,0.4228019714355469,0.9342366456985474
1772789650706734300,19.450734375,10.01250171661377,0.4228019714355469,0.9539993405342102
1772789650726834700,19.470834716796876,10.007710456848145,0.43238386511802673,0.9396264553070068
1772789650746934800,19.490934814453126,9.989145278930664,0.4228019714355469,0.9342366456985474
1772789650767035100,19.51103515625,10.017292022705078,0.4228019714355469,0.9438185691833496
1772789650787135500,19.531135498046876,10.031664848327637,0.41322004795074463,0.9390276074409485
1772789650827336200,19.571336181640625,10.017292022705078,0.41801100969314575,0.9204626083374023
1772789650867536600,19.61153662109375,10.00291919708252,0.41801100969314575,0.9252535700798035
1772789650907737300,19.6517373046875,10.007710456848145,0.4228019714355469,0.9204626083374023
1772789650927837700,19.671837646484374,10.007710456848145,0.4228019714355469,0.9156716465950012
1772789650947937800,19.691937744140624,10.01250171661377,0.4036381244659424,0.919863760471344
1772789650988138500,19.732138427734377,10.007710456848145,0.41322004795074463,0.9342366456985474
1772789651028339000,19.7723388671875,9.993337631225586,0.4036381244659424,0.9294456839561462
1772789651048439300,19.792439208984376,10.035857200622559,0.4084290862083435,0.9294456839561462
1772789651068539600,19.81253955078125,10.035857200622559,0.41322004795074463,0.9246547222137451
1772789651088640000,19.832639892578126,9.988546371459961,0.41801100969314575,0.9342366456985474
1772789651108740400,19.852740234375,10.01250171661377,0.41322004795074463,0.9486095309257507
1772789651128840400,19.87284033203125,10.017292022705078,0.4084290862083435,0.9294456839561462
1772789651148940800,19.89294091796875,10.017292022705078,0.41322004795074463,0.9246547222137451
1772789651169041000,19.913041015625,10.007710456848145,0.41322004795074463,0.9342366456985474
1772789651189140000,19.933139892578126,9.998128890991211,0.4036381244659424,0.9294456839561462
1772789651209238800,19.95323876953125,10.007710456848145,0.39884716272354126,0.9342366456985474
1772789651229337900,19.973337890625,10.01250171661377,0.41322004795074463,0.9396264553070068
1772789651249437000,19.99343701171875,10.00291919708252,0.41322004795074463,0.9300445318222046
1772789651269535700,20.01353564453125,10.007710456848145,0.41322004795074463,0.9348354935646057
1772789651309734000,20.05373388671875,10.00291919708252,0.427592933177948,0.9348354935646057
1772789651329832700,20.073832763671874,10.01250171661377,0.41322004795074463,0.9156716465950012
1772789651349931800,20.093931884765624,10.007710456848145,0.40902796387672424,0.9480106234550476
1772789651370030800,20.11403076171875,10.021484375,0.41381892561912537,0.9240558743476868
1772789651390130000,20.1341298828125,10.026275634765625,0.40902796387672424,0.9336377382278442
1772789651430327800,20.174327880859376,10.011902809143066,0.41381892561912537,0.9234569668769836
1772789651470525700,20.214525634765625,9.983756065368652,0.399446040391922,0.9282479286193848
1772789651490624800,20.234624755859375,10.00291919708252,0.4186098873615265,0.937829852104187
1772789651530822700,20.27482275390625,10.021484375,0.4144177734851837,0.9372310042381287
1772789651550921700,20.294921630859374,10.026874542236328,0.41801100969314575,0.9396264553070068
1772789651571020800,20.315020751953124,10.031664848327637,0.4084290862083435,0.9252535700798035
1772789651591120000,20.335119873046875,10.022083282470703,0.4084290862083435,0.9252535700798035
1772789651611218700,20.35521875,10.022083282470703,0.417412132024765,0.9306434392929077
1772789651631317800,20.37531787109375,10.017292022705078,0.40783020853996277,0.9258524775505066
1772789651651416800,20.395416748046873,10.008309364318848,0.4317850172519684,0.9306434392929077
1772789651671516000,20.415515869140624,10.017890930175781,0.42699405550956726,0.9402253031730652
1772789651691615200,20.435615234375,10.008309364318848,0.417412132024765,0.9354343414306641
1772789651711714600,20.455714599609376,9.989145278930664,0.40783020853996277,0.9402253031730652
1772789651751913200,20.495913330078125,10.022083282470703,0.43238386511802673,0.9294456839561462
1772789651772012500,20.516012451171875,9.998128890991211,0.4036381244659424,0.9342366456985474
1772789651792111900,20.53611181640625,10.01250171661377,0.4084290862083435,0.9294456839561462
1772789651812211200,20.556211181640624,10.007710456848145,0.427592933177948,0.9342366456985474
1772789651832310500,20.576310546875,10.00291919708252,0.4228019714355469,0.9390276074409485
1772789651872509400,20.616509521484375,10.017292022705078,0.41801100969314575,0.9246547222137451
1772789651892608800,20.63660888671875,10.026874542236328,0.4036381244659424,0.9246547222137451
1772789651912708000,20.6567080078125,10.007710456848145,0.4036381244659424,0.9150727987289429
1772789651932807400,20.676807373046874,9.993337631225586,0.43717482686042786,0.9246547222137451
1772789651952906800,20.69690673828125,10.026874542236328,0.427592933177948,0.9294456839561462
1772789651973006000,20.717006103515626,10.026874542236328,0.427592933177948,0.9246547222137451
1772789651993105400,20.73710546875,9.97956371307373,0.43238386511802673,0.9390276074409485
1772789652013204700,20.757204833984375,10.026874542236328,0.41801100969314575,0.9246547222137451
1772789652033304000,20.777303955078125,10.01250171661377,0.4084290862083435,0.9150727987289429
1772789652053403600,20.797403564453123,10.022083282470703,0.4036381244659424,0.9294456839561462
1772789652093602300,20.837602294921876,10.00291919708252,0.41322004795074463,0.919863760471344
1772789652113701600,20.85770166015625,10.040648460388184,0.43717482686042786,0.9294456839561462
1772789652133801000,20.877801025390625,10.035857200622559,0.4228019714355469,0.9342366456985474
1772789652153900300,20.897900390625,10.017292022705078,0.41322004795074463,0.9342366456985474
1772789652173999600,20.91799951171875,9.998128890991211,0.41801100969314575,0.9246547222137451
1772789652194099200,20.93809912109375,9.998128890991211,0.41801100969314575,0.9342366456985474
1772789652214198800,20.95819873046875,9.998128890991211,0.41322004795074463,0.9390276074409485
1772789652234298400,20.97829833984375,10.00291919708252,0.43238386511802673,0.9438185691833496
1772789652254398000,20.99839794921875,10.01250171661377,0.4084290862083435,0.9438185691833496
1772789652274497500,21.01849755859375,9.993936538696289,0.427592933177948,0.9300445318222046
1772789652294597000,21.03859716796875,9.998727798461914,0.4228019714355469,0.9204626083374023
1772789652314696700,21.05869677734375,10.017292022705078,0.39884716272354126,0.9300445318222046
1772789652334796300,21.07879638671875,10.017292022705078,0.41801100969314575,0.9204626083374023
1772789652354896000,21.098895751953126,10.01250171661377,0.41322004795074463,0.919863760471344
1772789652374995500,21.118995361328125,10.007710456848145,0.39884716272354126,0.9246547222137451
1772789652395095000,21.139094970703123,10.017292022705078,0.41322004795074463,0.9102818369865417
1772789652435294200,21.179294189453124,10.00291919708252,0.41801100969314575,0.9390276074409485
1772789652455393800,21.199393798828126,10.01250171661377,0.427592933177948,0.9390276074409485
1772789652475493400,21.219493408203125,10.017292022705078,0.41801100969314575,0.9390276074409485
1772789652495592700,21.2395927734375,10.017292022705078,0.43238386511802673,0.919863760471344
1772789652515692300,21.2596923828125,10.026874542236328,0.427592933177948,0.9150727987289429
1772789652535791900,21.2797919921875,10.01250171661377,0.41322004795074463,0.9150727987289429
1772789652575991000,21.319990966796876,10.00291919708252,0.41801100969314575,0.944417417049408
1772789652596090600,21.340090576171875,10.01250171661377,0.427592933177948,0.9492083787918091
1772789652616190200,21.360190185546877,10.007710456848145,0.4228019714355469,0.9252535700798035
1772789652636289800,21.380289794921875,10.017292022705078,0.41801100969314575,0.9348354935646057
1772789652656389400,21.400389404296874,10.017292022705078,0.41322004795074463,0.9348354935646057
1772789652676488400,21.420488525390624,10.036456108093262,0.43238386511802673,0.9300445318222046
1772789652696587300,21.440587158203126,10.017292022705078,0.41801100969314575,0.9252535700798035
1772789652736785000,21.480784912109375,10.017292022705078,0.4228019714355469,0.9252535700798035
1772789652756883700,21.5008837890625,10.007710456848145,0.4084290862083435,0.9246547222137451
1772789652776982500,21.520982421875,10.022083282470703,0.4228019714355469,0.9342366456985474
1772789652797081000,21.5410810546875,10.017292022705078,0.4228019714355469,0.9150727987289429
1772789652817180000,21.561179931640623,10.01250171661377,0.4228019714355469,0.9246547222137451
1772789652837278700,21.58127880859375,10.017292022705078,0.4084290862083435,0.9486095309257507
1772789652877476400,21.621476318359374,10.00291919708252,0.43238386511802673,0.9294456839561462
1772789652897575200,21.6415751953125,10.026874542236328,0.4228019714355469,0.9294456839561462
1772789652917673700,21.661673828125,10.017292022705078,0.399446040391922,0.919863760471344
1772789652957871400,21.701871337890626,9.97956371307373,0.427592933177948,0.9396264553070068
1772789652977970200,21.72197021484375,10.017292022705078,0.41322004795074463,0.9396264553070068
1772789652998069000,21.742069091796875,10.00291919708252,0.4084290862083435,0.9252535700798035
1772789653018167800,21.762167724609377,10.00291919708252,0.427592933177948,0.9204626083374023
1772789653038266400,21.782266357421875,10.026874542236328,0.41801100969314575,0.9204626083374023
1772789653078464000,21.822464111328124,10.017292022705078,0.43238386511802673,0.9300445318222046
1772789653098562800,21.842562744140626,9.97956371307373,0.4036381244659424,0.9348354935646057
1772789653118661600,21.86266162109375,10.017292022705078,0.4084290862083435,0.9348354935646057
1772789653158859000,21.90285888671875,10.01250171661377,0.3940562307834625,0.9246547222137451
1772789653178958000,21.9229580078125,10.01250171661377,0.4228019714355469,0.919863760471344
1772789653199057200,21.94305712890625,10.017292022705078,0.43238386511802673,0.9246547222137451
1772789653219156200,21.96315625,10.01250171661377,0.427592933177948,0.9150727987289429
1772789653239255300,21.98325537109375,10.026874542236328,0.41322004795074463,0.9294456839561462
1772789653259354400,22.003354248046875,10.017292022705078,0.43717482686042786,0.9342366456985474
1772789653279453400,22.023453369140626,9.998128890991211,0.4228019714355469,0.9246547222137451
1772789653299552500,22.043552490234376,10.01250171661377,0.41801100969314575,0.919863760471344
1772789653319651600,22.063651611328126,10.022083282470703,0.41322004795074463,0.9246547222137451
1772789653339750700,22.083750732421876,10.035857200622559,0.41322004795074463,0.9246547222137451
1772789653359849700,22.103849609375,9.998727798461914,0.4036381244659424,0.9204626083374023
1772789653379948800,22.12394873046875,10.007710456848145,0.41322004795074463,0.9348354935646057
1772789653400047900,22.1440478515625,10.003518104553223,0.427592933177948,0.9252535700798035
1772789653420147000,22.16414697265625,10.003518104553223,0.41801100969314575,0.9204626083374023
1772789653440246000,22.18424609375,9.998727798461914,0.43238386511802673,0.9539993405342102
1772789653460345000,22.204344970703126,10.003518104553223,0.41322004795074463,0.9396264553070068
1772789653480444200,22.224444091796876,10.017292022705078,0.4084290862083435,0.9252535700798035
1772789653520642300,22.264642333984376,10.008309364318848,0.3940562307834625,0.9300445318222046
1772789653540741600,22.28474169921875,10.008309364318848,0.4036381244659424,0.9252535700798035
1772789653580939500,22.324939453125,10.031664848327637,0.42699405550956726,0.9258524775505066
1772789653601038800,22.345038818359374,10.013100624084473,0.4317850172519684,0.9354343414306641
1772789653621138000,22.365137939453124,10.008309364318848,0.417412132024765,0.9114795923233032
1772789653641237000,22.385237060546874,10.022083282470703,0.40303927659988403,0.9162705540657043
1772789653661336000,22.405336181640624,9.998727798461914,0.42220309376716614,0.9306434392929077
1772789653681435600,22.425435546875,10.013100624084473,0.42699405550956726,0.9162705540657043
1772789653701535200,22.44553515625,10.003518104553223,0.42220309376716614,0.9258524775505066
1772789653721635000,22.465635009765624,10.008309364318848,0.42699405550956726,0.9258524775505066
1772789653741734700,22.485734619140626,10.013100624084473,0.4317850172519684,0.9216603636741638
1772789653761834200,22.505834228515624,10.003518104553223,0.42699405550956726,0.9210615158081055
1772789653781934000,22.52593408203125,10.013100624084473,0.4317850172519684,0.9210615158081055
1772789653802033700,22.54603369140625,10.003518104553223,0.40783020853996277,0.9306434392929077
1772789653822133500,22.566133544921875,10.031664848327637,0.40303927659988403,0.9210615158081055
1772789653842233000,22.586233154296874,9.998727798461914,0.3982483148574829,0.9306434392929077
1772789653882432500,22.6264326171875,9.989145278930664,0.42699405550956726,0.9306434392929077
1772789653902532400,22.646532470703125,10.026874542236328,0.42220309376716614,0.9258524775505066
1772789653942731800,22.686731689453126,10.031664848327637,0.3982483148574829,0.9498072266578674
1772789653962831400,22.706831298828124,9.993936538696289,0.39884716272354126,0.9300445318222046
1772789653982931200,22.72693115234375,10.003518104553223,0.4036381244659424,0.9300445318222046
1772789654003030800,22.74703076171875,10.01250171661377,0.41801100969314575,0.9300445318222046
1772789654023130600,22.767130615234375,10.01250171661377,0.4084290862083435,0.9156716465950012
1772789654043230200,22.787230224609374,10.031664848327637,0.41322004795074463,0.9348354935646057
1772789654083429600,22.8274296875,10.003518104553223,0.41801100969314575,0.9396264553070068
1772789654103529200,22.847529296875,10.003518104553223,0.427592933177948,0.9348354935646057
1772789654123629000,22.867629150390623,9.993936538696289,0.41322004795074463,0.944417417049408
1772789654143728600,22.887728759765626,10.01250171661377,0.41322004795074463,0.9396264553070068
1772789654163828500,22.907828369140624,10.022083282470703,0.4228019714355469,0.9156716465950012
1772789654183928000,22.927927978515626,10.017292022705078,0.4084290862083435,0.9204626083374023
1772789654204028000,22.94802783203125,10.01250171661377,0.41322004795074463,0.9348354935646057
1772789654224127700,22.968127685546875,10.01250171661377,0.43238386511802673,0.9300445318222046
1772789654244227600,22.9882275390625,10.026874542236328,0.41322004795074463,0.9492083787918091
1772789654264327400,23.008327392578124,10.007710456848145,0.41322004795074463,0.9396264553070068
1772789654284427300,23.02842724609375,10.01250171661377,0.41801100969314575,0.9342366456985474
1772789654304526800,23.04852685546875,10.017292022705078,0.43238386511802673,0.9486095309257507
1772789654324626700,23.068626708984375,10.026874542236328,0.41322004795074463,0.9294456839561462
1772789654344726500,23.0887265625,10.01250171661377,0.41322004795074463,0.919863760471344
1772789654364826400,23.108826416015624,10.00291919708252,0.4084290862083435,0.9300445318222046
1772789654384926200,23.12892626953125,10.026874542236328,0.4084290862083435,0.9348354935646057
1772789654405025800,23.14902587890625,10.00291919708252,0.43717482686042786,0.9300445318222046
1772789654425125600,23.169125732421875,9.993936538696289,0.427592933177948,0.9156716465950012
1772789654445225500,23.1892255859375,10.007710456848145,0.4084290862083435,0.9252535700798035
1772789654465325300,23.2093251953125,10.017292022705078,0.4084290862083435,0.9396264553070068
1772789654485425200,23.229425048828126,10.01250171661377,0.4084290862083435,0.944417417049408
1772789654505524700,23.249524658203125,10.022083282470703,0.41322004795074463,0.9300445318222046
1772789654525624600,23.26962451171875,10.017292022705078,0.39884716272354126,0.9204626083374023
1772789654545724400,23.289724365234374,10.017292022705078,0.41322004795074463,0.9348354935646057
1772789654565824300,23.30982421875,10.003518104553223,0.4084290862083435,0.9204626083374023
1772789654585924000,23.329924072265626,10.022083282470703,0.4036381244659424,0.9204626083374023
1772789654606023700,23.350023681640625,9.998727798461914,0.4084290862083435,0.9204626083374023
1772789654626123500,23.37012353515625,10.003518104553223,0.4084290862083435,0.9300445318222046
1772789654646223400,23.390223388671874,10.026874542236328,0.4036381244659424,0.9396264553070068
1772789654666323200,23.4103232421875,10.026874542236328,0.4084290862083435,0.9348354935646057
1772789654686423300,23.43042333984375,10.003518104553223,0.4126211702823639,0.9348354935646057
1772789654706523400,23.4505234375,9.998727798461914,0.40303927659988403,0.9396264553070068
1772789654746723600,23.4907236328125,9.993936538696289,0.4126211702823639,0.9162705540657043
1772789654766823700,23.51082373046875,10.017890930175781,0.417412132024765,0.9258524775505066
1772789654786924000,23.530924072265623,10.041247367858887,0.38866639137268066,0.9450162649154663
1772789654807024000,23.551024169921874,10.026874542236328,0.4126211702823639,0.9306434392929077
1772789654827124200,23.571124267578124,10.008309364318848,0.4365759789943695,0.9306434392929077
1772789654847224300,23.591224365234375,9.97956371307373,0.4126211702823639,0.9402253031730652
1772789654867324400,23.611324462890625,9.998727798461914,0.42699405550956726,0.9402253031730652
1772789654887424500,23.631424560546876,10.026874542236328,0.4317850172519684,0.9258524775505066
1772789654907524900,23.65152490234375,10.022682189941406,0.42220309376716614,0.9354343414306641
1772789654927625000,23.671625,10.031664848327637,0.42220309376716614,0.9312422871589661
1772789654947725000,23.69172509765625,10.007710456848145,0.41801100969314575,0.944417417049408
1772789654967825200,23.7118251953125,10.022083282470703,0.427592933177948,0.9348354935646057
1772789654987925200,23.73192529296875,10.026874542236328,0.4228019714355469,0.9396264553070068
1772789655028125400,23.77212548828125,10.00291919708252,0.4228019714355469,0.9252535700798035
1772789655048225800,23.792225830078124,9.998128890991211,0.4084290862083435,0.9294456839561462
1772789655068326000,23.812325927734374,9.998128890991211,0.4084290862083435,0.9246547222137451
1772789655088426000,23.832426025390625,10.007710456848145,0.4084290862083435,0.9294456839561462
1772789655128626200,23.872626220703125,10.00291919708252,0.43717482686042786,0.9294456839561462
1772789655148726300,23.892726318359376,10.01250171661377,0.42699405550956726,0.9396264553070068
1772789655168826400,23.912826416015626,10.008309364318848,0.42699405550956726,0.9204626083374023
1772789655188925700,23.93292578125,9.998727798461914,0.41322004795074463,0.9348354935646057
1772789655209025300,23.953025390625,10.003518104553223,0.4036381244659424,0.9396264553070068
1772789655229124600,23.97312451171875,10.003518104553223,0.417412132024765,0.9204626083374023
1772789655249224000,23.993223876953124,10.01250171661377,0.39884716272354126,0.9210615158081055
1772789655269323500,24.013323486328126,10.003518104553223,0.3892652690410614,0.9306434392929077
1772789655289422800,24.0334228515625,9.998727798461914,0.40783020853996277,0.9354343414306641
1772789655309522200,24.053522216796875,10.003518104553223,0.42220309376716614,0.9306434392929077
1772789655329621800,24.073621826171873,10.013100624084473,0.42699405550956726,0.9354343414306641
1772789655349721000,24.09372119140625,10.017292022705078,0.4228019714355469,0.9492083787918091
1772789655369820700,24.113820556640626,9.989145278930664,0.41322004795074463,0.9348354935646057
1772789655389920000,24.133919921875,10.007710456848145,0.4228019714355469,0.9252535700798035
1772789655410019600,24.15401953125,10.003518104553223,0.4365759789943695,0.9252535700798035
1772789655430119000,24.174118896484377,10.022083282470703,0.4036381244659424,0.9204626083374023
1772789655450218200,24.19421826171875,10.01250171661377,0.41801100969314575,0.9300445318222046
1772789655470317800,24.21431787109375,9.989145278930664,0.427592933177948,0.9492083787918091
1772789655490417200,24.234417236328124,10.01250171661377,0.41322004795074463,0.9348354935646057
1772789655510516700,24.254516845703126,10.026874542236328,0.41322004795074463,0.9348354935646057
1772789655530616000,24.274615966796876,10.017292022705078,0.4228019714355469,0.9348354935646057
1772789655550715400,24.29471533203125,9.998727798461914,0.427592933177948,0.944417417049408
1772789655570815000,24.31481494140625,9.989145278930664,0.4228019714355469,0.9396264553070068
1772789655590914300,24.334914306640623,9.989145278930664,0.4036381244659424,0.9396264553070068
1772789655631113200,24.37511328125,9.993936538696289,0.41801100969314575,0.9396264553070068
1772789655651212500,24.395212646484374,9.989145278930664,0.3892652690410614,0.9438185691833496
1772789655691410200,24.43541015625,10.017292022705078,0.39884716272354126,0.9438185691833496
1772789655711508500,24.455508544921877,10.017292022705078,0.41801100969314575,0.9581913948059082
1772789655751705300,24.495705322265625,10.007710456848145,0.3892652690410614,0.9396264553070068
1772789655771803600,24.5158037109375,9.993936538696289,0.41801100969314575,0.9396264553070068
1772789655791902000,24.53590185546875,10.00291919708252,0.4084290862083435,0.9252535700798035
1772789655832098800,24.576098876953125,10.003518104553223,0.4036381244659424,0.9252535700798035
1772789655852197000,24.596197021484375,10.01250171661377,0.3844743072986603,0.9156716465950012
1772789655872295400,24.61629541015625,10.017292022705078,0.41322004795074463,0.9204626083374023
1772789655912492300,24.6564921875,10.007710456848145,0.4084290862083435,0.9300445318222046
1772789655952689200,24.696689208984374,10.00291919708252,0.441965788602829,0.9342366456985474
1772789655992885800,24.7368857421875,10.026874542236328,0.39884716272354126,0.9486095309257507
1772789656033082600,24.77708251953125,10.01250171661377,0.41801100969314575,0.9294456839561462
1772789656053181000,24.797180908203124,10.017292022705078,0.38986414670944214,0.9246547222137451
1772789656073279500,24.817279541015626,10.01250171661377,0.399446040391922,0.919863760471344
1772789656093377800,24.837377685546876,10.017292022705078,0.43238386511802673,0.919863760471344
1772789656113476000,24.85747607421875,10.017292022705078,0.41381892561912537,0.9336377382278442
1772789656133574700,24.87757470703125,10.00291919708252,0.427592933177948,0.9432196617126465
1772789656153673000,24.8976728515625,10.036456108093262,0.41801100969314575,0.9390276074409485
1772789656173771500,24.917771484375,10.017292022705078,0.427592933177948,0.9348354935646057
1772789656193870000,24.9378701171875,10.01250171661377,0.4084290862083435,0.9252535700798035
1772789656213969000,24.957968994140625,10.00291919708252,0.41322004795074463,0.9300445318222046
1772789656234067500,24.9780673828125,10.022083282470703,0.41322004795074463,0.9396264553070068
1772789656274264800,25.018264892578124,9.97956371307373,0.41801100969314575,0.9396264553070068
1772789656294363600,25.03836376953125,10.01250171661377,0.441965788602829,0.944417417049408
1772789656314462500,25.05846240234375,10.022083282470703,0.43717482686042786,0.9492083787918091
1772789656334561000,25.07856103515625,10.007710456848145,0.4084290862083435,0.9348354935646057
1772789656354659800,25.098659912109376,10.026874542236328,0.40303927659988403,0.9402253031730652
1772789656374758400,25.11875830078125,10.008309364318848,0.3982483148574829,0.9402253031730652
1772789656394857200,25.138857177734376,10.008309364318848,0.40783020853996277,0.9210615158081055
1772789656435054600,25.1790546875,10.022083282470703,0.4126211702823639,0.9354343414306641
1772789656455153400,25.1991533203125,10.017890930175781,0.40303927659988403,0.9354343414306641
1772789656475252000,25.219251953125,10.022682189941406,0.42699405550956726,0.9450162649154663
1772789656515449600,25.25944970703125,10.017890930175781,0.40303927659988403,0.9216603636741638
1772789656535548200,25.279548095703124,10.017890930175781,0.4126211702823639,0.9264513254165649
1772789656555647000,25.29964697265625,10.003518104553223,0.427592933177948,0.9300445318222046
1772789656595844400,25.33984423828125,10.003518104553223,0.41322004795074463,0.9300445318222046
1772789656615943000,25.35994287109375,9.989145278930664,0.427592933177948,0.9300445318222046
1772789656636041700,25.380041748046875,10.007710456848145,0.41801100969314575,0.9300445318222046
1772789656676240000,25.420239990234375,10.026874542236328,0.4228019714355469,0.9300445318222046
1772789656696340000,25.440340087890625,9.998727798461914,0.4228019714355469,0.9348354935646057
1772789656716440000,25.460440185546876,10.026874542236328,0.4036381244659424,0.944417417049408
1772789656736540400,25.48054052734375,9.993936538696289,0.3892652690410614,0.9348354935646057
1772789656756640500,25.500640625,10.003518104553223,0.41322004795074463,0.9348354935646057
1772789656776740600,25.52074072265625,10.022083282470703,0.41322004795074463,0.9492083787918091
1772789656796840700,25.5408408203125,10.007710456848145,0.41801100969314575,0.9396264553070068
1772789656816940800,25.56094091796875,10.031664848327637,0.41801100969314575,0.9348354935646057
1772789656857141200,25.601141357421874,10.022083282470703,0.41801100969314575,0.9300445318222046
1772789656877241300,25.621241455078124,10.008309364318848,0.4228019714355469,0.9252535700798035
1772789656897341400,25.641341552734374,9.97956371307373,0.41322004795074463,0.9396264553070068
1772789656937542000,25.6815419921875,10.008309364318848,0.4228019714355469,0.9348354935646057
1772789656957642000,25.70164208984375,9.993936538696289,0.4126211702823639,0.9306434392929077
1772789656977742000,25.7217421875,10.008309364318848,0.40783020853996277,0.9450162649154663
1772789656997842200,25.74184228515625,10.003518104553223,0.4126211702823639,0.9258524775505066
1772789657017942300,25.7619423828125,9.993936538696289,0.42220309376716614,0.9306434392929077
1772789657058142700,25.802142822265626,9.998727798461914,0.40783020853996277,0.9210615158081055
1772789657078242800,25.822242919921877,10.008309364318848,0.40303927659988403,0.9354343414306641
1772789657098343000,25.842343017578123,9.993936538696289,0.3934573531150818,0.9354343414306641
1772789657138543000,25.882543212890624,9.984354972839355,0.3982483148574829,0.9408242106437683
1772789657158643500,25.9026435546875,9.993936538696289,0.40303927659988403,0.9402253031730652
1772789657178743000,25.922742919921873,10.013100624084473,0.4126211702823639,0.9498072266578674
1772789657198842400,25.94284228515625,9.993936538696289,0.3982483148574829,0.9258524775505066
1772789657218941700,25.962941650390626,10.013100624084473,0.3982483148574829,0.9354343414306641
1772789657239041000,25.983041015625,10.003518104553223,0.417412132024765,0.9402253031730652
1772789657279239700,26.02323974609375,10.026874542236328,0.4126211702823639,0.9210615158081055
1772789657299339000,26.043339111328127,10.008309364318848,0.4126211702823639,0.9210615158081055
1772789657319438300,26.063438232421873,10.017292022705078,0.4126211702823639,0.9162705540657043
1772789657339537700,26.08353759765625,10.003518104553223,0.3844743072986603,0.9306434392929077
1772789657359637000,26.103636962890626,10.022083282470703,0.40303927659988403,0.9402253031730652
1772789657379736300,26.123736328125,9.993936538696289,0.417412132024765,0.9402253031730652
1772789657399835600,26.143835693359375,10.003518104553223,0.4126211702823639,0.9354343414306641
1772789657419934700,26.163934814453125,10.022083282470703,0.3934573531150818,0.9258524775505066
1772789657440034000,26.184033935546875,9.998727798461914,0.40783020853996277,0.9450162649154663
1772789657460133600,26.204133544921874,10.017292022705078,0.42220309376716614,0.9402253031730652
1772789657480233000,26.22423291015625,10.008309364318848,0.4317850172519684,0.9258524775505066
1772789657500332300,26.244332275390626,10.017292022705078,0.417412132024765,0.9258524775505066
1772789657540531000,26.284531005859375,10.017292022705078,0.4126211702823639,0.9354343414306641
1772789657580729600,26.3247294921875,10.013100624084473,0.3934573531150818,0.9354343414306641
1772789657600829000,26.344828857421874,10.022083282470703,0.42220309376716614,0.9450162649154663
1772789657620928300,26.36492822265625,10.026874542236328,0.38866639137268066,0.9498072266578674
1772789657641027300,26.38502734375,9.998727798461914,0.3982483148574829,0.9210615158081055
1772789657661126700,26.405126708984376,10.003518104553223,0.38387542963027954,0.9210615158081055
1772789657681226200,26.425226318359375,10.003518104553223,0.38866639137268066,0.9354343414306641
1772789657701325800,26.445325927734373,10.041247367858887,0.40303927659988403,0.9306434392929077
1772789657721425400,26.46542529296875,10.031664848327637,0.42220309376716614,0.9354343414306641
1772789657741525000,26.48552490234375,10.022083282470703,0.42699405550956726,0.9258524775505066
1772789657761624600,26.50562451171875,10.017292022705078,0.4228019714355469,0.9300445318222046
1772789657781724200,26.52572412109375,10.017292022705078,0.41801100969314575,0.9492083787918091
1772789657801823700,26.54582373046875,10.031664848327637,0.4036381244659424,0.9396264553070068
1772789657821923300,26.56592333984375,10.003518104553223,0.3940562307834625,0.9252535700798035
1772789657842023000,26.58602294921875,10.007710456848145,0.41322004795074463,0.9348354935646057
1772789657862122500,26.60612255859375,10.007710456848145,0.4084290862083435,0.9252535700798035
1772789657882222000,26.62622216796875,9.993936538696289,0.4228019714355469,0.9348354935646057
1772789657902321700,26.64632177734375,10.017292022705078,0.41322004795074463,0.9396264553070068
1772789657922421200,26.666421142578123,10.017292022705078,0.4228019714355469,0.9396264553070068
1772789657942520800,26.686520751953125,10.022083282470703,0.427592933177948,0.9300445318222046
1772789657962620400,26.706620361328124,10.013100624084473,0.40783020853996277,0.9306434392929077
1772789657982720000,26.726719970703126,10.008309364318848,0.42220309376716614,0.9354343414306641
1772789658002819600,26.746819580078125,10.013100624084473,0.40783020853996277,0.9258524775505066
1772789658022919200,26.766919189453127,10.017292022705078,0.417412132024765,0.9306434392929077
1772789658043018800,26.787018798828125,10.031664848327637,0.4317850172519684,0.9450162649154663
1772789658063118300,26.807118408203124,10.013100624084473,0.4126211702823639,0.9306434392929077
1772789658083218000,26.827218017578126,10.008309364318848,0.417412132024765,0.9258524775505066
1772789658103317500,26.8473173828125,10.008309364318848,0.40303927659988403,0.9354343414306641
1772789658143516700,26.8875166015625,10.031664848327637,0.42220309376716614,0.9306434392929077
1772789658163616300,26.9076162109375,10.026874542236328,0.4036381244659424,0.9252535700798035
1772789658183715600,26.927715576171874,10.007710456848145,0.4084290862083435,0.9156716465950012
1772789658223914000,26.9679140625,10.022083282470703,0.4036381244659424,0.9348354935646057
1772789658264112400,27.0081123046875,10.022083282470703,0.43717482686042786,0.9539993405342102
1772789658304311000,27.04831103515625,10.026874542236328,0.4036381244659424,0.9300445318222046
1772789658324410000,27.06841015625,10.017292022705078,0.41801100969314575,0.9300445318222046
1772789658344509400,27.088509521484376,9.989145278930664,0.4036381244659424,0.9396264553070068
1772789658364608800,27.10860888671875,9.989145278930664,0.3982483148574829,0.9306434392929077
1772789658384707800,27.128707763671876,10.017890930175781,0.4126211702823639,0.9402253031730652
1772789658404807200,27.14880712890625,10.017890930175781,0.42699405550956726,0.9450162649154663
1772789658424906500,27.168906494140625,10.022682189941406,0.417412132024765,0.9450162649154663
1772789658445005600,27.189005615234375,10.017890930175781,0.417412132024765,0.9258524775505066
1772789658465105000,27.20910498046875,10.031664848327637,0.417412132024765,0.9306434392929077
1772789658485204200,27.229204345703124,10.026874542236328,0.42699405550956726,0.9264513254165649
1772789658505303300,27.24930322265625,10.017890930175781,0.4126211702823639,0.9264513254165649
1772789658525402600,27.269402587890625,10.017890930175781,0.3934573531150818,0.9216603636741638
1772789658545502000,27.289501953125,10.017890930175781,0.44615787267684937,0.9120784401893616
1772789658565601000,27.30960107421875,10.022083282470703,0.3982483148574829,0.9258524775505066
1772789658585700400,27.329700439453124,10.022083282470703,0.4126211702823639,0.9258524775505066
1772789658625898800,27.369898681640624,10.008309364318848,0.42220309376716614,0.9450162649154663
1772789658666097400,27.410097412109376,10.013100624084473,0.417412132024765,0.9354343414306641
1772789658706295600,27.450295654296873,10.022083282470703,0.42699405550956726,0.9354343414306641
1772789658746493700,27.49049365234375,10.017292022705078,0.41322004795074463,0.9300445318222046
1772789658766592800,27.5105927734375,10.01250171661377,0.41801100969314575,0.9156716465950012
1772789658806791000,27.550791015625,10.01250171661377,0.4036381244659424,0.944417417049408
1772789658846988800,27.59098876953125,10.022083282470703,0.4228019714355469,0.9300445318222046
1772789658887187200,27.631187255859373,9.993936538696289,0.4228019714355469,0.9396264553070068
1772789658907286300,27.651286376953124,10.017292022705078,0.43238386511802673,0.9156716465950012
1772789658947484200,27.691484130859376,10.003518104553223,0.42699405550956726,0.9498072266578674
1772789658967583200,27.711583251953126,10.003518104553223,0.42699405550956726,0.9498072266578674
1772789658987682300,27.731682373046876,10.026874542236328,0.4317850172519684,0.9402253031730652
1772789659007781400,27.751781494140626,10.017890930175781,0.42220309376716614,0.9306434392929077
1772789659027880700,27.771880615234377,10.017890930175781,0.42699405550956726,0.9402253031730652
1772789659047979500,27.7919794921875,10.013100624084473,0.40783020853996277,0.9162705540657043
1772789659068078600,27.81207861328125,10.017890930175781,0.3982483148574829,0.9168694019317627
1772789659088177700,27.832177734375,10.022682189941406,0.40783020853996277,0.9264513254165649
1772789659108276700,27.85227685546875,10.008309364318848,0.417412132024765,0.9312422871589661
1772789659128375800,27.872375732421876,10.008309364318848,0.4317850172519684,0.9360332489013672
1772789659148475000,27.892474853515626,10.003518104553223,0.4317850172519684,0.9450162649154663
1772789659168574000,27.912573974609376,10.017292022705078,0.4126211702823639,0.9450162649154663
1772789659208771800,27.952771728515625,10.026874542236328,0.42699405550956726,0.9450162649154663
1772789659228871000,27.972870849609375,10.041247367858887,0.417412132024765,0.9306434392929077
1772789659248970000,27.992969970703125,10.022083282470703,0.417412132024765,0.9258524775505066
1772789659269068800,28.01306884765625,9.993936538696289,0.40303927659988403,0.9306434392929077
1772789659289168000,28.03316796875,10.017292022705078,0.40783020853996277,0.9354343414306641
1772789659309267000,28.053266845703124,9.998727798461914,0.4126211702823639,0.9210615158081055
1772789659329365800,28.07336572265625,9.998727798461914,0.417412132024765,0.9348354935646057
1772789659369564000,28.11356396484375,10.022083282470703,0.40783020853996277,0.9210615158081055
1772789659389662700,28.133662841796873,10.017890930175781,0.40783020853996277,0.9402253031730652
1772789659409761800,28.15376171875,10.017890930175781,0.42699405550956726,0.9306434392929077
1772789659429860600,28.173860595703125,10.008309364318848,0.40783020853996277,0.9258524775505066
1772789659449959700,28.193959716796876,10.013100624084473,0.417412132024765,0.9210615158081055
1772789659470058800,28.214058837890626,10.031664848327637,0.40783020853996277,0.9402253031730652
1772789659490157800,28.23415771484375,10.026874542236328,0.42220309376716614,0.9498072266578674
1772789659510256600,28.254256591796874,10.017890930175781,0.4317850172519684,0.9306434392929077
1772789659530355700,28.274355712890625,9.998727798461914,0.42220309376716614,0.9312422871589661
1772789659550454500,28.29445458984375,10.003518104553223,0.42220309376716614,0.9450162649154663
1772789659570553600,28.3145537109375,10.008309364318848,0.42699405550956726,0.9354343414306641
1772789659610751500,28.35475146484375,10.017890930175781,0.3982483148574829,0.9306434392929077
1772789659630850600,28.3748505859375,10.017890930175781,0.417412132024765,0.9258524775505066
1772789659650949600,28.39494970703125,10.017890930175781,0.4317850172519684,0.9354343414306641
1772789659671049000,28.415049072265624,9.993936538696289,0.4317850172519684,0.9593891501426697
1772789659691149000,28.435149169921875,10.013100624084473,0.4365759789943695,0.9450162649154663
1772789659711249200,28.455249267578125,10.022682189941406,0.417412132024765,0.9264513254165649
1772789659751449300,28.495449462890626,10.008309364318848,0.4317850172519684,0.9402253031730652
1772789659771549700,28.5155498046875,10.008309364318848,0.42220309376716614,0.9402253031730652
1772789659791649800,28.53564990234375,10.013100624084473,0.4126211702823639,0.9402253031730652
1772789659831850000,28.57585009765625,10.013100624084473,0.417412132024765,0.9402253031730652
1772789659872050400,28.616050537109373,10.022682189941406,0.40783020853996277,0.9354343414306641
