time,seconds_elapsed,z,y,x
1772790436116203800,0.063203857421875,0.8696201032936572,0.47662791667878623,0.6980017000027
1772790436136237800,0.08323779296875,0.27578210372924805,0.5247510193347931,1.0345479959700257
1772790436156270800,0.103270751953125,-0.8686071268588303,0.9556395136237144,1.2912205447554588
1772790436176303900,0.123303955078125,-1.4979612609624862,1.30442255615592,1.244843116723001
1772790436196336600,0.143336669921875,-1.2556155628889798,1.30350836392045,0.9146837453138082
1772790436216370000,0.163369873046875,-0.6965712288081646,1.2277630948454141,0.628985812247917
1772790436236402700,0.183402587890625,-0.13457389014065266,1.0539181015461683,0.7078623650860041
1772790436256436000,0.20343603515625,0.4298468762814998,1.0276111093789337,0.6801056125018745
1772790436276470000,0.223469970703125,1.1029437059998513,1.0050848047941923,0.598971343864873
1772790436296502800,0.243502685546875,1.7810592406630514,0.957859527760744,0.5566457485064864
1772790436316536000,0.2635361328125,2.5158698914945123,0.8179355087637901,0.6557680937767029
1772790436336568800,0.28356884765625,3.3109342277586458,0.642958881086111,0.6829135095294565
1772790436356601900,0.303601806640625,3.8305461306393145,0.8139841407895088,0.5402351503230631
1772790436376635000,0.323634765625,4.264233315736055,1.1211807889580725,0.38832419480383396
1772790436396668000,0.34366796875,4.979201786500215,1.6511878291249273,-0.23370681160381063
1772790436416701700,0.36370166015625,5.81419247496128,2.527218968504667,-1.0353446262404322
1772790436436735000,0.38373486328125,6.535283812519908,3.521364446133375,-1.5070102443367241
1772790436456767700,0.403767822265625,6.745798786568641,4.557826970487833,-2.156374316290021
1772790436476801000,0.423801025390625,6.7607941111266605,5.387670359188318,-2.2071705836780366
1772790436496833800,0.443833740234375,7.672997803127765,4.578430782577395,-1.980496355858445
1772790436516866800,0.46386669921875,8.421404433113336,6.3876932044178245,-1.9471771468415855
1772790436536899800,0.48389990234375,8.519886434653401,8.088290668877958,-1.883430066335201
1772790436556934000,0.503933837890625,8.116957375913858,9.85592285721302,-1.1048533390134572
1772790436576966700,0.523966552734375,6.450582499051094,11.18360120127201,0.21666940502524373
1772790436597000000,0.544,5.390918547329306,12.082817985928058,1.236172611272335
1772790436617032700,0.56403271484375,4.586120460297167,13.74846922469139,2.7410452590584753
1772790436637066000,0.58406591796875,4.753317393884062,16.08146209064722,3.163333098262548
1772790436657098800,0.6040986328125,5.082355871504545,19.24833154634237,3.519740059801936
1772790436677131800,0.6241318359375,3.8180239181965585,21.706989604318142,4.666787695944309
1772790436697166000,0.644166015625,3.2377532562136646,24.564485652327537,8.452994334119557
1772790436717198800,0.66419873046875,2.1415464572533964,23.540838185882567,12.49925008484125
1772790436737231600,0.684231689453125,1.2756351453498005,20.15387051975727,15.997627623140811
1772790436757265000,0.704264892578125,0.6121329501897096,13.509750484943389,17.96256108368635
1772790436777297700,0.724297607421875,-0.8502946405768393,7.420046539887785,17.713149100488423
1772790436797331000,0.7443310546875,-3.87870898078382,2.8285177908062935,17.0767088075161
1772790436817363700,0.76436376953125,-5.149330389624834,-0.4494990867346525,14.639592719262838
1772790436837396700,0.784396728515625,-5.2486044183254235,-0.9829840321451425,12.667136461997032
1772790436857431300,0.804431396484375,-4.693590362673998,-0.8464601769804954,10.469295578330755
1772790436877464000,0.824464111328125,-3.7967221869707104,-0.3191138804554939,8.573286600929498
1772790436897496800,0.844496826171875,-2.5845304630056023,0.45153673004209993,6.689490623891353
1772790436917530000,0.864530029296875,-1.7578139741539953,0.7541285147637128,4.450702812808752
1772790436937563000,0.88456298828125,-0.8945639904141426,-0.14710019423663614,2.8205665395408865
1772790436957596200,0.90459619140625,0.03231266232281923,-1.0435820009708403,1.812933219307661
1772790436977629000,0.92462890625,0.19367782101631165,-2.3610142608255145,1.4685843598306179
1772790436997663000,0.9446630859375,0.3833291629955172,-3.3969933855772014,1.7771546344399451
1772790437017696300,0.9646962890625,0.06958031670451163,-3.9308325512528417,2.366056054385006
1772790437037729000,0.98472900390625,-0.8544970607027411,-4.330830817237496,2.6643901816621423
1772790437057762000,1.004761962890625,-1.6572727019965647,-4.422769680744409,2.8706887070596214
1772790437077795000,1.024795166015625,-2.459062547123432,-4.108099920216202,2.60800573887825
1772790437097828000,1.044828125,-2.789407431167364,-3.444030446562171,1.901011607994139
1772790437117861000,1.064861083984375,-2.7448344222083687,-2.98018660813272,1.2711547850653528
1772790437137894100,1.08489404296875,-2.5953753898859024,-2.490579382893443,1.1874188094973563
1772790437157928000,1.104927978515625,-2.1717983876541256,-1.9283552497327328,1.3945707368537783
1772790437177961200,1.124961181640625,-1.6636904600843787,-1.747128329488635,1.6162226064667105
1772790437197994000,1.144993896484375,-0.7203247371003031,-1.3662263936400412,1.7302514289677142
1772790437218027000,1.165027099609375,0.4573416169285774,-0.8414408875137567,2.165340882077813
1772790437238060000,1.18506005859375,1.5062623485788702,-0.6100590665251017,2.3865453001841903
1772790437258093000,1.205093017578125,2.5918682585477826,-0.6850543940156698,2.52047095554918
1772790437278126000,1.2251259765625,3.633040860289335,-1.1714601928651331,2.346192247007787
1772790437298160000,1.24516015625,4.802883096563816,-1.74366854442358,2.1270660964801906
1772790437318193000,1.26519287109375,5.556876586771011,-2.272707031819224,2.036108645226061
1772790437338226200,1.28522607421875,6.585363894462585,-1.4466186117380857,2.9349793929234145
1772790437358259000,1.305259033203125,6.381849739086627,-0.34713702889084813,3.476050263418257
1772790437378292000,1.3252919921875,5.48593316501975,0.05595394241213798,3.8237259292304513
1772790437398325000,1.345324951171875,4.355689948683977,0.04119067304432392,4.457375422440469
1772790437418358000,1.36535791015625,3.2466052557110783,-0.7989028915137052,4.819891806770861
1772790437438391000,1.38539111328125,2.630242120605707,-1.5201093798846006,5.120694077727198
1772790437458424000,1.405424072265625,2.047791776496172,-1.9124971708655356,4.846054422031343
1772790437478458000,1.4254580078125,1.5154177149370311,-1.85638949919641,4.1609497591331595
1772790437498491100,1.4454912109375,0.841339765226841,-1.4793530066043137,3.2737340856552124
1772790437518524200,1.465524169921875,0.14052052358537911,-1.0994868435442446,2.485335052499175
1772790437538557000,1.485556884765625,-0.5400502952754497,-0.6350123059958219,1.9729145224273203
1772790437558590200,1.505590087890625,-0.94618282623142,0.061274260652065274,1.6754583470284938
1772790437578623000,1.525623046875,-1.2541910830438137,0.8828086706906556,1.4161013083994387
1772790437598656000,1.545656005859375,-1.6607304412350057,1.6490519861400126,1.093059440845251
1772790437618689000,1.56568896484375,-2.0379662557914853,2.2896482297480105,0.8341384555459022
1772790437638723000,1.58572314453125,-2.430380934779346,2.7062878339320418,0.4779717325031757
1772790437658756000,1.605756103515625,-2.667467689411342,2.8214935912579295,0.28508009342849255
1772790437678789000,1.6257890625,-2.764453607174754,2.389589197924733,0.18485037143826483
1772790437698822100,1.645822265625,-2.7152225432768464,1.929225602826476,0.3421399512559175
1772790437718855200,1.665855224609375,-2.691770648279786,1.3655045091062783,0.37933483266234397
1772790437738888000,1.685887939453125,-2.721228797954321,0.8259089718610048,0.23346739509105682
1772790437758921200,1.705921142578125,-2.6721269133940337,0.588342324757576,0.08049041777551173
1772790437778954000,1.7259541015625,-2.552851714672148,0.6410095005840063,-0.0740261901974678
1772790437798988000,1.745988037109375,-2.4193457460239527,0.9515127890825271,-0.3138561060577631
1772790437819021000,1.76602099609375,-2.2699200314491987,1.3902823920100926,-0.6660206077218055
1772790437839054000,1.78605419921875,-2.2174916328147054,1.8360022524669766,-1.1937632100880144
1772790437859086600,1.806086669921875,-2.175032839530706,2.167366250425577,-1.9217688570797442
1772790437879119600,1.82611962890625,-1.9706085835725067,2.379818914538622,-2.2975240776896477
1772790437899152600,1.846152587890625,-1.656873181284964,2.623276957768202,-2.563366386684775
1772790437919185700,1.866185546875,-1.4488812959730624,2.8891522922500967,-2.8662095158189533
1772790437939218400,1.886218505859375,-1.346282506763935,3.1864065153360364,-3.138738170710206
1772790437959252500,1.90625244140625,-1.2754971981838346,3.469101174932718,-3.3242396995335817
1772790437979285800,1.92628564453125,-1.2027581251874566,3.728808926695585,-3.668101067754626
1772790437999318500,1.946318603515625,-1.2026239774137735,4.029497508144378,-4.060291290336847
1772790438019351600,1.9663515625,-1.3231190733194351,3.982377152790129,-4.461625188839435
1772790438039384600,1.986384521484375,-0.5184340912729501,4.793707564200461,-3.5396617348462343
1772790438059417600,2.00641748046875,-0.28677725273519755,5.785787049210072,-3.0703982094556093
1772790438079450600,2.02645068359375,-0.5465501786887645,6.345069283699989,-2.696550868293643
1772790438099483400,2.0464833984375,-1.053752681851387,6.2415142166793345,-2.5110335573792457
1772790438119516700,2.0665166015625,-1.2227248084172606,5.5256812380403275,-2.2307979813724756
1772790438139550700,2.08655078125,-0.6203750010952354,4.848021630451083,-1.5583102234631776
1772790438159583500,2.10658349609375,0.31636516626924277,4.323898387625813,-0.6448018786042928
1772790438179616800,2.12661669921875,1.386054399051517,3.8554607916653154,0.15875439167320726
1772790438199649500,2.1466494140625,2.7078365246787666,3.217598356935382,0.7437152572989464
1772790438219682800,2.166682861328125,3.8418741648614403,1.8411095124781132,0.9239245249330997
1772790438239715600,2.186715576171875,4.208232611572742,-0.06795417680740357,0.789201581710577
1772790438259748600,2.20674853515625,4.439838888967037,-1.5426906295269727,1.577983476704359
1772790438279781600,2.22678173828125,4.197767331659794,-2.406608137264848,2.3163474361032246
1772790438299814700,2.246814697265625,3.5276959872424603,-2.773614818751812,3.2545991770744322
1772790438319848400,2.266848388671875,2.4819313815355297,-2.7667870185583827,4.283766868245602
1772790438339881700,2.2868818359375,1.5020480918847023,-2.4966823759436605,5.335698179888725
1772790438359914500,2.30691455078125,0.6323090383864939,-1.7470768915623425,5.8445455276489255
1772790438379947800,2.32694775390625,-0.449178330347687,-1.5312567968428135,5.350877044320106
1772790438399980500,2.34698046875,-1.0823498307824133,-1.3394418470889329,4.651936748293042
1772790438420013600,2.367013671875,-1.57610263139382,-1.2637637980312109,3.938821796441078
1772790438440046600,2.387046630859375,-2.0431430739074945,-1.409371707883477,3.3033480104133486
1772790438460079600,2.40707958984375,-2.3893492516890165,-1.1168775388062,2.4027663671448827
1772790438480112600,2.427112548828125,-2.584810448990762,-1.0300608406186103,1.2995546578586101
1772790438500146700,2.447146728515625,-2.5129423136100173,-0.9089677788197994,0.3500707442551851
1772790438520179500,2.467179443359375,-2.4140718972742556,-1.1808213109284638,-0.559757450786233
1772790438540212700,2.487212646484375,-1.924654349388182,-1.2824386878848075,-0.9075070586174726
1772790438560245500,2.50724560546875,-1.4678504925981164,-1.422695299836993,-1.1003747322946786
1772790438580278500,2.527278564453125,-0.9177579651273786,-1.4860072037965057,-1.5126397746562956
1772790438600311600,2.5473115234375,-0.21051789665818213,-1.4765022933483123,-1.725374762842059
1772790438620344600,2.567344482421875,0.412036640433222,-1.4356167407304048,-1.779801349556446
1772790438640377600,2.587377685546875,0.7553941507853568,-1.0586141504079103,-1.484699628329277
1772790438660411600,2.60741162109375,0.8235397585116326,-0.6343132178157568,-0.9892816709846257
1772790438680444700,2.627444580078125,0.8736332844577729,-0.11965455342829227,-0.3593517828196287
1772790438700477700,2.647477783203125,0.9051764237128198,0.359244815313816,0.04351999277472496
1772790438720510500,2.667510498046875,1.0463747004292905,0.39615678812563415,0.5608633662015199
1772790438740543500,2.68754345703125,1.5269919790051876,-0.0253536369651556,1.3595529072254895
1772790438760576500,2.707576416015625,2.7835470147013663,0.14248305583000181,2.8160622138589617
1772790438780609500,2.727609619140625,3.9300294181764124,0.9505454053550958,3.9257209073275323
1772790438800642600,2.747642578125,4.545381330412626,1.141909688732028,4.441774825465679
1772790438820675600,2.767675537109375,4.77760486292243,1.1185860962897538,4.9225692141741515
1772790438840708600,2.78770849609375,4.3892181242763995,0.25944647047817704,5.184380660218
1772790438860743200,2.8077431640625,3.7439445365071293,-1.1111603302031754,5.431144174733758
1772790438880776200,2.827776123046875,3.0151953776717186,-2.2000872012883423,5.803236196660995
1772790438900809200,2.847809326171875,2.223688295497745,-2.6915350859582423,5.832468136364221
1772790438920842200,2.86784228515625,1.3587924442470072,-2.749568757253885,5.058441327431797
1772790438940875300,2.887875244140625,0.722173287576437,-2.6998732907146215,3.755606917250156
1772790438960908300,2.907908203125,0.2614906896568835,-2.61276140897274,2.551315298885107
1772790438980941300,2.92794140625,0.17858751165121792,-2.1986825951874254,1.903087537485361
1772790439000974000,2.94797412109375,-0.12562076835632324,-1.6156412994474172,1.485257262212038
1772790439021007400,2.96800732421875,-0.5807039388336241,-0.8745300871670245,1.1184469800800085
1772790439041041200,2.988041259765625,-0.9947332143887877,-0.07767536035478115,0.8203472460806369
1772790439061074200,3.00807421875,-1.3454691445544362,0.8476046708405017,0.6944266179949045
1772790439081107200,3.028107177734375,-1.7005130010470746,1.526494112485647,0.5158575187832117
1772790439101140200,3.04814013671875,-2.1037036333322523,1.6665297751635313,0.2916998038291931
1772790439121173200,3.06817333984375,-2.164598831538856,1.6575982806891203,0.34777298870682716
1772790439141206300,3.088206298828125,-2.316569262160361,1.3356862939476966,0.6231032570153474
1772790439161239000,3.108239013671875,-2.452512687088549,1.1370394523471594,0.9974486108273267
1772790439181272300,3.128272216796875,-2.5913375126719473,0.9683306528925895,1.3219178808361292
1772790439201305000,3.14830517578125,-2.603714471425116,0.973165817964077,1.5574135668843985
1772790439221339100,3.168339111328125,-2.5916891025885938,1.1334627629041671,1.5402736315131187
1772790439241372200,3.1883720703125,-2.636225578929484,1.2382733829438686,1.2767770088613033
1772790439261405200,3.2084052734375,-2.5291858846634625,1.42937755407989,0.7811743425995111
1772790439281438200,3.228438232421875,-2.3404621789231896,1.8398463606745004,0.3634282384783029
1772790439301471200,3.24847119140625,-2.2831802027776837,2.2347744837880135,-0.1895616178691387
1772790439321504000,3.26850390625,-2.21719381891191,2.55402251201719,-0.8460118486911058
1772790439341537300,3.288537353515625,-2.018311414989829,3.0046871353998776,-1.5399492218643427
1772790439361570000,3.308570068359375,-1.6104408081948756,3.5684956151425835,-2.3452011901438237
1772790439381603300,3.328603271484375,-1.1631973914325238,4.023334017078578,-3.15999138661921
1772790439401636000,3.348635986328125,-0.6429451448217034,4.143807777935266,-3.9170769976228472
1772790439421670100,3.368670166015625,-0.2816784682914614,4.08317853718847,-4.453556448674202
1772790439441703200,3.388703125,-0.14393267011642455,3.8361023034617303,-4.963918877172469
1772790439461736200,3.408736083984375,-0.30784429842233657,3.4736055006146427,-5.377696662184595
1772790439481769000,3.42876904296875,-0.46436873908638954,3.218429547062516,-5.6699920938193795
1772790439501802200,3.44880224609375,-0.40731005030274386,2.9297905921086667,-5.7343193123012774
1772790439521835000,3.4688349609375,0.3039280017614364,3.164771314372122,-5.27197944869399
1772790439541868300,3.488868408203125,1.30835755751729,4.619499875068664,-4.508346023482084
1772790439561901000,3.508901123046875,1.2720228000715375,5.853521445786953,-4.394412770310044
1772790439581934300,3.528934326171875,0.43412908364534375,6.776105077505111,-4.2159418707758185
1772790439601968400,3.548968505859375,-0.5631554226614535,7.110402498567104,-3.6363545148819685
1772790439622001200,3.569001220703125,-1.1084791282951831,6.93172234019637,-2.58396610712111
1772790439642034200,3.5890341796875,-1.411694013351202,6.111482061621547,-1.1673673705935477
1772790439662067200,3.609067138671875,-1.3874493605412541,4.905088502541184,0.35792204227745533
1772790439682100200,3.629100341796875,-0.8830829575873911,3.386548563930392,1.6353683287024496
1772790439702133200,3.64913330078125,-0.0972505600489676,1.9138117605954408,2.559625446590781
1772790439722166300,3.669166259765625,0.645956017075479,0.49264089384675025,3.4973037715882063
1772790439742199300,3.68919921875,1.1882827328503132,-0.5551935038715601,4.658596790704131
1772790439762232000,3.709232177734375,1.3305693893253803,-1.1697253318965435,5.832995375108719
1772790439782265000,3.72926513671875,1.4888392123520373,-1.8891455213725565,6.842063696581125
1772790439802299100,3.749299072265625,1.7190988974429666,-2.3149451680898667,7.717944029313325
1772790439822332200,3.769332275390625,1.7919241874180734,-2.6285288869470356,7.891853320020437
1772790439842365200,3.789365234375,1.5951942853547632,-2.7425743683218955,7.367876792189478
1772790439862398200,3.809398193359375,1.1649519800148904,-2.408793080088496,6.669273765292763
1772790439882431200,3.82943115234375,0.21155483849048612,-1.8331074078083038,5.6526212723016735
1772790439902464300,3.84946435546875,-0.7097358308076858,-1.5750018305450677,4.473106075535714
1772790439922497300,3.869497314453125,-1.437598854458332,-1.5861843188166618,3.1352716636434197
1772790439942530000,3.889530029296875,-1.620883876276016,-1.9490864875942469,2.019291658198833
1772790439962563300,3.909563232421875,-1.4180198553718626,-2.3992548518925902,1.1937290155574678
1772790439982596000,3.92959619140625,-0.9348843103647232,-2.614419697573781,0.7242854574248194
1772790440002630100,3.949630126953125,-0.5473096187539398,-2.8001947826415297,0.4611883554846048
1772790440022663200,3.9696630859375,-0.1957129801057279,-2.7260388285845516,0.43226533560007807
1772790440042693000,3.989693115234375,-0.018794862971454857,-2.775307594144344,0.4613137354299426
1772790440062726100,4.00972607421875,0.053697834048420184,-2.8896535197705027,0.37468466876894235
1772790440082759200,4.02975927734375,0.1874012249648571,-2.8579437917768953,0.4407964325800538
1772790440102792200,4.049792236328125,0.45116205151081085,-2.325262563964724,0.9018921413451433
1772790440122825200,4.0698251953125,0.540149517866224,-1.5555881050229072,1.5418942184522748
1772790440142858200,4.089858154296875,0.7658322504304349,-0.814929312685132,2.4027871176719664
1772790440162891300,4.109891357421875,1.205930763874203,-0.2845721439063549,3.073594959670305
1772790440182924300,4.12992431640625,1.6858064303025602,-0.15930033511817454,3.0815485490232706
1772790440202957000,4.14995703125,2.097513692650944,-0.6362655209273099,2.6464988434016705
1772790440222990300,4.169990234375,2.5069886659026146,-1.3610726641386746,2.257673713338375
1772790440243024100,4.190024169921875,3.398247769552469,-0.9822697463959454,2.797954310238361
1772790440263057200,4.21005712890625,3.566632159358263,0.2672749721467495,3.1757360682398077
1772790440283090200,4.230090087890625,2.7224653540119528,1.1538532245039939,2.9665841992378232
1772790440303123200,4.250123291015625,1.3325237382635473,1.521652517673373,2.4697891083210703
1772790440323156200,4.27015625,0.2851028897821903,1.3592185607045888,2.2097943563103675
1772790440343189200,4.290189208984375,-0.48542701694518325,0.9335738122880458,2.1700825236469505
1772790440363222000,4.310221923828125,-1.0807754210725427,0.4279840050190687,2.2566432012468574
1772790440383255300,4.33025537109375,-1.5348782022103666,0.05065466696023941,2.1608178516954184
1772790440403288000,4.3502880859375,-1.8932491572991013,-0.1619640013694763,1.6445646115928887
1772790440423322000,4.370322021484375,-2.178483856767416,-0.32081951532959935,0.8817389956325292
1772790440443355100,4.390355224609375,-2.161228478322923,-0.24040099374651908,0.41798283548653126
1772790440463391000,4.410390869140625,-1.9812392831802368,0.1806131722599268,0.22973288473784922
1772790440483424300,4.43042431640625,-1.8020666651174424,0.5592489167422056,0.13354045543968676
1772790440503457000,4.45045703125,-1.5505822595596312,1.1500175918638706,0.30132220317721364
1772790440523490300,4.470490234375,-1.400884157784283,1.8143185361862182,0.4486398395568132
1772790440543523000,4.490523193359375,-1.543305254293978,1.973271080780029,0.2454629533112049
1772790440563556000,4.51055615234375,-1.683742483510077,1.8535130669772624,0.07428864052593707
1772790440583590100,4.530590087890625,-1.8293384106636046,1.6404302882671356,0.06134381875693798
1772790440603623200,4.550623046875,-2.1627619715005157,1.3577186775356531,0.20352643033564088
1772790440623656200,4.57065625,-2.453896542662382,1.1753747359603643,0.4815536826431751
1772790440643689200,4.590689208984375,-2.6779183562770483,1.0592810898840426,0.5331301406234502
1772790440663722200,4.61072216796875,-2.7985528606534005,0.9678390699833631,0.3503191660583019
1772790440683755300,4.63075537109375,-2.6824393408328295,1.0727163255184888,0.0002817395508289337
1772790440703788300,4.650788330078125,-2.4666952339589594,1.2856523892343044,-0.5516746820956469
1772790440723821000,4.670821044921875,-2.219322063112259,1.5796622235715387,-1.1216986753523348
1772790440743854300,4.690854248046875,-1.9794789955094456,1.8760136525988578,-1.7525176213115452
1772790440763887000,4.71088720703125,-1.7289201803639531,2.118070889119804,-2.418157120761275
1772790440783921200,4.730921142578125,-1.476689632613957,2.369413840380311,-2.815955246353149
1772790440803954200,4.7509541015625,-1.2655685093656182,2.682501007892191,-3.1297423788279293
1772790440823987200,4.7709873046875,-1.1949015664681792,2.959797900098562,-3.372715853410959
1772790440844020200,4.791020263671875,-1.1414490854829549,3.120787503477931,-3.527910506775975
1772790440864052700,4.811052734375,-1.2093562082782388,3.121084148336947,-3.5921459553211927
1772790440884086000,4.8310859375,-1.2782187321022151,2.9079110609948633,-3.5470705497980117
1772790440904118800,4.851118896484375,-1.2751543760955333,2.5664924097508193,-3.5477146929204464
1772790440924151800,4.87115185546875,-0.9053989804223179,2.538329268322885,-3.07338044013679
1772790440944184800,4.891184814453125,-0.18564999738335608,3.9526887014910574,-2.0875340042978525
1772790440964217900,4.9112177734375,-0.503823966640234,4.738407409521937,-1.8171663268327711
1772790440984251000,4.9312509765625,-1.3110522034287453,5.020087923640013,-1.879163056540489
1772790441004285000,4.951284912109375,-1.787416208474338,4.816318332198262,-1.7261416555613278
1772790441024317700,4.971317626953125,-1.697323265095055,4.234694794301689,-1.566622124734521
1772790441044351000,4.99135107421875,-1.0953647951781749,3.4700440087407824,-1.4736685312271118
1772790441064383700,5.0113837890625,-0.36210254283249377,2.638768541410565,-1.3438625861406326
1772790441084416800,5.031416748046875,0.442606989133358,2.036465495839715,-1.218852058637142
1772790441104449800,5.05144970703125,1.393525027193129,1.4550889184415339,-1.1836340302616357
1772790441124482800,5.07148291015625,2.319594162939489,0.6027478667289018,-0.9324187970340251
1772790441144515800,5.091515869140625,2.898202152407169,-0.4187894756942987,-0.3004740619152784
1772790441164548900,5.111548828125,3.3077284174546597,-0.9615934535920619,0.7827735944896936
1772790441184581600,5.13158154296875,3.0776912890732286,-1.0326157857984304,2.0282471180707216
1772790441204616000,5.151615966796875,2.347386132967472,-1.0441659383386372,3.218741097229719
1772790441224648700,5.171648681640625,1.5839980608187616,-0.9447890337854623,4.495032952922583
1772790441244681700,5.191681640625,0.9431072181783616,-1.1673755539000035,5.20683506861031
1772790441264714800,5.21171484375,0.6317914442531765,-1.6750339841365813,5.080624517667293
1772790441284747800,5.231747802734375,0.6602196663580835,-2.0019939019173383,4.585819139263034
1772790441304780800,5.25178076171875,0.6804474847421049,-1.9752730682522057,3.8853491494506596
1772790441324813800,5.271813720703125,0.6518146799758077,-1.8763222801566122,2.9560955384492873
1772790441344846800,5.291846923828125,0.3816225052081048,-1.723317830312252,2.0143150388300417
1772790441364880000,5.3118798828125,0.269064485912025,-1.4465987379938363,1.0886813718914985
1772790441384912600,5.33191259765625,0.06851166455969214,-1.3604980791211128,0.22413316503465175
1772790441404946700,5.35194677734375,-0.17315642651319502,-1.445217512768507,-0.541692801785469
1772790441424980000,5.37197998046875,-0.331359321783483,-1.5437579664975405,-0.9405670321762561
1772790441445012700,5.3920126953125,-0.4369489633716643,-1.5805115338772535,-1.148362225872278
1772790441465045800,5.412045654296875,-0.5103063143968581,-1.4675801512241362,-1.2760901956409214
1772790441485078800,5.432078857421875,-0.5358043282687663,-1.1499936264663935,-1.1988035423427819
1772790441505111800,5.45211181640625,-0.5157154799640178,-0.7971388044506311,-1.0392319890677928
1772790441525144800,5.472144775390625,-0.2243069141663611,-0.4292781364828348,-0.6106213765829801
1772790441545177600,5.492177490234375,0.11902516948357224,-0.18549860621392725,-0.09866437236964702
1772790441565211000,5.5122109375,0.3361899568103254,-0.13795944092571735,0.41258360679149625
1772790441585243600,5.53224365234375,0.42640725722163914,-0.3017553338974714,0.8817284742385149
1772790441605277000,5.55227685546875,0.5292576831042767,-0.8328373098194599,1.2069693131417036
1772790441625309700,5.572309814453125,1.1138451853729783,-1.3458476224780083,1.737902235981822
1772790441645343700,5.59234375,2.0226922604225575,-0.5747714800447226,2.7480834871321913
1772790441665377000,5.612376953125,2.192313790807873,-0.26030571765601634,3.1541175261497494
1772790441685409800,5.632409912109375,2.0668658948004244,-0.22459669089317322,3.333265302032232
1772790441705442800,5.65244287109375,1.8741538500763475,-0.48200084188878534,3.5185230852276086
1772790441725475800,5.672475830078125,1.693098194745928,-0.7746271129131317,3.6960716092199086
1772790441745508900,5.6925087890625,1.3934874716617167,-1.1191729562669992,3.881603533181548
1772790441765542000,5.7125419921875,1.0098689703308046,-1.1518512370318175,4.05484062371552
1772790441785575000,5.732574951171875,0.6372597926616669,-0.8518763568103312,3.754150873222947
1772790441805607700,5.752607666015625,0.25050138586983084,-0.3987696009725332,3.052050651860237
1772790441825641000,5.772640869140625,-0.15413739939704538,-0.13595920701920985,2.3323516454428432
1772790441845673700,5.792673828125,-0.3789969790101051,-0.10771569383144378,1.6976731014460325
1772790441865708300,5.812708251953125,-0.5417065380498767,-0.2632914554685354,1.0012783982485531
1772790441885741300,5.8327412109375,-0.6494283693611621,-0.4840495911121368,0.27393092290461063
1772790441905774300,5.8527744140625,-0.7443684605106711,-0.4179723140925169,-0.24025077162086964
1772790441925807400,5.872807373046875,-0.9048599051095545,-0.08325345274806022,-0.5292629438012838
1772790441945840400,5.89284033203125,-1.197942687729746,0.3363771499454975,-0.6725216601788997
1772790441965873200,5.912873046875,-1.5858344824656843,0.7950912242710589,-0.846155056554079
1772790441985906400,5.932906494140625,-1.8833748290166257,1.2650684508889913,-1.0395780260264873
1772790442005939200,5.952939208984375,-1.996589412525296,1.7295862430572508,-1.1196148548156022
1772790442025972500,5.972972412109375,-2.0184403020665047,2.0006237826079127,-1.0911229198247194
1772790442046005200,5.993005126953125,-1.972184454587102,2.0290011513084174,-1.0496610286235808
1772790442066039300,6.013039306640625,-1.9136381575942039,1.7417109806150197,-0.7236918754458427
1772790442086072300,6.033072265625,-1.8743992031395433,1.4134873265087604,-0.13774901304543016
1772790442106105300,6.053105224609375,-1.8851906462669372,1.0510516061991453,0.2986795797139406
1772790442126138000,6.07313818359375,-1.8417019254133105,0.7821031478822231,0.588030774590373
1772790442146171400,6.09317138671875,-1.7716800024211405,0.5553600926101208,0.6803396404534577
1772790442166204200,6.1132041015625,-1.7417817077636717,0.3631523441463709,0.6236223124533892
1772790442186237400,6.133237548828125,-1.7281196776360273,0.25815643066763877,0.3522054181963205
1772790442206270200,6.153270263671875,-1.593077000939846,0.45318625081479547,0.07320084528923035
1772790442226303200,6.17330322265625,-1.4832342319518328,0.7759253360301256,-0.2621411163896322
1772790442246336300,6.193336181640625,-1.4082301366329193,1.2088923901587725,-0.619569822192192
1772790442266369300,6.213369384765625,-1.5035370152682066,1.620081912243366,-1.025326213312149
1772790442286402300,6.23340234375,-1.547559404607117,1.9862267162039875,-1.4381576573848724
1772790442306436400,6.253436279296875,-1.5230550779476761,2.466096975804865,-1.779443037638068
1772790442326469400,6.273469482421875,-1.4531275552406906,2.9087144863322374,-2.009664582675695
1772790442346502400,6.29350244140625,-1.336868197208643,3.1589094366014003,-2.330905538287759
1772790442366535400,6.313535400390625,-1.1611772837817669,2.978953266945481,-2.896916204249859
1772790442386568200,6.333568115234375,-0.9301014600023627,2.677138311815262,-3.3608418757438656
1772790442406601200,6.353601318359375,-0.30293636037558314,2.8249910779848695,-3.153734079790115
1772790442426634200,6.37363427734375,0.3819207575023174,3.705308224120736,-2.5098569148153067
1772790442446667300,6.393667236328125,0.7371965230546891,4.193234072144329,-1.9552081853449343
1772790442466700300,6.4137001953125,0.6317515506342053,4.213395108902454,-2.2338082691043613
1772790442486733300,6.4337333984375,0.6256044261813163,4.365436266672611,-2.613748081922531
1772790442506766300,6.453766357421875,1.2317476344369351,4.081383178204298,-2.8992145443201065
1772790442526800400,6.47380029296875,2.277867629452795,3.2852707941919563,-2.2368255710989238
1772790442546833200,6.493833251953125,2.958898905432224,2.3790415004253385,-1.022543889117241
1772790442566866400,6.513866455078125,2.97774272211194,1.3901976363360882,-0.35755905418395995
1772790442586899200,6.533899169921875,2.642882990992069,0.8365531154721975,0.08554711664319038
1772790442606932500,6.553932373046875,1.914192430476099,0.2719149069070816,0.4380436267405748
1772790442626965200,6.57396533203125,0.9178758924186229,-0.43631110385954375,0.8301952708780765
1772790442646998500,6.59399853515625,0.02943988336548209,-1.0579606549352407,1.54521342600286
1772790442667031300,6.61403125,-0.44881008155718444,-1.5269015242427586,2.550856449201703
1772790442687064300,6.634064208984375,-0.6528019374474883,-1.6426397810101507,3.932318990418315
1772790442707097300,6.654097412109375,-0.6422095240235328,-1.7101503057032823,5.200892234557867
1772790442727130400,6.67413037109375,-0.4729869298279285,-1.792988747909665,6.261003345525264
1772790442747164200,6.6941640625,-0.32172683943286534,-1.8939847780972718,6.609007804900408
1772790442767197400,6.714197509765625,-0.20296938097476958,-2.067968303084373,6.273268952858448
1772790442787230200,6.734230224609375,-0.19314064539968967,-2.1032669954806567,5.463144994628429
1772790442807263500,6.754263427734375,-0.3133018331758678,-1.8176123170346021,4.483784998199344
1772790442827296300,6.774296142578125,-0.6611949411310255,-1.5218997704327106,3.432739821740985
1772790442847329300,6.794329345703125,-0.9603449148356914,-1.345301679033041,2.421107787260413
1772790442867362000,6.814362060546875,-1.0896218676120042,-1.219100480440259,1.429944540312886
1772790442887394800,6.834394775390625,-1.063771387040615,-1.0294634592473506,0.6266378608822822
1772790442907428000,6.854427978515625,-0.876201089119166,-0.7283832481324672,0.09021218584477901
1772790442927460900,6.8744609375,-0.5839569492802024,-0.5442541767060757,-0.5803074868619441
1772790442947494100,6.894494140625,-0.17461992319449782,-0.46659810557365416,-1.280460665810108
1772790442967528000,6.91452783203125,0.2554595927990973,-0.3439280037164688,-1.8305074544429778
1772790442987561000,6.93456103515625,0.646414501432702,-0.4298743488103151,-2.5597628092348574
1772790443007594000,6.954593994140625,0.6921639337599277,-0.5505874713808298,-3.196565505778789
1772790443027627000,6.974626953125,0.6746048961937428,-0.3801490716546774,-3.207961344540119
1772790443047659800,6.99465966796875,0.8581576290369033,0.2596434543550014,-2.721263869267702
1772790443067693000,7.014693115234375,1.001094273853302,1.1934551670521496,-2.0269132391184566
1772790443087725800,7.034725830078125,1.2008043607711791,2.0571739373475313,-1.4712778366982937
1772790443107759000,7.054759033203125,1.6711504207015035,1.946297733658552,-0.5870780039101838
1772790443127791900,7.0747919921875,2.363420737445354,1.4860282465845345,0.34554245317578314
1772790443147825000,7.094824951171875,2.8856477912604808,0.23843115497827527,0.6738835961818694
1772790443167858000,7.11485791015625,4.034860496482253,-0.628193858152628,1.2449036147385835
1772790443187891000,7.134890869140625,5.0869034518063065,0.3890758899539709,2.115573519346118
1772790443207925000,7.154925048828125,5.29954550101161,0.9361749346971512,2.991225304019451
1772790443227958000,7.1749580078125,4.903898415973782,1.169280510738492,3.8205069671839476
1772790443247991000,7.194990966796875,3.986355116510391,0.5839321070998906,4.529922479996085
1772790443268024000,7.215024169921875,3.0186440568208694,-0.6146691906690597,4.972589090362191
1772790443288057000,7.23505712890625,2.294780331939459,-1.980280082759261,5.514202981692552
1772790443308089900,7.25508984375,1.8963129287838936,-2.6864053218543527,6.444066249024868
1772790443328123100,7.275123046875,1.399043790614605,-3.018759792155027,7.002738827183842
1772790443348156000,7.295156005859375,0.6444809030216186,-3.3124060538768765,6.752502083599567
1772790443368189000,7.31518896484375,-0.05918517941832542,-3.356848422193527,5.90600800434947
1772790443388222000,7.335221923828125,-0.6048141516089439,-3.1679508211910723,4.909541974818707
1772790443408255000,7.3552548828125,-0.933862566101551,-2.7955454955309627,4.1159912579879165
1772790443428289000,7.3752890625,-1.1864675001218914,-1.9348656545400618,3.568694060324132
1772790443448322000,7.395322021484375,-1.714477813513577,-1.1173153457015752,3.025914047823846
1772790443468354800,7.415354736328125,-2.2737767068773507,-0.04562544062137604,2.781660178041458
1772790443488388000,7.43538818359375,-2.9306849105998873,0.7843442048072814,2.3268495408952234
1772790443508420900,7.4554208984375,-3.3763092017278074,1.3606073847144842,2.232352225077152
1772790443528454100,7.4754541015625,-3.7059713642045855,1.7355822686016558,2.1431483394920825
1772790443548487000,7.49548681640625,-4.006247565460205,1.6493524303913116,1.9653332735180853
1772790443568520200,7.515520263671875,-4.15126101655066,1.2487719806045292,1.8385382006853819
1772790443588553000,7.535552978515625,-4.052887736082077,0.7550660878747701,1.8448977988451718
1772790443608586000,7.5555859375,-3.762095402486622,0.5358072508782148,1.8709066848486662
1772790443628619000,7.575618896484375,-3.4965275265187024,0.48937166291773315,1.9053554824173449
1772790443648652000,7.595652099609375,-3.2987995533287524,0.5987608429193496,1.8110855456143617
1772790443668685800,7.615685791015625,-3.006598521979153,0.922709888446331,1.6306237645238637
1772790443688719000,7.635718994140625,-2.7968571626514196,1.4012988760650158,1.382676008659601
1772790443708752000,7.655751953125,-2.6410896778345108,1.9397849907636642,1.0804214930683373
1772790443728785200,7.67578515625,-2.5707997515559193,2.62993875374496,0.8378881634682417
1772790443748818000,7.69581787109375,-2.6097899919465184,2.9487779089123007,0.33797640183568
1772790443768851000,7.715850830078125,-2.4861253260940313,3.1197754038259387,-0.12112287241518496
1772790443788884000,7.735884033203125,-2.1874416547268627,3.224309545011818,-0.673830404689908
1772790443808917000,7.7559169921875,-1.752719281363487,3.5453742672741413,-0.9996773927927016
1772790443828950000,7.775949951171875,-1.42674837462008,3.8320834232091903,-1.5143594380557537
1772790443848983000,7.795983154296875,-1.2411550758600234,4.142444380627572,-2.140774596098065
1772790443869015300,7.816015380859375,-0.8048775820091366,4.8776568902581925,-2.0723019483745095
1772790443889048300,7.83604833984375,-0.014613339503109455,6.853823692479729,-1.717172751685977
1772790443909082400,7.856082275390625,-0.10484919848442077,7.887036859649419,-2.3573124836981294
1772790443929115400,7.876115478515625,-0.2355668515883386,8.488475397345423,-3.3614807581692934
1772790443949148400,7.8961484375,-0.1594951270379126,8.122486952990293,-4.949776954573393
1772790443969181200,7.91618115234375,0.5962720217783004,7.335618782663345,-5.961483807855844
1772790443989214500,7.93621435546875,1.7749743677914143,6.462589163187146,-5.907087616279721
1772790444009247200,7.956247314453125,3.743501468914747,5.835242277252674,-5.069514510110021
1772790444029280500,7.976280517578125,5.563469409164786,4.368880269646644,-4.426520557710528
1772790444049310200,7.996310302734375,6.920758463111519,2.941656970991194,-4.201017273366451
1772790444069343200,8.01634326171875,7.607688587871193,1.3328098617285489,-4.46294153213501
1772790444089376300,8.036376220703126,7.9269357393175355,0.4709156765118241,-4.316472037017345
1772790444109409300,8.0564091796875,7.610686600643396,0.869350346441567,-3.4687919628530737
1772790444129442300,8.0764423828125,6.164671215495467,1.1550269444584846,-2.2173440410375593
1772790444149475300,8.096475341796875,3.8877591332018375,2.983630611106753,-0.43732524933815
1772790444169508000,8.116508056640624,1.1570914027076213,5.236336472904682,2.0842975065946576
1772790444189542400,8.13654248046875,-1.9576979563340544,5.007919346940517,4.2182887261629105
1772790444209575400,8.156575439453125,-3.3794667889758943,4.305521019414067,5.8506619647026055
1772790444229608200,8.176608154296876,-4.310934861156344,3.2796418483942746,6.282549991422891
1772790444249641500,8.196641357421875,-5.063377614790201,1.8499708643257617,6.081362817689776
1772790444269674200,8.21667431640625,-5.27175616133213,0.822999221894145,5.5602305733740325
1772790444289707500,8.23670751953125,-5.4740755539655686,-0.21996026326417922,4.671678390595317
1772790444309740300,8.256740234375,-5.297532407623529,-0.5866127244859933,3.838909177576005
1772790444329773300,8.276773193359375,-4.812593466456234,-0.6555676027685403,2.9009745397299525
1772790444349806300,8.296806396484374,-4.205632658207416,-0.07816460517644881,2.1243688202202318
1772790444369839000,8.316839111328125,-3.8941266224071382,0.08520049516260624,0.9101923521786928
1772790444389872400,8.336872314453124,-3.4300679721832275,0.2946159835368395,0.2948012769758701
1772790444409905200,8.3569052734375,-3.0413661762386557,0.06941080535650253,-0.10277940647304057
1772790444429939200,8.376939208984375,-2.4061706226304174,0.20032208133637905,0.17447452337443828
1772790444449972500,8.396972412109376,-2.3186232720807194,-0.4541209013164043,-0.12029402037560939
1772790444470008300,8.41700830078125,-1.6964888600975274,-0.8818921403676271,-0.16983692670166492
1772790444490041300,8.437041259765625,-0.9071849870562553,-0.7365326523184775,0.46926294086873527
1772790444510074400,8.457074462890626,-0.17636340586096047,-0.7506547011733055,1.2409779657274485
1772790444530107100,8.477107177734375,0.6545277383267879,-0.9938871189534664,2.1041601449280978
1772790444550140400,8.497140380859374,1.4739925024844704,-1.1033908652454614,3.1153593409493565
1772790444570173200,8.517173095703125,2.3626760565578935,-0.966429203185439,4.323841104480624
1772790444590206500,8.53720654296875,3.563696690428257,-0.3554121052831411,6.093841190990806
1772790444610239200,8.5572392578125,4.408590348744392,-0.215747614005208,7.98554516467452
1772790444630273300,8.577273193359375,4.554126946926116,-0.9041285220950841,8.837117570102214
1772790444650306300,8.597306396484376,4.656134199982882,-2.434277065435052,9.476510867661236
1772790444670339300,8.61733935546875,4.939922500035166,-4.3881496182620525,9.469259873619675
1772790444690372400,8.637372314453126,5.301572038403153,-5.877492688483,9.231625421977043
1772790444710405400,8.6574052734375,5.40806958861649,-6.416092200428247,8.308094864797592
1772790444730438100,8.677438232421874,5.096660291188955,-5.8871033973932265,7.031575045567751
1772790444750471400,8.697471435546875,4.497583221927285,-4.2945694172888995,6.103609136289358
1772790444770504200,8.717504150390624,3.5642274363040922,-2.387650923338532,5.305070401912928
1772790444790537500,8.737537353515625,2.0143045174360275,-0.8682114055395126,4.3794712217658756
1772790444810570200,8.7575703125,0.971621511131525,1.004466380634904,4.112872541445493
1772790444830603300,8.777603271484375,-0.04757175238355994,2.1687030519872903,3.8542578456163405
1772790444850636300,8.79763623046875,-0.7780392594441771,3.1703917846024035,3.9114872147917743
1772790444870670800,8.8176708984375,-1.4804627214118837,4.328627169713378,4.048615465590357
1772790444890704000,8.837703857421875,-2.3198478454396128,4.818085341870784,3.864463597810268
1772790444910737000,8.85773681640625,-2.818596408511698,4.889061496847868,3.584576396849751
1772790444930770000,8.87777001953125,-3.233639098893106,5.010007843652367,3.2042256651431322
1772790444950802700,8.897802734375,-3.6815056159898636,4.943361826834082,2.3882810379356143
1772790444970836000,8.9178359375,-3.9686429342091083,5.023471720859408,1.6641069319307804
1772790444990868700,8.93786865234375,-3.931397783920169,5.337112722861766,1.1345990734577178
1772790445010901800,8.95790185546875,-3.896897840686142,5.784135774871706,0.40422319020330905
1772790445030934800,8.977934814453125,-3.7935909032076593,5.881101526629925,-0.35422611036896706
1772790445050967800,8.9979677734375,-3.578317336454987,5.771417163074016,-1.0375585028976202
1772790445071000800,9.018000732421875,-3.2044846083402634,5.521915163505077,-1.6135598169982432
1772790445091033600,9.03803369140625,-2.7979478804975746,5.287115058505535,-2.112680135992169
1772790445111067600,9.058067626953125,-2.589834706893563,5.261854360520839,-2.7385329839766026
1772790445131101000,9.078100830078125,-2.5375977391779423,5.245611666250229,-3.0511943272918463
1772790445151133700,9.0981337890625,-2.2274659143403173,5.361961917436123,-3.227362795102596
1772790445171167000,9.1181669921875,-1.808805910244584,5.6292409812361,-3.4071260725349184
1772790445191199700,9.13819970703125,-1.387262167406082,6.0247886975526805,-3.597594868376851
1772790445211233000,9.15823291015625,-1.1380059592917562,6.270003229060769,-4.172112081399559
1772790445231265800,9.178265869140626,-0.8178232805609703,6.4840621593266725,-4.892244218537211
1772790445251298800,9.198298828125,0.11709142494201659,7.294502928420901,-4.935306530672311
1772790445271331800,9.218331787109374,0.9198109521344303,8.366055470857024,-5.117547596395015
1772790445291364900,9.23836474609375,1.0053018085457384,8.860069406622648,-5.7769432330191135
1772790445311398000,9.25839794921875,0.9356291373826563,8.788920233166218,-6.088948742774129
1772790445331431000,9.278430908203125,1.1268379379369318,8.424002048391102,-6.4387015071213245
1772790445351464700,9.298464599609375,1.2854302709162235,7.793231617748737,-6.383671109294891
1772790445371498000,9.318498046875,1.5917723480820656,7.141041966980695,-6.0179772639721625
1772790445391530800,9.33853076171875,2.044837602865696,6.411571508133411,-4.990460262617469
1772790445411563800,9.358563720703126,3.0059611008584497,5.708408041453361,-2.8922897134929895
1772790445431596800,9.3785966796875,3.7311785784363742,5.475865359991788,-0.9894716405987739
1772790445451629800,9.3986298828125,3.757498430085182,5.543229169690608,0.6433481726646423
1772790445471662800,9.418662841796875,3.2713667720019814,5.6411617206543685,2.5656337470948696
1772790445491695900,9.43869580078125,2.1003680591687557,5.806638114058971,4.487089300441742
1772790445511728600,9.458728759765625,0.5318471150755882,5.009153857171535,5.869588198968768
1772790445531762000,9.478761962890625,-0.16759996142983435,3.472852051898837,7.476944485151767
1772790445551794700,9.498794677734375,-0.3602233049571514,1.7882985442668198,9.708612819617986
1772790445571828000,9.518827880859375,-0.39798195772618056,-0.3758054894924164,10.719839195907115
1772790445591861800,9.53886181640625,-0.29780162783563136,-2.294307453730702,10.287101274359225
1772790445611894800,9.558894775390625,-0.35357173811346293,-3.6348265746623274,8.321575108617544
1772790445631927800,9.578927734375,-0.09487520921975373,-3.3542759413570162,6.6720210181742905
1772790445651960800,9.5989609375,-0.012590601503849028,-2.4858698900282383,5.000301857674121
1772790445671993900,9.618993896484374,-0.345738560269773,-1.49957687946558,3.088593206837773
1772790445692027000,9.63902685546875,-0.5464511022284627,-0.7474696413964033,1.47649732491225
1772790445712059600,9.6590595703125,-0.5795660208448767,-0.2884890250891447,-0.16282909376621246
1772790445732093000,9.679093017578126,-0.32330490240454673,-0.3216466138035059,-1.5631933193296192
1772790445752125700,9.699125732421875,-0.003704699736833572,-0.06772504422664642,-2.3687802186518905
1772790445772159000,9.719158935546876,-0.12879121508598326,0.490942273235321,-2.7852900589764116
1772790445792191700,9.739191650390625,-0.7845511255562305,0.9109966542989015,-2.9636890623182057
1772790445812224800,9.759224853515626,-1.9594309176065026,0.6751099231064319,-3.3937077880352735
1772790445832257800,9.7792578125,-2.8721266309082507,0.14081775296628474,-3.128420190313458
1772790445852291800,9.799291748046874,-3.355837199324369,0.02492752050757408,-1.4770932449787855
1772790445872324400,9.819324462890625,-2.9563699714764953,1.358298523250222,1.8998346731692553
1772790445892357400,9.839357421875,-2.958717995907366,3.06953896227777,5.151133055132627
1772790445912390100,9.85939013671875,-3.559775717592239,3.105397626644373,8.296382215172052
1772790445932423400,9.87942333984375,-3.8216877014011144,0.7568003643214702,10.997546714740992
1772790445952456200,9.899456298828126,-2.621256265595555,-2.9070658423423765,13.825983841526508
1772790445972489500,9.919489501953125,-0.5342863249212503,-6.799411718812585,14.739068992537259
1772790445992522200,9.939522216796876,1.401883690215647,-8.02514243104756,12.523501898044348
1772790446012555300,9.95955517578125,3.2932921880841253,-5.929214107891917,9.730907069012522
1772790446032588300,9.97958837890625,3.9526691200077533,-3.216144650995731,6.861750978347659
1772790446052621300,9.999621337890625,4.342765877442061,-0.5461030194431543,4.547878992447257
1772790446072654300,10.019654296875,4.312450526416302,0.6655109046339989,2.642766086614132
1772790446092687400,10.039687255859375,3.9811844358742237,1.0066045617073773,1.2792179722726345
1772790446112721400,10.059721435546875,3.214014653229713,1.202771861451864,1.0483744959443806
1772790446132754400,10.07975439453125,2.5450901407599447,1.7067887203156946,1.5396552073538303
1772790446152787500,10.099787353515625,1.3568087230838835,2.2822785777628423,2.1079086838066576
1772790446172820200,10.1198203125,-0.0506930992744863,2.863202150696516,2.396222936850786
1772790446192853500,10.139853515625,-1.0121287319563328,3.5421710873186587,2.354109888264537
1772790446212886300,10.15988623046875,-2.0706138491570947,3.823880827531218,2.0174901617348193
1772790446232919600,10.17991943359375,-2.766948931121826,4.257252955329418,1.99557526704669
1772790446252952300,10.199952392578124,-3.3958784100726245,4.219816666382551,1.3633575602054595
1772790446272985300,10.2199853515625,-3.437502213837206,3.848299813994765,0.39150340936183925
1772790446293018400,10.240018310546875,-2.9377172934547064,3.9159611453354355,-0.337056948903203
1772790446313051400,10.260051513671876,-2.4861791021078825,3.8889708470791575,-0.8127432008177041
1772790446333084400,10.28008447265625,-2.147807855735719,3.8112618767157196,-1.214208616745472
1772790446353117400,10.300117431640626,-1.8574866467833517,3.943781172414124,-1.3219669806748628
1772790446373151200,10.320151123046875,-1.842927960076928,4.121481672097742,-1.5595891573578118
1772790446393184500,10.3401845703125,-2.1399629874542354,4.1082527726903555,-1.845902591973543
1772790446413217300,10.36021728515625,-2.4244261180281637,4.2795334684595465,-2.1326152550399304
1772790446433250300,10.380250244140624,-2.5026377772167323,4.435201584555209,-2.4732827956557273
1772790446453283300,10.400283447265625,-2.4396274865522978,4.58810052819848,-2.84008664804697
1772790446473316400,10.42031640625,-2.370921906855702,4.66179675578922,-3.2665754460722205
1772790446493349400,10.440349365234376,-2.3778280329823493,4.542688730327785,-3.7138843292862176
1772790446513382400,10.46038232421875,-2.4007000822648403,4.392820532682538,-4.177265226379037
1772790446533415400,10.48041552734375,-2.400960194505751,4.386437845908105,-4.506836787962913
1772790446553448400,10.500448486328125,-2.0483833126485345,5.025384861004352,-4.2158921864151955
1772790446573481200,10.520481201171876,-1.8359934846386312,6.00086129399836,-4.196071633657813
1772790446593514500,10.540514404296875,-1.712185318662226,6.751553404572606,-4.35779013583362
1772790446613547300,10.56054736328125,-1.5251500044003128,7.673662989038228,-4.59971965432167
1772790446633581300,10.580581298828125,-1.3750561813056468,8.049694103980064,-5.098788535389303
1772790446653614300,10.6006142578125,-0.968493734499812,8.093589359807968,-5.30286558534503
1772790446673647400,10.6206474609375,-0.26692572031766176,7.620255808499455,-5.3617456443369385
1772790446693680400,10.640680419921875,0.42250206647664307,7.438604525363445,-4.483677446171641
1772790446713713400,10.66071337890625,0.8734583662822842,6.77364657843709,-2.8641619356393813
1772790446733746200,10.68074609375,1.5306816273033619,5.804635542064905,-0.961173766875267
1772790446753779500,10.700779541015624,2.117488705317676,4.924167881542444,0.8712585181504487
1772790446773812200,10.720812255859375,2.1947369263015686,3.7857173933535813,2.1383757182627914
1772790446793845500,10.740845458984374,1.9268283324263988,3.2143834865421055,3.491395424327254
1772790446813878300,10.760878173828125,0.9628405310437083,2.8241993430852887,4.6401901963979
1772790446833911300,10.780911376953124,0.11658727481216191,1.963127872428298,5.811669678485393
1772790446853944300,10.8009443359375,-0.2866717465341091,1.2719687317967414,7.338619133523106
1772790446873978000,10.82097802734375,-0.381209102101624,0.5494108288168907,8.977685732221603
1772790446894012200,10.84101220703125,-0.3800467803239822,-1.3734119212299585,9.534258123230934
1772790446914045200,10.861045166015625,0.14991992783248423,-2.5734318536251783,9.627974517804384
1772790446934078200,10.881078125,0.3980148370824754,-3.5730244907438755,8.731467576628923
1772790446954111000,10.901111083984375,0.1253580257669091,-3.8408869073897596,7.192971476182342
1772790446974144300,10.921144287109374,-0.16129063215255737,-3.133292180263996,5.721959012421966
1772790446994177000,10.941177001953125,-0.5817191072255372,-2.5490087755084034,4.176879149670898
1772790447014210300,10.961210205078125,-1.1080711320161818,-1.7195073321133851,2.7521210720852016
1772790447034243000,10.9812431640625,-1.5428107487753033,-1.3088532320797444,1.082130635073781
1772790447054276400,11.0012763671875,-1.7189336238786577,-1.3828297379165888,-0.3424941715210676
1772790447074309000,11.02130908203125,-1.6781898178189991,-1.6364380037605761,-1.254376961004734
1772790447094342100,11.041342041015625,-1.4392413609683512,-1.8663696259409188,-1.7418956895321607
1772790447114375200,11.061375244140624,-1.323948802141845,-1.930816086888313,-1.941422821098566
1772790447134408200,11.081408203125,-1.4252783020675182,-1.7415841393649578,-1.878747461476922
1772790447154442000,11.10144189453125,-1.5942168186247347,-1.373023214173317,-1.5981857222557068
1772790447174475300,11.121475341796875,-1.5894187706932426,-0.872958892327547,-1.1373305442482233
1772790447194508000,11.141508056640625,-1.2184379248782993,-0.4928647657305002,-0.12811258517205715
1772790447214541300,11.161541259765626,-0.9017178076915442,-0.020935820522904394,1.1238204898118973
1772790447234574000,11.181573974609375,-0.8316612517774105,-0.03503974919915199,2.117335268321633
1772790447254607000,11.201607177734376,-0.5669006005391478,-0.5762392145097255,3.1409517551064488
1772790447274640100,11.22164013671875,0.08165566216260195,-1.312736795514822,4.1493098824828865
1772790447294673200,11.241673095703124,1.2341986808508634,-2.6589643572211266,5.299274282854795
1772790447314706200,11.2617060546875,3.6081484110951423,-3.5574259395956993,6.284233414465189
1772790447334739200,11.2817392578125,6.422002301254868,-2.651173849475384,6.950695920735598
1772790447354772000,11.30177197265625,8.662201732701062,-1.4427829790979623,6.0366533228695385
1772790447374805200,11.32180517578125,9.673162736052275,-0.3055295917391777,4.879803546898066
1772790447394838000,11.341838134765625,9.554843815141915,0.050582770767807955,4.502637874968349
1772790447414872000,11.3618720703125,8.022254308390616,-0.6286918708026409,4.820822073358297
1772790447434905300,11.3819052734375,5.556398447865248,-1.5396458550035952,4.515128230968117
1772790447454938000,11.401938232421875,3.1724493016541,-1.7345979337394237,3.803942201352119
1772790447474971400,11.421971435546874,1.224016601793468,-1.3191472470790147,2.9958751756519075
1772790447495004200,11.442004150390625,-0.19721213262230156,-1.0784756196975707,2.1169430541336536
1772790447515037200,11.462037109375,-1.01185882897377,-0.842525760141015,1.3948743959754704
1772790447535070200,11.4820703125,-1.2870061419308185,-0.46444472693204875,0.7148240938574075
1772790447555103000,11.50210302734375,-1.3976879920914769,0.17436755586862562,0.5239256744265556
1772790447575136300,11.52213623046875,-1.400632521110773,0.9870219093590974,0.7440443431228398
1772790447595169000,11.5421689453125,-1.5375927218660712,1.6058382828354834,0.4137269316077232
1772790447615202300,11.562202392578126,-1.5659981476172804,2.3848510634869338,0.1943073510915041
1772790447635235000,11.582235107421875,-1.6362641084983944,2.8752362873613833,0.14714695598781108
1772790447655269000,11.60226904296875,-1.7631953749313949,2.9720372039467096,0.3272708834260702
1772790447675302100,11.62230224609375,-2.0683158013477922,2.663920518323779,0.6223790343940258
1772790447695335200,11.642335205078124,-2.3434923403993246,2.1381945164769887,0.8401958558887243
1772790447715368200,11.6623681640625,-2.585734285837412,1.5596066930145025,0.910471753641963
1772790447735401200,11.682401123046875,-2.762566185992956,1.1019751532286406,1.0683879409253596
1772790447755434200,11.702434326171876,-2.8037869619145988,1.1607955909878014,1.2148059981167316
1772790447775467300,11.72246728515625,-2.771663976944983,1.4132277987897395,1.0944558636397124
1772790447795500300,11.742500244140626,-2.686796366998553,1.9322350137755273,0.6527490382164717
1772790447815533000,11.762532958984375,-2.5556430989563466,2.6691473130613566,-0.14433189856708048
1772790447835566300,11.78256640625,-2.2535770916745066,3.2624612887516617,-1.0083365000665188
1772790447855599000,11.80259912109375,-1.685993185046315,3.6538065849423407,-1.919402712470293
1772790447875632000,11.822632080078124,-1.236055122372508,3.8758874936223027,-2.514840548446774
1772790447895665000,11.842664794921875,-0.8050529385760427,4.1039460154071445,-3.0917928796619174
1772790447915699000,11.862698974609375,-0.5280567828819155,4.221619624151289,-3.653862114521861
1772790447935732000,11.88273193359375,-0.5140747270196676,4.118208934037387,-4.005663628092408
1772790447955765000,11.902764892578125,-0.6065349840521812,4.004295262348652,-4.087991782689095
1772790447975798000,11.922798095703126,-0.7311836925059556,3.904936477974057,-4.203329641962051
1772790447995831000,11.9428310546875,-0.7450722248658538,3.87585592944026,-4.414105312773585
1772790448015863800,11.96286376953125,-0.5038512930385768,4.101345769780874,-4.528566389212012
1772790448035897000,11.98289697265625,0.4946133629634976,5.011417710450291,-4.426545692151785
1772790448055927000,12.002927001953125,1.32627534539327,5.903548336237669,-4.911771341305971
1772790448075959800,12.022959716796874,1.603875458329916,6.459103659158945,-5.125776495558023
1772790448095993000,12.0429931640625,1.451722364617884,6.49838937536478,-5.253489852279424
1772790448116025900,12.06302587890625,1.385902569490671,6.485817478561401,-4.843834115633368
1772790448136059100,12.08305908203125,1.5229485488332808,6.280912161087989,-4.444181886607408
1772790448156092000,12.103091796875,1.6738332300446928,6.304221725004911,-3.399193525969982
1772790448176125000,12.123125,1.862950757408142,6.1700751203656194,-1.8949685284376143
1772790448196158000,12.143157958984375,2.2207623250484465,5.817436571449041,-0.362814490494132
1772790448216190700,12.163190673828124,2.373639349120855,5.0556677710652345,1.0522241571098565
1772790448236224800,12.183224853515625,2.0642004749834535,3.8465538471102714,2.229634782811999
1772790448256258000,12.203258056640625,1.4153988592185078,2.3788731581211087,3.428715973052382
1772790448276290800,12.223290771484375,0.6682322924219072,0.34527006597518917,4.74077121604383
1772790448296324000,12.243323974609375,0.34969022050499915,-0.8540764972031116,6.9687991481810805
1772790448316356900,12.26335693359375,0.06688011783510446,-2.2069383823573587,9.649379124882817
1772790448336390100,12.28339013671875,0.31694676554948087,-3.9353205103218554,10.656938795357942
1772790448356423000,12.3034228515625,0.7874655516982078,-4.619509811940789,9.52603974546194
1772790448376456000,12.3234560546875,1.0126748215317725,-3.9820425140082834,7.780128975069522
1772790448396489000,12.343489013671874,0.802359169447422,-2.703967866551876,5.946407234755158
1772790448416522000,12.36352197265625,0.12806406985521315,-1.4274913019418716,4.376180948048829
1772790448436555000,12.383554931640624,-0.8927844135209918,-0.8614601777136325,2.7988459983810783
1772790448456588000,12.403588134765625,-1.6732392096742987,-0.43011108017563815,1.5228016877084969
1772790448476622800,12.423622802734375,-1.8698259038746357,-0.1356780519902706,0.5604746591448784
1772790448496656000,12.44365576171875,-1.8200366215720771,-0.28302257637679573,-0.29942133799195286
1772790448516689000,12.46368896484375,-1.5250629106387494,-0.6808388221472501,-1.0541016414195299
1772790448536722000,12.483721923828124,-1.1311091855153441,-1.0208972909539937,-1.4930466009140013
1772790448556755000,12.5037548828125,-0.6061505147792399,-1.205163140502572,-2.159194049885869
1772790448576788000,12.5237880859375,-0.16837240710705517,-1.36887720040977,-2.881637386575341
1772790448596820700,12.54382080078125,-0.03356412368863821,-1.1052367853730916,-3.396377299505472
1772790448616854000,12.56385400390625,-0.5460922057881951,-0.6513152060210704,-3.327646293106675
1772790448636886800,12.58388671875,-1.1371814911663531,-0.4131424097180366,-2.2001281178206202
1772790448656920000,12.603920166015625,-1.5499325634792447,-0.22358663706779477,-0.7901601976096629
1772790448676952800,12.623952880859376,-1.767182691001892,-0.3531570198327303,0.5451292059749364
1772790448696985900,12.64398583984375,-1.0397682879015804,-0.814547035369277,2.368710660547018
1772790448717020200,12.664020263671874,1.2335478157266975,-0.109248310226202,4.482946209287643
1772790448737053000,12.684052978515625,3.5579134308516975,0.8752274217814207,5.621661485892534
1772790448757086000,12.7040859375,5.1746857801556585,0.31354046423733234,5.915559676548838
1772790448777119000,12.724118896484375,6.077127956598996,-0.6547498566448688,6.473305787512659
1772790448797152000,12.744152099609375,6.251059459137916,-2.3658277985870835,6.429584134685993
1772790448817185000,12.76418505859375,5.740678325939178,-3.784659993255138,5.93760199700892
1772790448837218000,12.784218017578125,4.6668137071684,-3.937688408496976,5.04038486173749
1772790448857250800,12.804250732421876,3.2823394169151783,-3.1645430585741994,3.969801456594467
1772790448877283300,12.824283447265625,2.113947087188065,-2.42827519467175,2.862491372078657
1772790448897316400,12.84431640625,1.1632406460523605,-2.139075975486636,1.9191338324010372
1772790448917349400,12.864349365234375,0.5541282127276063,-2.245079020181298,1.4314473460912704
1772790448937382400,12.88438232421875,0.1777306025609374,-2.495616792538762,1.2027753685832023
1772790448957415400,12.90441552734375,-0.05424450814574957,-2.2427485314071176,1.0019681340783835
1772790448977449500,12.924449462890625,-0.3863865047395229,-1.574143167889118,0.6301672040522098
1772790448997482200,12.944482177734375,-0.8271969658449292,-0.7446124983996153,0.22077450225651263
1772790449017515500,12.964515625,-1.1571940593644976,0.14455050975382328,0.21727029352784155
1772790449037548300,12.98454833984375,-1.243842999769747,1.011163247925043,0.8003238642275333
1772790449057581300,13.004581298828125,-1.2189990658923984,1.4043980111241339,1.2644547029048203
1772790449077614300,13.0246142578125,-1.0679448733329773,1.5295932475447653,1.7224293570399283
1772790449097647400,13.0446474609375,-1.1507803929299116,1.2978501920282839,2.0383014790952205
1772790449117680400,13.064680419921874,-1.2466253239646554,0.8960311403572558,2.3449095137208698
1772790449137713400,13.08471337890625,-1.369132636475563,0.5933744737058878,2.7460937746196983
1772790449157746400,13.104746337890624,-1.5465782846152782,0.3668289868324995,3.1231139005988835
1772790449177779500,13.124779541015625,-1.896574794590473,0.4099894986450672,3.2336545887231827
1772790449197812200,13.144812255859375,-2.5385616157740354,0.643870735234022,2.7908482776254413
1772790449217845500,13.164845458984376,-3.1587837643951175,1.223233050200343,2.1293992156028745
1772790449237879300,13.18487939453125,-3.659488137710094,2.070490515038371,1.364242526346445
1772790449257912300,13.204912353515626,-3.659466510400176,2.7840488267436623,0.6120932027012109
1772790449277945300,13.2249453125,-3.3530323710367083,3.40508053818196,-0.02517886492013931
1772790449297978400,13.244978271484374,-3.039946372568607,3.8228225506499407,-0.7195598902076482
1772790449318011400,13.265011474609375,-2.6465800919443367,4.020757152327895,-1.440582838705182
1772790449338044400,13.28504443359375,-2.2218284929752348,4.088237866404652,-2.168340063893795
1772790449358077200,13.3050771484375,-1.7520269151851533,4.209210224433243,-2.7960277260899544
1772790449378110500,13.3251103515625,-1.3202592999741434,4.33054440151155,-3.2522248491585253
1772790449398143200,13.345143310546876,-1.011907636551559,4.2943510983631015,-3.7790269558042286
1772790449418176500,13.365176513671875,-0.8338742516517639,4.045322853785753,-4.358438955131173
1772790449438209300,13.385209228515626,-0.667869742719829,3.8282588964849706,-4.7601375952929255
1772790449458242300,13.4052421875,-0.6441083433821797,3.5443966544136405,-5.062873172399401
1772790449478275300,13.425275390625,-0.05872486843019724,3.6384611317723987,-4.632577967828512
1772790449498309400,13.445309326171875,0.7904150491535663,4.8396208818525075,-3.6140959213227033
1772790449518342100,13.465342041015624,1.0174281535387038,6.301719386795162,-3.046720396748185
1772790449538375400,13.48537548828125,0.6073544837415218,7.019759520089626,-3.598555237841606
1772790449558408200,13.505408203125,0.4014738914951682,6.999872916358709,-3.9504678105711934
1772790449578441500,13.52544140625,0.4936243519261479,6.658311641773581,-3.605290099054575
1772790449598474200,13.54547412109375,0.7478913739398121,5.997316168737411,-3.1301638191103933
1772790449618507300,13.56550732421875,1.2927204279243945,4.977580322778224,-2.58256734623909
1772790449638540300,13.585540283203125,2.7995369032546877,3.9841558529004453,-2.1287761152684688
1772790449658573300,13.6055732421875,4.445103093105554,3.1295643919125196,-1.3444821793437003
1772790449678606300,13.6256064453125,5.3134980385184285,1.9153817863911389,0.07535130132138729
1772790449698639400,13.645639404296874,5.007033211755752,0.46791327982544895,1.6029828934043644
1772790449718672400,13.66567236328125,3.7190953419327735,-0.5865729769974947,3.1633383589595554
1772790449738705400,13.685705322265624,1.9393311095163226,-1.09494510846138,4.842723524042964
1772790449758738200,13.70573828125,0.8689569632098079,-1.5185586433112621,7.091034365752339
1772790449778772500,13.7257724609375,0.7145163430824876,-1.6443226195305585,8.800316071927547
1772790449798805200,13.74580517578125,0.6752183519169688,-2.183897698509693,8.616292214441298
1772790449818838300,13.76583837890625,0.8687453662857413,-2.2016753472626207,7.7876739836215965
1772790449838871300,13.785871337890624,0.553479685690999,-2.243949139368534,6.0826423361063
1772790449858904300,13.805904296875,0.05597001676410436,-1.5075333914279936,4.720016012784838
1772790449878938000,13.825938232421874,-0.517736756658554,-0.7487707871228456,3.404904012571275
1772790449898971100,13.84597119140625,-1.0999255272224544,-0.5440180298626422,1.6929413967490194
1772790449919004200,13.866004150390625,-1.274300681875646,-0.7433867559969425,0.126113520309329
1772790449939037200,13.886037109375,-1.1988608254879711,-0.9558908580362796,-0.9145698366105556
1772790449959070200,13.9060703125,-1.0147957592085004,-1.2605997810423373,-1.3588140715569257
1772790449979103000,13.92610302734375,-0.907045578585565,-1.4540660051345824,-1.1308061109155416
1772790449999136300,13.94613623046875,-0.8870259961247443,-1.6790379590809343,-0.8992430881410837
1772790450019170300,13.96617041015625,-0.8656887551940977,-1.8959972869634627,-0.5990583645612001
1772790450039203000,13.986203125,-0.8330455457426608,-1.8843214622169733,-0.6030722763776779
1772790450059236400,14.006236328125,-0.8682698577284812,-1.6652940958887337,-0.6582125643193721
1772790450079269000,14.02626904296875,-0.7681031179718673,-1.2525742954969405,-0.3985305315196514
1772790450099302400,14.046302490234375,-0.7894280839428305,-0.770059074345231,0.2333113277465105
1772790450119335200,14.066335205078126,-0.9749395496383308,-0.6245312439918518,1.0270733492404223
1772790450139368200,14.0863681640625,-0.763788908034563,-0.6194312905043363,2.010962805792689
1772790450159401200,14.106401123046876,-0.1434402104243636,-0.9731132109940052,2.8306746765792368
1772790450179434200,14.126434326171875,0.729015993078053,-1.6857506084620952,3.1690859627008434
1772790450199467300,14.14646728515625,1.8100887896619735,-2.415119360500574,3.00550371247977
1772790450219500000,14.1665,3.199755826252699,-2.3594348826795817,3.1555762005254624
1772790450239533300,14.186533203125,4.0506805814266205,-1.1141554203659296,3.6680329709544774
1772790450259566000,14.206566162109375,3.9923242540478703,-0.1927028385043144,3.992850908270478
1772790450279599000,14.22659912109375,3.067016750323772,0.34515433064103124,4.260818831117451
1772790450299633200,14.246633056640626,1.7102373994648457,-0.08942132772803306,4.597018286408484
1772790450319666200,14.266666259765625,0.6053799687981605,-0.8945388559728861,4.853740300358831
1772790450339699200,14.28669921875,-0.3450736666202545,-1.8201444658607244,4.899614747305214
1772790450359732200,14.306732177734375,-0.9508344514295458,-2.083676159825921,4.846863108065724
1772790450379765200,14.32676513671875,-1.397646491037309,-1.9078817860245703,4.257634648123383
1772790450399798300,14.34679833984375,-1.6811545128434895,-1.632404218199849,3.2332419162690638
1772790450419831300,14.366831298828124,-1.792356587485969,-1.2227227625906467,2.3686124608695507
1772790450439864000,14.386864013671875,-1.7516218415156006,-0.531840100812912,1.8576228403836488
1772790450459897300,14.4068974609375,-1.6641425877660512,0.279556946092844,1.5934341438144444
1772790450479930000,14.42693017578125,-1.6305550832018256,1.0996668762862682,1.436761234590411
1772790450499963400,14.44696337890625,-1.726991842649877,2.0260534074187277,1.5090256758123635
1772790450519996200,14.46699609375,-1.9945093913808465,2.8346704682171344,1.7137211499273777
1772790450540029200,14.487029296875,-2.4120839383274317,3.433810081321001,1.933121441221237
1772790450560063200,14.507063232421874,-2.9092399715110657,3.435568323165178,1.9362468797653913
1772790450580096300,14.52709619140625,-3.2020430604070422,3.1043425646334883,1.482912744912505
1772790450600129000,14.54712890625,-3.253844559314847,2.575043380475044,0.9597913726061582
1772790450620162300,14.567162353515625,-3.198680890497565,2.1084780081272125,0.5760130045384169
1772790450640195000,14.587195068359375,-3.181758397269249,1.7293442509949206,0.46565234915614123
1772790450660228400,14.607228271484376,-3.065599869263172,1.680545441034436,0.5925163955718279
1772790450680261000,14.62726123046875,-2.8869536131620404,1.9184855976253747,0.5597673876583575
1772790450700294100,14.647294189453126,-2.7076187902748585,2.3113626334279775,0.14383271687328814
1772790450720327200,14.6673271484375,-2.6392081018716094,2.7196120104074475,-0.5077303264290094
1772790450740360200,14.687360107421876,-2.6037083339452742,3.0980700602352615,-1.2126894443541765
1772790450760393200,14.707393310546875,-2.462645081785321,3.4737747197017073,-1.752971210297942
1772790450780426200,14.72742626953125,-2.1842174319833516,3.8479835876524446,-2.302155829143524
1772790450800459300,14.747459228515625,-1.8805159324541687,4.128288137242198,-2.8891718737334013
1772790450820493300,14.767493408203125,-1.549607569308579,4.088710744613409,-3.5719893024772404
1772790450840526000,14.787526123046876,-1.132730064715445,3.8423888363853096,-4.121844367930293
1772790450860559000,14.80755908203125,-0.7079597610458731,3.534021975393593,-4.515337489804625
1772790450880592000,14.827591796875,-0.5298527263879775,3.253247762465477,-4.629532024261355
1772790450900624600,14.847624755859375,0.0228287946626544,3.68121393956691,-3.9997541117876767
1772790450920658000,14.867657958984376,0.5894713287875056,5.127175840961933,-3.3762656548470256
1772790450940690700,14.887690673828125,0.2585612120762467,6.504986289411783,-3.1431156551420685
1772790450960724000,14.907723876953124,-0.6754334559723735,7.076800088694691,-3.6682974671095607
1772790450980756700,14.9277568359375,-1.346761522452533,7.112727726644277,-4.172489098018407
1772790451000789800,14.947789794921874,-1.2756313459575175,6.526704784744978,-4.53092025886178
1772790451020822800,14.96782275390625,-0.7622261887624859,5.497210930359363,-4.455411721152067
1772790451040855800,14.987855712890624,-0.18200857214108107,4.693960072769224,-3.768756906202435
1772790451060888800,15.007888916015625,0.6309279592916369,3.9365357313305136,-3.0009055710345507
1772790451080921900,15.027921875,1.9337911571763455,3.250481512622535,-2.2461732451587912
1772790451100955600,15.04795556640625,3.084333795827627,2.620721428066492,-1.6407470991313458
1772790451120989000,15.067989013671875,3.578492985282838,1.800712035638094,-0.9259364492774009
1772790451141021700,15.088021728515624,3.5706910793602464,1.3959107532858848,0.3761784144580364
1772790451161055000,15.108054931640625,2.660423323857784,1.2560755816161633,1.675655915427208
1772790451181087700,15.128087646484374,1.2356219916522502,0.9713298347085714,3.1401562208145855
1772790451201120800,15.148120849609375,0.04017535852193832,0.9535662144809961,5.033604992339015
1772790451221153800,15.16815380859375,-0.9147437318727374,0.8369833235830068,6.657428429198265
1772790451241186800,15.188186767578125,-1.549185544504225,-0.05712824688851833,7.294699912297725
1772790451261219800,15.2082197265625,-1.5073337772026658,-0.9973971729010342,7.290594230544567
1772790451281252900,15.2282529296875,-1.3081082589313386,-1.7337041997700928,6.621328357291222
1772790451301285600,15.24828564453125,-0.9271265358448028,-2.021191354340315,5.567327838158607
1772790451321319000,15.26831884765625,-0.6693501905359327,-2.0140169326663018,4.394381498388946
1772790451341351700,15.2883515625,-0.5454525927104056,-1.8751994136065244,3.3360417810082432
1772790451361385000,15.308385009765624,-0.5398199936509132,-1.8584025925844907,2.3631577025949952
1772790451381418800,15.328418701171875,-0.4058803097605705,-2.0047686273276804,1.4098743967086076
1772790451401451800,15.34845166015625,-0.12208572609797119,-2.031219411879778,0.7096934529706835
1772790451421484800,15.36848486328125,0.15107304339036345,-2.1293191361039874,0.21127952868044375
1772790451441517800,15.388517822265625,0.4391057030141353,-2.163088134714961,-0.09523848957419395
1772790451461550600,15.408550537109376,0.5163153455533087,-2.181803356578946,-0.1153612401485443
1772790451481583900,15.428583984375,0.6847743349652737,-2.1305448785066603,0.15559797346889973
1772790451501616600,15.44861669921875,0.6474817653380334,-1.9377572843283413,0.7492147314980626
1772790451521650000,15.46864990234375,0.5409668255984783,-1.6024404570907353,1.4792638670161367
1772790451541682700,15.4886826171875,0.5485889910399914,-1.1622118875265122,2.262599187041819
1772790451561716000,15.508716064453125,0.5952559035383165,-0.7972107006430625,3.002162293097377
1772790451581748700,15.528748779296874,0.7830921589195727,-0.9164455673545598,3.534700897568464
1772790451601781800,15.54878173828125,1.2349860318362713,-1.5282073461443184,3.872175487361848
1772790451621814800,15.568814697265625,2.2962416366636753,-2.0781769778877495,4.2609599931538105
1772790451641848800,15.588848876953126,3.597506605571508,-1.4808300934195517,4.984651868599653
1772790451661881900,15.6088818359375,4.149226295852661,-0.9318535643666982,5.228249028038978
1772790451681915000,15.628914794921876,4.013536553424596,-0.6152028591543436,5.0423757432937615
1772790451701947600,15.64894775390625,3.1898972800612446,-0.8973813859224319,4.630275243844092
1772790451721981000,15.66898095703125,2.2354770790994167,-1.358183372437954,4.409709123641252
1772790451742013700,15.689013671875,1.332059920144081,-1.789832914227247,4.447337428028881
1772790451762046700,15.709046630859374,0.5385796382009983,-2.0229396593123674,4.641551840139925
1772790451782079700,15.729079833984375,-0.15828867385759948,-1.745261366572976,4.7025665730729695
1772790451802112800,15.74911279296875,-0.7844808367989957,-1.1289560991346836,4.380900377786159
1772790451822145800,15.769145751953126,-1.2881158567383884,-0.5406394933402539,3.7619998331576583
1772790451842178800,15.7891787109375,-1.482538066381216,0.05573883835673332,3.1138264322936533
1772790451862211600,15.809211669921876,-1.5200398217797277,0.8584177412778139,2.66367618817389
1772790451882244400,15.829244384765625,-1.6554010629057883,1.9645108512192964,2.303278111171722
1772790451902277400,15.84927734375,-1.8038266605272888,2.8263749335587023,1.8955442824989557
1772790451922311400,15.8693115234375,-1.787934387129545,3.5531653595417736,1.4377034838765859
1772790451942344400,15.889344482421874,-1.8617972034588455,4.145234011346101,0.9550953237444162
1772790451962377500,15.90937744140625,-2.081271729032695,4.3739650255650275,0.408594829416275
1772790451982410500,15.929410400390625,-2.2953926186189055,4.365322284904122,-0.1832926206022501
1772790452002443300,15.949443359375,-2.463167644354701,4.192152998909354,-0.7830325376868248
1772790452022476500,15.9694765625,-2.699105228951573,3.884329743275046,-1.2687258043527603
1772790452042508300,15.98950830078125,-2.828942153698206,3.6113702957510947,-1.5109031601220368
1772790452062541600,16.00954150390625,-2.820072910805046,3.426374378362298,-1.7402075903147458
1772790452082574300,16.02957421875,-2.494637426112592,3.4118782354980706,-2.0140023196190593
1772790452102607600,16.049607666015625,-2.073914059746265,3.588629471632838,-2.3511726657688614
1772790452122640400,16.069640380859376,-1.5928279946148394,3.9188296865090724,-2.6636434549480676
1772790452142673400,16.08967333984375,-1.1122706295326352,4.1467935157477855,-3.1934932587265967
1772790452162706400,16.10970654296875,-0.487283166205883,4.334644822567701,-3.707074064749479
1772790452182739500,16.129739501953125,-0.023995792615413663,4.513087957312166,-3.962364000070095
1772790452202773200,16.149773193359376,0.4048167721822858,4.68590214625895,-4.354708536431193
1772790452222806500,16.169806640625,0.8237269516468048,4.817605449399352,-4.897534141638875
1772790452242839300,16.18983935546875,1.168449759002775,4.805357962244749,-5.3265761312782764
1772790452262872600,16.20987255859375,1.360862820780277,4.714190083110332,-5.538351334521174
1772790452282905300,16.2299052734375,1.402010823726654,4.379375652436912,-5.574183110880852
1772790452302938400,16.2499384765625,1.4884158723734318,3.855824656541645,-5.466820468270778
1772790452322971400,16.269971435546875,2.0082816038846967,3.734624334976077,-4.898279407048225
1772790452343004400,16.29000439453125,2.6616473126947877,4.6053927315220236,-4.101021360132098
1772790452363037400,16.310037353515625,2.342582970469445,5.521811118608713,-3.5617519861012696
1772790452383070500,16.330070556640624,1.5622655369602143,6.247744050979614,-3.1187779172211885
1772790452403103200,16.350103271484375,0.8560568573653697,6.978295875322818,-2.5413556304067373
1772790452423136500,16.370136474609374,0.26791210100650786,7.323482939189672,-2.16532802259624
1772790452443169300,16.390169189453125,-0.3418544123128056,7.082941660189628,-1.7341612958878279
1772790452463206700,16.41020654296875,-1.0438909207895397,6.355206062310934,-1.1076245572924612
1772790452483239400,16.430239501953125,-1.6558800785943866,5.496383831885456,-0.3157645700275898
1772790452503272400,16.4502724609375,-2.072467660330236,4.502685513502359,0.37304070095419883
1772790452523305500,16.470305419921875,-2.3896739535987375,3.4236429075717925,1.1837579489022492
1772790452543338500,16.49033837890625,-2.7717937408044935,2.199034477365017,2.02483701736629
1772790452563371500,16.51037158203125,-2.9030896321877835,0.9977975703954696,3.0852427273660896
1772790452583404500,16.530404541015624,-2.936981672656536,0.45700317875444885,4.634105908048153
1772790452603437300,16.550437255859375,-3.1076044890388843,-0.0961684639006853,6.056510700505972
1772790452623470600,16.570470703125,-3.1376702492177486,-0.9422428564339875,7.097481057673693
1772790452643503400,16.59050341796875,-2.8825322895884513,-1.5832792450249193,7.804573680496215
1772790452663536600,16.61053662109375,-2.567363639627397,-2.133863793796301,7.906023884192108
1772790452683569400,16.6305693359375,-2.293174358047545,-2.577777773874998,7.405550981545447
1772790452703602400,16.6506025390625,-2.121076500676572,-2.70024913828969,6.722194623619318
1772790452723636500,16.670636474609374,-2.0215891214862465,-2.390510404422879,5.964731411474943
1772790452743669500,16.69066943359375,-2.1537606266602873,-2.0919109042078254,4.964449038526416
1772790452763702300,16.710702392578124,-2.3548645060241222,-1.8543243833601473,3.888611658377945
1772790452783735600,16.730735595703123,-2.379531329768896,-1.6971435246139763,2.8499320424959063
1772790452803768300,16.750768310546874,-2.2645655186787246,-1.6513076561123132,1.9676976645618676
1772790452823801600,16.770801513671874,-2.0164120111092925,-1.7148627211779355,1.2719395057022571
1772790452843834400,16.79083447265625,-1.5829261938035488,-1.7857856846630573,0.9017921881020069
1772790452863867600,16.81086767578125,-0.9476971763171255,-1.8375573729544876,0.5359551349163055
1772790452883901000,16.83090087890625,-0.19894334032908081,-1.7189251483112573,0.23643267463743686
1772790452903933700,16.85093359375,0.42074820854663847,-1.5876877091169357,0.25422522869855163
1772790452923967000,16.870967041015625,0.6054968731760978,-1.3132190260738135,0.8292778637722135
1772790452943999700,16.890999755859376,0.82359360759072,-0.7785404869645833,1.7848413895502686
1772790452964032800,16.91103271484375,1.2909376361608504,-0.002782324194908142,2.497517365463078
1772790452984067000,16.931067138671875,2.0105951415240764,0.49493163513243194,3.401069548974931
1772790453004099800,16.951099853515625,3.5505823573112485,0.5602227302104235,4.290314097931981
1772790453024132900,16.9711328125,5.438155514800548,0.33122926566302774,4.488916808129847
1772790453044166000,16.991165771484376,7.223083705851435,-0.32553719150125976,3.759529935912788
1772790453064198700,17.01119873046875,8.554490715044736,-0.9828250421911477,2.9324983897626398
1772790453084232000,17.03123193359375,8.963098988464473,-1.8513789775580167,1.8768354903757571
1772790453104264700,17.0512646484375,8.689933204713464,-2.285978601324558,1.3636302396669984
1772790453124298000,17.071298095703124,7.580413627454638,-2.0809294914662835,1.730707063780725
1772790453144330800,17.091330810546875,5.857078261485696,-0.7824561991035938,2.8216972971364855
1772790453164363800,17.11136376953125,3.8762539888471363,1.2139929281681776,3.8879900193482637
1772790453184396800,17.131396728515625,1.6690677692085503,2.3249176960498095,4.251349576504528
1772790453204429800,17.151429931640624,-0.0011608239402994512,2.4493822801083325,4.2914208901301025
1772790453224462800,17.171462890625,-1.1062380713701248,1.9593086064010858,4.558531903886795
1772790453244496000,17.191495849609375,-1.9533422453425824,1.1768120752871036,4.80039478687942
1772790453264528600,17.211528564453126,-2.7059306910574437,0.36049978381097314,4.430940127718449
1772790453284563000,17.23156298828125,-3.0512901888817545,-0.49280923615098,3.8270588730454445
1772790453304596000,17.251595947265624,-2.88219911211133,-0.8451239599406719,3.2272134497597813
1772790453324628700,17.271628662109375,-2.3084043681442736,-0.7638239793479442,2.6684090619146823
1772790453344662000,17.291662109375,-1.7430708707913756,-0.6284855345755815,2.003267575114965
1772790453364694800,17.31169482421875,-1.1861527350842953,-0.41652328432798386,1.4550304662525653
1772790453384728000,17.33172802734375,-0.6809599643088877,0.061977440485358234,0.8762707933545112
1772790453404760800,17.3517607421875,-0.41189504000544547,0.23535130914151667,0.5712970819324255
1772790453424793900,17.3717939453125,-0.11553688897639512,0.5646662656158209,0.6386404333651066
1772790453444827000,17.391826904296874,-0.0735002666272223,1.11126379057765,1.0130828178107738
1772790453464860000,17.41185986328125,-0.4288149028852582,1.810702683776617,1.568897083929181
1772790453484893000,17.431892822265624,-1.2081982704147696,2.2804314885914323,2.0591297475904224
1772790453504926000,17.451926025390627,-2.0531769766658545,2.5149352409929038,2.333847436958551
1772790453524959000,17.471958984375,-2.796255397365987,2.4907553239822384,2.477283847990632
1772790453544991700,17.49199169921875,-3.410416930773854,2.3493787680894136,2.4982319434732196
1772790453565024800,17.512024658203124,-3.9337177513003345,2.2626690374076364,2.396642623567581
1772790453585058800,17.532058837890624,-4.381052353477478,2.3457792822927237,2.3401596888452767
1772790453605091800,17.552091796875,-4.735682952994108,2.719952786669135,1.9957026928186417
1772790453625124900,17.572124755859374,-4.889775198075175,3.2409728027820583,1.3770990853101015
1772790453645158000,17.592157958984377,-4.707165883561968,3.9295927803248163,0.5386147095143795
1772790453665191000,17.61219091796875,-4.235501142248511,4.412184573844075,-0.5148708458334207
1772790453685224000,17.632223876953127,-3.486240525782108,4.965568397945165,-1.616872302547097
1772790453705257000,17.652257080078126,-2.643829331931472,5.425950697743892,-2.769437240806222
1772790453725289700,17.672289794921873,-1.751820578958094,5.932326102432608,-3.662832187440991
1772790453745323000,17.692322998046876,-0.7410384393051266,6.17844898095727,-4.559246774157882
1772790453765355800,17.712355712890623,0.5234931282281875,6.242235516691207,-5.698353095906972
1772790453785389000,17.73238916015625,1.8687223265469073,6.13299772785902,-6.84643592031598
1772790453805421800,17.752421875,3.0616543465077877,5.731933293947577,-7.27973498287797
1772790453825454800,17.772454833984376,3.7388603651106354,5.572818836790323,-7.156390342760085
1772790453845487900,17.79248779296875,4.046154043912887,5.185128263714909,-7.132884964010119
1772790453865520600,17.812520751953127,4.441892898887396,4.868672496552765,-7.304944242936372
1772790453885554700,17.8325546875,4.818161914238334,4.618590066747367,-6.94058310752213
1772790453905587700,17.852587646484373,5.024779296326637,4.4015734557196495,-6.288149126604199
1772790453925620700,17.872620849609376,5.108525501027703,4.616952236412465,-5.3199505756586785
1772790453945653800,17.89265380859375,4.9222903972327705,5.642989520603418,-4.329714964950084
1772790453965686800,17.912686767578126,4.113398611146211,7.915002724939584,-3.269848184132576
1772790453985719800,17.9327197265625,1.9681097524940967,9.886813670039176,-2.690526785698533
1772790454005752800,17.9527529296875,0.12451032289639115,10.514821650230884,-1.932041829290986
1772790454025785600,17.97278564453125,-0.8490310503818094,10.465189896577597,-0.13329320268034933
1772790454045819000,17.99281884765625,-1.6301766052782534,10.008022467172145,2.154807213103771
1772790454065851600,18.0128515625,-2.289745552642643,8.84277574199438,4.116530479431152
1772790454085885000,18.032885009765625,-2.489557054108381,7.276079382979869,5.892478076168895
1772790454105917700,18.052917724609376,-2.5324127377554775,4.940969963261485,7.134094339799881
1772790454125950700,18.07295068359375,-2.2024983540832994,2.8886142398506403,8.618522165450454
1772790454145983700,18.092983642578126,-2.1610791329801082,0.6540700576871633,9.81282255115509
1772790454166016800,18.113016845703125,-1.9124308276310562,-1.9320482590317725,10.366870976644753
1772790454186050600,18.133050537109376,-1.2080375268951058,-3.3839608855247496,11.03503327257037
1772790454206083800,18.153083740234376,-0.4430922884322703,-4.547434755811095,10.661645365613698
1772790454226116600,18.17311669921875,0.1815516221538186,-4.8968613569438455,9.706447750538587
1772790454246150000,18.19314990234375,0.553293223208189,-4.3093081367373465,8.62026345615983
1772790454266182700,18.2131826171875,0.3127648036897182,-3.6310038015037773,7.252693831217289
1772790454286215700,18.233215576171876,-0.45550884854346513,-2.6591426363974806,6.208882113143801
1772790454306248700,18.253248779296875,-1.3293304951801896,-1.7312673280119895,4.978498606666922
1772790454326281700,18.27328173828125,-2.2341829476356505,-1.1079033742338418,3.727672908402979
1772790454346314800,18.293314697265625,-2.8614158518016337,-0.6783335613280534,2.5410788592919706
1772790454366347800,18.31334765625,-3.2101796051114797,-0.4715297167569399,1.4157541023969649
1772790454386380800,18.333380859375,-3.451624554952979,-0.26157237659096716,0.6311433556079864
1772790454406413800,18.353413818359375,-3.6053503048092126,-0.3255138106256723,-0.04975859490334987
1772790454426446600,18.373446533203126,-3.271039439743757,-0.3301858940899372,-0.6075719258844852
1772790454446480000,18.39347998046875,-2.592121941047907,-0.4381856655597687,-1.4929320346236228
1772790454466512600,18.4135126953125,-1.7926421264290808,-0.367478975173831,-1.984523127156496
1772790454486546700,18.433546630859375,-1.2706652479827403,-0.4861024319887161,-2.4139251822799443
1772790454506579700,18.453579833984374,-1.0272364308476447,-0.5165606986165047,-2.5348802969127893
1772790454526612700,18.47361279296875,-0.8609177414000034,-0.3268915287196636,-2.5993606601297854
1772790454546645800,18.493645751953125,-0.5868611462891101,-0.003927402576804161,-2.2499247066467998
1772790454566678800,18.5136787109375,0.04997326056733727,0.7183487608522177,-1.7599030553877353
1772790454586711600,18.533711669921875,1.0624493446566163,1.9282979665875433,-0.8269108423799276
1772790454606744800,18.553744873046874,2.6906395984232425,2.797865462911129,0.32837504527568817
1772790454626777600,18.573777587890625,4.951806414574384,3.0711937437474726,1.9266081138044595
1772790454646811000,18.593810791015624,7.542485755598545,3.9650744280725716,3.8808836944743987
1772790454666843600,18.61384375,8.890611844402551,4.111525803011656,5.0665579983919855
1772790454686876700,18.633876708984374,8.87606718622148,3.4588217729806896,6.1953983621925115
1772790454706909700,18.65390966796875,7.6164377115160224,1.7983529052913187,7.03161362401247
1772790454726942700,18.673942626953124,6.044734337994456,-0.6995633963614701,7.229413493394851
1772790454746975700,18.693975830078124,5.329858221688866,-2.38299286839962,7.37811352404356
1772790454767008800,18.7140087890625,4.8648283883452414,-3.5402614543050523,6.741644004976749
1772790454787042600,18.73404248046875,4.675773550954461,-3.4215409668564796,6.140988142091035
1772790454807075800,18.754075927734377,4.1730642675578595,-3.119572866991162,5.346947888177633
1772790454827108600,18.774108642578124,3.5565783828556534,-3.264267753651738,4.6410678560152645
1772790454847141600,18.7941416015625,2.982422404360771,-3.6539223202764988,4.213081220647693
1772790454867174700,18.814174560546874,2.4777076263606546,-3.5846687513083215,4.260398559878766
1772790454887207700,18.834207763671873,1.7597721224844454,-2.948111553958058,4.009664972688258
1772790454907240700,18.85424072265625,0.9202022895395755,-2.1635732878834006,3.732900579923391
1772790454927273700,18.874273681640624,0.034656302839517594,-1.0429963100373745,3.589634264761209
1772790454947306800,18.894306640625,-0.8073777282617985,0.06089665951132774,3.744349902437627
1772790454967339800,18.91433984375,-1.5531215687789022,0.8927601558625697,4.1318060822352765
1772790454987372500,18.93437255859375,-2.2017416904971,1.1605980225890875,4.458551772743463
1772790455007405800,18.95440576171875,-2.753227864283323,1.1040484523713587,4.649615027347207
1772790455027438600,18.9744384765625,-2.955176377777755,1.0819283904999495,4.935409991046786
1772790455047471900,18.994471923828126,-3.0790207841113206,1.338725807774067,5.1784232131183145
1772790455067504600,19.014504638671873,-3.359534300276637,1.5395079078376293,5.07617279895544
1772790455087538700,19.03453857421875,-3.4842104812592267,1.9951018043160438,4.878995445385575
1772790455107571700,19.05457177734375,-3.410640802657604,2.6327847908258435,4.442856190961599
1772790455127604700,19.074604736328126,-3.26273455273509,3.3389398405373094,3.5914901217609643
1772790455147637500,19.094637451171874,-2.9174925438106056,3.8930642538726326,2.1922774043202398
1772790455167670800,19.1146708984375,-2.4730957486510277,4.266326488623023,0.8233288922399282
1772790455187703600,19.13470361328125,-2.017399560841918,4.987235455352067,0.0124175830245018
1772790455207736800,19.15473681640625,-1.6862275783240794,5.991847381937504,-0.7361170572549104
1772790455227769600,19.17476953125,-1.532430516797304,6.516023231732845,-2.0227531968295573
1772790455247802600,19.194802734375,-1.108798277246952,6.538553043448925,-3.5984950320869684
1772790455267835600,19.214835693359376,-0.6219339209750294,6.272289878693223,-4.593812476104498
1772790455287868700,19.23486865234375,-0.3928077699586749,5.739792190754414,-5.2023114537060255
1772790455307901700,19.254901611328126,-0.14137889398038386,5.508296972519159,-5.104435601365566
1772790455327934700,19.274934814453125,0.36755993145555255,6.356938585191965,-4.830839024981856
1772790455347967700,19.2949677734375,-0.20184125372767447,6.924284883671999,-5.501497813898324
1772790455368000800,19.315000732421876,-0.8588096632048487,7.4269596802771085,-6.00166442707479
1772790455388034600,19.33503466796875,-1.5328478654265403,7.8074284854054445,-6.732538322979211
1772790455408067600,19.355067626953126,-1.6884145669743418,7.553076123195886,-7.3524196953386065
1772790455428100600,19.3751005859375,-1.3355012927696108,6.878022314190864,-7.749940757554769
1772790455448133600,19.395133544921876,-0.5099158537745475,5.807022729462385,-7.5796344597756855
1772790455468166700,19.415166748046875,0.37327655553668737,4.718665182697773,-7.108555409395694
1772790455488199700,19.43519970703125,1.3583093369051813,3.899790931779146,-6.403213429632783
1772790455508232700,19.455232666015625,2.3849809734769165,3.325134602546692,-5.5509092027992
1772790455528265700,19.475265625,3.19862565317899,3.144804631142318,-4.503026874285936
1772790455548298500,19.495298583984376,3.4057705662727353,3.0315079223081467,-3.3806279417097564
1772790455568331800,19.515331787109375,3.194027803994715,3.231633896550536,-1.8941940369337795
1772790455588364500,19.535364501953126,2.2969171978376806,4.058351262184977,-0.06534837822318076
1772790455608397800,19.555397705078125,0.6366369845882057,4.832744566342234,1.585262527796626
1772790455628430600,19.5754306640625,-1.314317927226424,4.976027832639217,2.818407900202274
1772790455648463600,19.595463623046875,-2.7034724842503666,4.180333381778001,3.7382261588603254
1772790455668498000,19.615497802734374,-3.27398981398195,2.6049329073041676,4.0512586735755205
1772790455688530700,19.63553076171875,-3.242252905720472,1.0616665237158536,4.364306970381737
1772790455708563500,19.6555634765625,-2.771328169119358,0.16128244884610174,4.666980588167905
1772790455728596700,19.6755966796875,-2.3354288609310982,-0.3625549627751112,4.396152307453751
1772790455748629500,19.69562939453125,-1.7949372516289352,-0.5474760613620281,3.5635493909120557
1772790455768662800,19.715662841796874,-1.2213245862305164,-0.4627168802261352,2.7368209193617106
1772790455788695600,19.735695556640625,-0.7156640518128872,-0.4382698367118835,1.803565086981654
1772790455808728600,19.755728515625,-0.5141124286815524,-0.5644768805235624,1.0049474421501159
1772790455828761600,19.77576171875,-0.6011491993606091,-0.7347568748176098,0.5948164892077445
1772790455848794600,19.795794677734374,-0.927042364692688,-0.6929325800448656,0.5121814606189727
1772790455868827400,19.815827392578125,-1.540421807812154,-0.49957332345843314,0.6083861648768186
1772790455888860400,19.8358603515625,-2.305560961411893,-0.2109814225167036,0.7049804529741406
1772790455908893400,19.8558935546875,-2.9228809588506817,0.17787936338186264,0.688713208784163
1772790455928926500,19.875926513671875,-3.252111744172871,0.5657388632833957,0.8371867372006178
1772790455948959200,19.895959228515625,-3.357195335935056,0.8094681246697902,1.4400637832671404
1772790455968993500,19.91599365234375,-3.305700711019337,0.9438345095396041,2.4503426495730873
1772790455989026600,19.936026611328124,-3.0339798653796315,0.8768670056819915,3.1666449992895123
1772790456009059300,19.956059326171875,-1.9976345376640556,1.196955284127593,4.736590130966902
1772790456029092600,19.976092529296874,-0.8799822150930762,1.5294441944628954,6.012305063554645
1772790456049122300,19.996122314453125,0.15530775835067032,1.0232517451256513,6.859263837707043
1772790456069155300,20.0161552734375,1.1824418978676199,0.18726210875511168,7.5864154982179395
1772790456089188400,20.036188232421875,1.9858476537585257,-1.2461644284546374,7.991517224821448
1772790456109221400,20.056221435546874,2.6963497927635904,-2.8873341369122265,8.429294309580326
1772790456129254400,20.07625439453125,3.315994141496718,-4.201259849950671,8.877861083900928
1772790456149287400,20.096287353515624,3.698877022029459,-4.9841585321247575,8.61099235446751
1772790456169320400,20.116320556640623,3.7880037507250903,-4.927422499424219,7.698574727454781
1772790456189353500,20.136353515625,3.303495602190494,-4.536473801335692,6.426030241596698
1772790456209386200,20.15638623046875,2.608791044037044,-4.09021822656691,5.263426139882206
1772790456229419500,20.17641943359375,1.6917907654091715,-3.742982997998595,4.578900738176703
1772790456249452300,20.196452392578124,0.66673956964612,-3.419050319084525,4.340139912852645
1772790456269485600,20.216485595703126,-0.25936083802133797,-2.828701330679655,4.416099409200251
1772790456289518300,20.236518310546874,-1.2221902631491421,-2.091310015705228,4.39526880261749
1772790456309551400,20.25655126953125,-1.8700003836587071,-1.2224772633969783,4.438597656734287
1772790456329585400,20.27658544921875,-2.24710848018229,-0.18718553638756275,4.536089185932278
1772790456349618400,20.296618408203123,-2.35109170948714,0.8588555481731891,4.845308279839157
1772790456369651200,20.316651123046874,-2.2083093784496186,1.9726719458431003,5.07014988540411
1772790456389684500,20.3366845703125,-2.0154665469527244,3.0511633476316926,5.302953263628482
1772790456409717200,20.35671728515625,-1.9546318467617034,3.693351244345307,5.2525926111787555
1772790456429750500,20.37675048828125,-1.9998188959658145,4.143002306771278,5.156479092335701
1772790456449786400,20.396786376953123,-2.106360577581823,4.442460469642281,4.943952193942666
1772790456469819600,20.416819580078126,-2.2981857564687727,4.570335738927126,4.559209949278832
1772790456489852400,20.436852294921874,-2.4172069804295897,4.928081255593896,4.055074432471394
1772790456509885400,20.456885498046876,-2.6361855391800404,5.426816374662518,3.3393203642874956
1772790456529919500,20.47691943359375,-2.804087113904953,6.102872054186463,2.5500474709063767
1772790456549952500,20.496952392578127,-2.903437422712147,6.74675272629261,1.5724924780726433
1772790456569985300,20.5169853515625,-2.91888312138617,7.285798812961578,0.3708797235280275
1772790456590018600,20.5370185546875,-2.776225293511152,7.651679120767116,-1.0321832396000623
1772790456610051300,20.55705126953125,-2.5351421627193687,7.9120830381006,-2.4204542917877436
1772790456630084600,20.577084716796875,-2.1512463057518003,7.976132024163007,-3.834590437594056
1772790456650117400,20.597117431640626,-1.6361486654251813,7.72877112827599,-5.125352717188
1772790456670150400,20.617150390625,-0.9905424847006797,7.37044810398221,-5.9362704561442134
1772790456690183400,20.637183349609376,-0.46777416361570356,6.895781842765212,-6.3215171431988475
1772790456710216400,20.657216552734376,-0.20969430531561373,6.360118968793749,-6.545758444783091
1772790456730249500,20.67724951171875,-0.19644860090389846,5.955569030854106,-6.723997873649001
1772790456750282500,20.697282470703126,-0.3006500030040741,5.6151253621220585,-6.819864724254607
1772790456770315500,20.7173154296875,-0.16152560995221138,5.525791712677479,-6.517492719763517
1772790456790348500,20.7373486328125,0.34904520059973,6.052631813246012,-6.131024966481328
1772790456810381300,20.75738134765625,0.3588251285970211,6.319253874441981,-6.1488178128033875
1772790456830414600,20.77741455078125,0.3819488145530224,6.5536676104724405,-6.142138481169939
1772790456850448400,20.797448486328125,0.6958394074022769,7.129740820765495,-5.891896476888657
1772790456870481700,20.817481689453125,0.9451008762136102,7.754335193121433,-5.477337186110019
1772790456890515000,20.837514892578124,1.3028656821027398,7.984066324293613,-5.342821748158335
1772790456910547700,20.857547607421875,1.9370576116263865,7.925251731753349,-5.060689983141422
1772790456930580700,20.877580810546874,2.40076584097743,7.642469978395104,-4.259987933251262
1772790456950613800,20.89761376953125,2.414036972091347,7.262980247431993,-3.0744787567675114
1772790456970646800,20.917646728515624,1.9296166479706762,6.805185041517019,-1.623235992360115
1772790456990679800,20.9376796875,1.222488953834772,6.3988879676491015,0.1327016665279865
1772790457010712800,20.957712890625,0.4721496022209525,5.964533258554339,1.9387194073587655
1772790457030745900,20.977745849609374,-0.17488661130666733,5.414678777623176,3.6593203799277543
1772790457050779000,20.99777880859375,-0.7830958121813834,4.635836092841625,5.340923221060633
1772790457070811600,21.017811767578124,-1.314213590069115,3.420554878428578,7.028413951188326
1772790457090845000,21.037844970703127,-1.4909668720304965,2.6222628122895952,9.286298092406987
1772790457110879000,21.05787890625,-1.7047934548452495,1.1479553986370563,10.772634382027388
1772790457130911700,21.077911865234373,-1.6029659422695637,-0.7289163320958614,10.993455061513185
1772790457150945000,21.097945068359376,-1.2503247630044818,-2.0185458082675933,10.318113667738437
1772790457170977800,21.117977783203123,-0.8462111706554889,-2.633983060699701,8.918985705971718
1772790457191011000,21.138010986328126,-0.6291606573581695,-2.457048284691572,7.558222838434577
1772790457211043800,21.1580439453125,-0.5384837766110897,-2.0298755960553883,6.101604226207733
1772790457231076900,21.178076904296876,-0.8323618012621998,-1.4364467618137597,4.503500044755637
1772790457251110000,21.19810986328125,-1.1442884005621075,-0.9568336918443441,2.720987682674825
1772790457271143000,21.218142822265627,-1.3048022031232713,-1.065616138124466,0.853935919688642
1772790457291176000,21.238176025390626,-1.281503452861309,-1.3029320253372192,0.016547522436082363
1772790457311209000,21.258208984375,-1.4708672100707887,-1.6286995184630155,0.15435791027992962
1772790457331241700,21.27824169921875,-1.877253423526883,-2.015638396388292,0.6878399330809712
1772790457351275000,21.29827490234375,-2.3594456963345407,-2.46913678189218,1.3428317817881703
1772790457371307800,21.318307861328126,-2.3649779037594794,-2.833695485705137,1.7693264250323175
1772790457391340800,21.3383408203125,-1.74599055763036,-2.8537025009453294,2.0171020392000676
1772790457411374800,21.358374755859376,-0.7123299389541149,-2.2221990798532962,2.14240658121407
1772790457431407900,21.378407958984376,0.23193112543448804,-1.543967809855938,2.542859020707011
1772790457451441000,21.39844091796875,0.9340694868505001,-0.8675754457235336,3.140871383346617
1772790457471474000,21.418473876953126,1.591420758165419,-0.615254297080636,3.759160518078506
1772790457491506700,21.438506591796877,2.3320262128807605,-0.7308183663249015,4.278036507900059
1772790457511540000,21.4585400390625,3.105839525192976,-1.159671555393934,4.667055991491675
1772790457531572700,21.47857275390625,4.074728981012106,-0.9302946444869041,5.206237102717161
1772790457551606000,21.49860595703125,4.468105198508501,-0.4540998585283756,5.4207496219694615
1772790457571638800,21.518638671875,4.555493559104204,-0.31594284920394416,5.322413166379929
1772790457591672000,21.538672119140625,4.2538720807194705,-0.31778760028779507,5.047023861360549
1772790457611704800,21.558704833984375,3.6726153303086755,-0.6374854181110858,4.843443947272003
1772790457631737900,21.57873779296875,2.8500433939158913,-0.9669967739403247,4.816835634070634
1772790457651771000,21.59877099609375,1.9332490131236613,-1.3154828793525695,4.667687275132536
1772790457671804000,21.618803955078125,1.1854302660286427,-1.453768483492732,4.294446083170175
1772790457691837000,21.6388369140625,0.6003096797965467,-1.3161807984888554,3.6350843488156794
1772790457711871000,21.65887109375,0.04000833139196038,-1.1147276672959328,2.9135858917608854
1772790457731903700,21.67890380859375,-0.5936711185649037,-0.9252414527505636,2.3804323702618477
1772790457751937000,21.69893701171875,-1.2009677346393466,-0.8026368173450231,2.148975730471313
1772790457771969800,21.7189697265625,-1.787100858914852,-0.6786077020943164,2.0365970132648945
1772790457792002800,21.7390029296875,-2.349586565621197,-0.5813865142703056,1.9455922157377004
1772790457812035800,21.759035888671875,-2.6843036733999845,-0.033247020563483234,2.080124604824185
1772790457832068900,21.77906884765625,-3.025132542057335,0.5218798478126525,2.0869144110947846
1772790457852102000,21.799101806640625,-3.2049896352529523,1.0757955868333577,2.31639361333251
1772790457872134700,21.819134765625,-3.222716722862422,1.8865104966938495,2.750188350456953
1772790457892167700,21.839167724609375,-3.3017388216510413,2.485459555661678,3.019060236406326
1772790457912200700,21.85920068359375,-3.4650890166819095,3.041621612304449,3.165730222532153
1772790457932233500,21.8792333984375,-3.768213300845027,3.1828461925059557,3.044378217536211
1772790457952266800,21.899266845703124,-4.1195264463767405,2.9631694223582743,2.9136370374262333
1772790457972299500,21.919299560546875,-4.375871151447296,2.685292976698279,2.8594594570368526
1772790457992332800,21.939332763671874,-4.533275005294382,2.53849731836617,2.8830244570195673
1772790458012365600,21.959365478515625,-4.652029102751612,2.658330735492706,2.8420050488889217
1772790458032399600,21.979399658203125,-4.783946925425529,3.01177943174839,2.493147187554836
1772790458052433000,21.999432861328124,-4.828064299571514,3.4265018041342494,2.0217747071862218
1772790458072465700,22.019465576171875,-4.822554596239328,3.854721371474862,1.3031067973822354
1772790458092498700,22.039498779296874,-4.59964600456357,4.375022717924415,0.5287210920095443
1772790458112531700,22.05953173828125,-4.441476134780049,4.884401396082342,-0.29716508349776266
1772790458132564700,22.079564697265624,-4.310740215367079,5.264012415337562,-1.1914455807954072
1772790458152597800,22.09959765625,-4.064591617879271,5.712219124174117,-1.95458216240108
1772790458172630800,22.119630859375,-3.69722545543015,6.226171686118841,-2.558307349729538
1772790458192663600,22.13966357421875,-3.091864483593404,6.712179425561428,-3.095249742117524
1772790458212696800,22.15969677734375,-2.412568214713037,6.624552580034733,-3.9021810417860743
1772790458232729600,22.1797294921875,-1.5427356377124786,6.209180803829431,-4.603223278528452
1772790458252763000,22.199762939453127,-0.739711574615538,5.721828079518676,-5.122862069416046
1772790458272795600,22.219795654296874,-0.10375175863653421,5.387725304245948,-5.434475364983082
1772790458292828700,22.23982861328125,0.6615358635231852,5.544657741189003,-5.304164977505803
1772790458312861700,22.25986181640625,1.2369604006491601,6.001974808198213,-5.055331670978665
1772790458332895700,22.279895751953124,1.5777343242488802,6.215799345186352,-5.1173231399893755
1772790458352928500,22.299928466796874,2.198413861248642,6.053613810020685,-5.463376465296745
1772790458372961800,22.3199619140625,3.2965362845718857,6.258304023438692,-5.584743667861819
1772790458392994600,22.33999462890625,4.2294554323434825,6.6268591034114355,-5.294982723140716
1772790458413027800,22.36002783203125,4.810757775461673,6.810471457487345,-4.801431144189834
1772790458433060600,22.380060546875,4.9864405055820935,6.944352689188718,-3.894666428372264
1772790458453094000,22.400093994140626,5.191107338124513,6.732386931809782,-2.637985282078385
1772790458473126700,22.420126708984377,5.212788424056768,6.059354984021186,-1.3336106567174195
1772790458493159700,22.44015966796875,4.6389890039145945,5.079266088795662,0.04102992952466011
1772790458513192700,22.460192626953123,3.5881682838618754,4.274270141103863,1.6540373733371496
1772790458533225700,22.480225830078126,1.9937084502615035,3.6314106287389993,3.112195031699538
1772790458553258800,22.5002587890625,0.22460706615671513,2.7216677738934756,4.324289432770014
1772790458573291800,22.520291748046876,-1.018145654158294,1.7725678911715745,6.146753281489015
1772790458593324500,22.540324462890624,-1.7411574383854864,1.4149842870682476,8.515193892922998
1772790458613357800,22.56035791015625,-1.9346540576159954,0.08426350657343865,10.027758264255523
1772790458633391600,22.5803916015625,-1.699259493854642,-1.2991799793273209,10.468451528722047
1772790458653424600,22.600424560546877,-1.434303612305224,-2.321678860259056,9.787825472542643
1772790458673457700,22.620457763671876,-1.3474001126170159,-2.8509312826663256,8.535417765784263
1772790458693490700,22.64049072265625,-1.6170003128409385,-2.6355472412765026,7.267617844104766
1772790458713523700,22.660523681640626,-1.9448776377275585,-2.176663655602932,5.877309148609638
1772790458733556700,22.680556640625,-2.3714663889959455,-1.5745745450437068,4.429375362619758
1772790458753589500,22.700589599609376,-2.6766797543928025,-1.3477525793164968,2.9658646527916193
1772790458773622800,22.720622802734376,-2.7524413900807496,-1.2170453014761209,1.6789450201004743
1772790458793655600,22.740655517578126,-2.548718852651119,-1.3427134161055088,0.6721174632921815
1772790458813688800,22.760688720703126,-2.1762077285289765,-1.43668875387609,0.03912643399089574
1772790458833721600,22.7807216796875,-1.7434215839251874,-1.5698901866197585,-0.23620851049274205
1772790458853755000,22.8007548828125,-1.191224339260161,-1.635408660712838,-0.07815700639188289
1772790458873787600,22.82078759765625,-1.0090263820268213,-2.1147283006936313,0.01543137788772583
1772790458893820400,22.8408203125,-0.8832488156735897,-2.2802952949911353,0.40843730076700446
1772790458913853700,22.860853759765625,-0.8173004257306457,-1.997467948925495,0.8724301922783255
1772790458933886500,22.880886474609376,-0.7682219220459461,-1.3784621903568506,1.0514040728986263
1772790458953920500,22.90092041015625,-0.7060019049763679,-0.5329617983192205,1.4616653742223977
1772790458973953500,22.92095361328125,-0.6521371899284422,0.15634031626880168,2.0803908545449374
1772790458993986600,22.940986572265626,-0.5353168370127678,0.311095993694663,2.714676892092824
1772790459014019600,22.96101953125,-0.07126067100688814,-0.10814005672335623,3.1187355393841862
1772790459034052600,22.981052490234376,1.1963500117108226,-0.858684283259511,3.2616794907242057
1772790459054085400,23.00108544921875,2.779225059849024,-1.5794629016071557,2.9974305884003636
1772790459074118700,23.02111865234375,4.432539379608631,-1.694167723673582,2.836946888716519
1772790459094151400,23.0411513671875,5.78899724342823,-0.8473761227816343,2.7958520772621034
1772790459114184700,23.061184814453124,6.163562377470732,0.14580956990420818,2.2218933749049903
1772790459134217500,23.081217529296875,5.868437275367975,0.962553823056817,2.0522075471118093
1772790459154250500,23.10125048828125,4.515771789568662,1.1799398519188165,2.3184011537626383
1772790459174283500,23.121283447265625,2.848697824525833,0.8456997140020132,2.754919470632076
1772790459194316500,23.141316650390625,1.4382513270176946,0.1678326011419296,3.2352082479059696
1772790459214349600,23.161349609375,0.373887088650465,-0.45960839281678195,3.447834515020251
1772790459234382600,23.181382568359375,-0.1986684689104557,-0.6035141749262809,3.236929080349207
1772790459254416400,23.20141650390625,-0.4920210083827376,-0.4486357479035854,2.3683722223728894
1772790459274449700,23.22144970703125,-0.49731122374534603,-0.22458792306482792,1.3093062365442514
1772790459294482400,23.241482421875,-0.4435726192951202,-0.013373860836029051,0.47297348582446574
1772790459314515700,23.261515625,-0.6159025318562984,-0.01058627594411373,-0.19087913020849226
1772790459334548500,23.281548583984375,-0.9328187561370432,-0.3140858231604099,-0.5095335764586926
1772790459354581500,23.30158154296875,-1.2646740447439253,-0.436484122338891,-0.5318623126447201
1772790459374614500,23.321614501953125,-1.6485691710591315,-0.2651297768115997,-0.38627252297103404
1772790459394647600,23.3416474609375,-1.974433110296726,0.23552958831787107,-0.27946634519994257
1772790459414680600,23.3616806640625,-2.2013623357906935,1.0419728122085332,-0.047585927039384836
1772790459434713600,23.381713623046874,-2.4579294514402745,1.616115346699953,-0.04191197305619716
1772790459454746400,23.401746337890625,-2.4409932219475508,1.887829762598872,-0.03777355807721615
1772790459474779600,23.421779541015624,-2.317688913840055,1.8659265583485365,0.12431027027964592
1772790459494812400,23.4418125,-2.2905533618941902,1.5758189921468495,0.44116497363150114
1772790459514845700,23.461845703125,-2.4740453044608235,1.2241086639910936,0.8172223920583724
1772790459534878500,23.48187841796875,-2.749440162438154,0.8621212719708681,1.1334452272474764
1772790459554911500,23.501911376953124,-2.9701491982430217,0.5987181728214025,1.3608786028712987
1772790459574945500,23.521945556640624,-3.1797768680632115,0.5733844096004963,1.441940683054924
1772790459594978600,23.541978515625,-3.3412107080787417,0.7423164964169263,1.3380115220248698
1772790459615011300,23.56201123046875,-3.465201829406619,1.0906997259765863,1.0543833809703589
1772790459635044600,23.582044677734373,-3.428899220664799,1.5834101779282093,0.5609130505621432
1772790459655077400,23.602077392578124,-3.286478416416049,2.0274410623848436,-0.1710749440640211
1772790459675110700,23.622110595703123,-2.9740789389073847,2.399175356915593,-1.0783043547838926
1772790459695143400,23.642143310546874,-2.4983143610596654,2.6942852614492176,-2.1623709263563153
1772790459715176700,23.6621767578125,-1.818395576366782,2.9813790327876806,-2.9832693765789267
1772790459735209500,23.68220947265625,-1.237655251045525,3.2905537030309437,-3.608751053163409
1772790459755242500,23.702242431640624,-0.7797337884023785,3.4059327710971234,-4.186829758059978
1772790459775275500,23.722275634765627,-0.2708388021081686,3.4015459343150254,-4.628197560787201
1772790459795308500,23.74230859375,0.21689824534505606,3.4144650371208787,-4.811521161049604
1772790459815341600,23.762341552734377,0.47686698613166806,3.3467671731621027,-4.884169048631191
1772790459835374600,23.78237451171875,0.477516097690165,3.1384274973258375,-4.861885905152559
1772790459855407400,23.802407470703123,0.4471510623037815,2.905757682353258,-4.743314470785856
1772790459875442200,23.822442138671875,0.8229574285790324,3.1364485984683035,-4.127736933100223
1772790459895475200,23.84247509765625,1.4971226181812582,4.334446377386152,-3.256876474356651
1772790459915508200,23.86250830078125,1.495287365578115,5.135570159819722,-2.8224025227963923
1772790459935541200,23.882541259765624,1.0286474666893481,5.184482951548695,-2.550124627795815
1772790459955574300,23.90257421875,1.0487724092207849,4.91207178555727,-1.9139479541957378
1772790459975607000,23.92260693359375,1.6557871396139263,4.421452752926945,-1.1932996842294932
1772790459995640300,23.942640380859373,2.081595846420526,3.7993805925250053,-0.6560042406201362
1772790460015673000,23.962673095703124,2.2977147779561578,3.1791391546815633,-0.17524784583449363
1772790460035706400,23.982706298828123,2.3288180644892154,2.5264877316206693,0.3010761194616556
1772790460055739100,24.0027392578125,1.9297053491674363,1.7323329114168882,0.761245068770647
1772790460075772200,24.022772216796874,1.1432757163882254,0.6561322509139775,1.1958587210625409
1772790460095805200,24.04280517578125,0.19024696978479622,-0.5274661235123872,1.5596405952841041
1772790460115838200,24.062838134765624,-0.6209915255583822,-1.5889520299643278,2.0543267312228677
1772790460135871200,24.082871337890627,-0.9612111762762069,-1.906890436899662,3.022227176004648
1772790460155904300,24.102904296875,-1.1941833351962268,-1.616846583583951,4.110250960770249
1772790460175937300,24.122937255859377,-1.530833895255625,-1.1838210772663353,4.863746438327431
1772790460195971300,24.142971435546876,-1.9538301749899982,-0.7642781528562307,5.128641821861267
1772790460216004000,24.163004150390623,-2.296523668475449,-0.5438502720803022,4.90718401351571
1772790460236037400,24.183037353515626,-2.5742577830553053,-0.642418198338151,4.436934984219074
1772790460256070100,24.203070068359374,-2.81958074337393,-0.9251648803830146,4.025146327197551
1772790460276103200,24.223103271484376,-2.9558637755200263,-1.1787719771832228,3.7538565664514896
1772790460296136200,24.24313623046875,-2.9235002597928044,-1.3690110559225082,3.347034007404744
1772790460316169200,24.263169189453127,-2.658197464501858,-1.5290455505341292,2.6761758965238926
1772790460336202200,24.2832021484375,-2.284890221565962,-1.597301340636611,2.149196095223725
1772790460356235300,24.3032353515625,-1.8212512580588458,-1.661933095023036,1.6642781968444584
1772790460376268000,24.32326806640625,-1.3565689229786395,-1.607724534973502,1.329738199198246
1772790460396301300,24.34330126953125,-0.9347723744228482,-1.6160995646089313,0.8438184303000569
1772790460416334000,24.363333984375,-0.4418415577188134,-1.548706528815627,0.414249494177103
1772790460436367400,24.383367431640625,0.08445406070947646,-1.414845755380392,0.09209551537334919
1772790460456400100,24.403400146484376,0.4333889328025281,-1.377571963518858,-0.23164076418578625
1772790460476433200,24.42343310546875,0.8056219706356524,-1.2552303629636763,-0.3629150282591581
1772790460496466200,24.443466064453126,1.0887048988975583,-1.0919932729184627,-0.3088350630253553
1772790460516500200,24.463500244140626,1.3729004645764826,-0.731917851999402,-0.03474105851352215
1772790460536533000,24.483532958984377,1.657351758582145,-0.19646599043011664,0.30416181051731106
1772790460556566300,24.503566162109376,1.9119794306017457,0.34715222645998,0.6510638616085052
1772790460576599000,24.52359912109375,2.0490053900696337,0.36617256875038146,0.7616559876590967
1772790460596632300,24.54363232421875,2.3036032514728606,0.059897711601853365,0.9158043468415736
1772790460616665000,24.5636650390625,2.535266665881872,-0.5212865580946207,1.178288577580452
1772790460636698400,24.583698486328124,2.8753087680757043,-1.0150666851043701,1.7400810413256287
1772790460656731100,24.603731201171875,3.3886230321168895,-0.535167199409008,2.707991715240478
1772790460676764200,24.62376416015625,3.202845608961582,-0.1012882911324501,3.167884185695648
1772790460696797200,24.643797119140626,2.626902162528038,0.15185411076545716,3.3347768756389615
1772790460716830200,24.663830322265625,1.773836888194084,0.07888941231966018,3.3870474533632398
1772790460736863200,24.68386328125,0.9668471363365649,-0.3836550339490175,3.3784891761153935
1772790460756896300,24.703896240234375,0.27757527075633404,-0.9714175129920244,3.4515397992789745
1772790460776929000,24.723928955078126,-0.245930863083899,-1.3984575151592493,3.4514614733457565
1772790460796962300,24.74396240234375,-0.6712330816730856,-1.437843184608221,3.2361686173707245
1772790460816996000,24.76399609375,-1.0196354543246329,-1.1809165879964827,2.659718098197877
1772790460837029000,24.784029052734375,-1.3558990608930588,-0.8039210119366645,2.026564279550314
1772790460857062100,24.804062255859375,-1.767997514516115,-0.46730829966962334,1.408687232750654
1772790460877094700,24.8240947265625,-2.203877533482015,-0.30865619932711125,1.0183768325656652
1772790460897127700,24.844127685546876,-2.6247934998109934,-0.3044400429368019,0.7413911982655524
1772790460917160700,24.86416064453125,-3.073393591879308,-0.5066425311923026,0.5396475596934557
1772790460937193700,24.88419384765625,-3.339282078103721,-0.5517226128906011,0.47494215554893016
1772790460957226800,24.904226806640626,-3.338345674036443,-0.19653496401309967,0.5657295109331607
1772790460977259500,24.924259521484377,-3.339136532153189,0.39724166075289247,0.6499474247992039
1772790460997292800,24.944292724609376,-3.347374491405487,1.0828823302239179,0.9020359337300061
1772790461017325600,24.96432568359375,-3.3115389156535264,1.8023726623266934,1.1790852809160948
1772790461037358800,24.98435888671875,-3.2014848420023916,2.196843104800582,1.4523632928699255
1772790461057391600,25.0043916015625,-2.9850337559029456,2.236744322556257,1.683050701853633
1772790461077424600,25.024424560546876,-2.710179580673575,1.9078671729773282,1.8222645267546176
1772790461097457700,25.044457763671875,-2.483704820948839,1.503923968759179,1.8739578891128301
1772790461117490700,25.06449072265625,-2.3486568835556505,1.1578361566603184,1.9489175607681273
1772790461137524500,25.0845244140625,-2.2829937402948737,1.1289976001888513,2.036336901023984
1772790461157557800,25.104557861328125,-2.2292016520917413,1.3513789531201124,1.8625632193952797
1772790461177590500,25.124590576171876,-2.218679673555493,1.8376789535075424,1.433001589795947
1772790461197623800,25.144623779296875,-2.113726430174708,2.5156401743918657,0.8482686877071857
1772790461217656600,25.164656494140626,-1.987150553050637,3.2064006710946558,0.19760697715878486
1772790461237689900,25.18468994140625,-1.816105711863935,3.7267712833881377,-0.5189052159160376
1772790461257722600,25.20472265625,-1.4338696048021315,4.316351333247125,-1.3330395788311957
1772790461277755600,25.224755615234375,-0.9090344143152237,4.824443770986795,-2.4735019913643597
1772790461297788700,25.24478857421875,-0.14498247143030166,5.151433499383926,-3.5483670193493366
1772790461317821700,25.26482177734375,0.582125203808397,5.18766333515048,-4.3129882865548135
1772790461337854700,25.284854736328125,1.2039514266252518,5.050992764991522,-4.962434191572666
1772790461357887700,25.3048876953125,1.8107237265646456,4.824338264785707,-5.389126403215527
1772790461377920500,25.32492041015625,2.062794115316868,4.555639981837571,-5.475568422871827
1772790461397953800,25.344953857421874,2.05818340665102,4.308040893280506,-5.388867460018396
