time,seconds_elapsed,z,y,x
1772717484019186700,0.058186767578125,-3.9487621784210205,-1.7511686086654663,-1.530949592590332
1772717484039219000,0.078218994140625,-3.882356882095337,-1.4709662199020386,-1.1092194318771362
1772717484059251700,0.098251708984375,-3.5257256031036377,-1.4449421167373657,-1.2989028692245483
1772717484079284000,0.118283935546875,-3.441107749938965,-1.1531956195831299,-1.2089767456054688
1772717484099316700,0.138316650390625,-3.7248668670654297,0.3924711346626282,-0.1207624077796936
1772717484119348500,0.158348388671875,-3.8216097354888916,0.9251134395599365,1.6374794244766235
1772717484139380500,0.17838037109375,-3.0176382064819336,0.5409739017486572,3.25246524810791
1772717484159413500,0.19841357421875,-1.9716922044754028,0.12307919561862946,2.6089510917663574
1772717484179445500,0.218445556640625,-1.476793885231018,-0.8992445468902588,1.3807942867279053
1772717484199478300,0.238478271484375,-1.3322690725326538,-1.0396007299423218,0.5474624037742615
1772717484219510500,0.258510498046875,-1.1356474161148071,-0.20148925483226776,-0.08187277615070343
1772717484239542500,0.27854248046875,-1.1670221090316772,-0.6421524882316589,-0.15657266974449158
1772717484259575300,0.2985751953125,-1.1308139562606812,-1.8893251419067383,-0.3556685447692871
1772717484279607600,0.318607666015625,-1.0668377876281738,-1.8727737665176392,-1.1233385801315308
1772717484299640300,0.338640380859375,-0.8443361520767212,-1.3339364528656006,-1.041741967201233
1772717484319672300,0.35867236328125,0.0009967428632080555,-1.819143533706665,-0.16709034144878387
1772717484339704600,0.37870458984375,-0.215391606092453,-4.1205854415893555,-0.03424903377890587
1772717484359737300,0.3987373046875,-1.2497822046279907,-7.321850299835205,-2.0354578495025635
1772717484379769600,0.41876953125,-0.48725056648254395,-10.001670837402344,-3.9512293338775635
1772717484399802400,0.43880224609375,0.5475997924804688,-7.971284866333008,-4.025600910186768
1772717484419834400,0.45883447265625,-0.20510642230510712,-0.8117095232009888,-0.9291174411773682
1772717484439866600,0.47886669921875,-0.6500362753868103,1.8886405229568481,1.3657902479171753
1772717484459899400,0.4988994140625,-1.2333669662475586,3.4583985805511475,1.9638997316360474
1772717484479931400,0.518931396484375,-1.8296542167663574,6.162871837615967,1.6280431747436523
1772717484499964400,0.53896435546875,-1.5889190435409546,8.221664428710938,1.334798812866211
1772717484519996400,0.558996337890625,-2.8927862644195557,-0.7100775241851807,-3.391116142272949
1772717484540029400,0.579029541015625,-1.0448200702667236,0.5505650639533997,-2.7313785552978516
1772717484560061400,0.5990615234375,-0.9386953711509705,0.07270968705415726,-1.2016019821166992
1772717484580093400,0.619093505859375,-1.009882926940918,-0.2727462947368622,-0.10847258567810059
1772717484600126500,0.63912646484375,-1.289534568786621,-0.8487451672554016,0.6484029293060303
1772717484620158500,0.659158447265625,-1.5558364391326904,-1.0136535167694092,0.49065640568733215
1772717484640191500,0.67919140625,-2.1612837314605713,-0.3728056848049164,0.3756473958492279
1772717484660223500,0.699223388671875,-2.533587694168091,-0.9742079377174377,0.14546644687652588
1772717484680255500,0.71925537109375,-2.6296679973602295,-2.1556053161621094,-0.542864978313446
1772717484700288500,0.73928857421875,-2.040872812271118,-2.916604995727539,-0.5768858790397644
1772717484720320500,0.759320556640625,-1.6177963018417358,-3.2523913383483887,-0.9200562238693237
1772717484740353300,0.779353271484375,-1.2146055698394775,-0.47827160358428955,-2.4209864139556885
1772717484760385500,0.799385498046875,-0.9192672967910767,2.7850897312164307,-1.8073447942733765
1772717484780417500,0.81941748046875,-1.033656358718872,3.815758228302002,-1.4951114654541016
1772717484800450600,0.839450439453125,-0.9040019512176514,2.5952625274658203,-1.503650426864624
1772717484820482600,0.859482666015625,-1.0728068351745605,0.8969948887825012,-1.4482131004333496
1772717484840515300,0.879515380859375,-1.3804326057434082,-0.3076208531856537,-1.2445595264434814
1772717484860547600,0.899547607421875,-1.667088270187378,-0.41188231110572815,-1.560174822807312
1772717484880580400,0.919580322265625,-1.6254570484161377,-0.03258432820439339,-2.0926401615142822
1772717484900612400,0.9396123046875,-1.3704005479812622,0.39222514629364014,-2.8639984130859375
1772717484920644600,0.95964453125,-1.4166723489761353,0.06277195364236832,-3.3005590438842773
1772717484940677400,0.979677490234375,-1.5970947742462158,-1.187119960784912,-2.409724712371826
1772717484960709600,0.999709716796875,-1.805959701538086,-1.425671935081482,-0.8132445216178894
1772717484980742400,1.019742431640625,-1.9886430501937866,-1.6650691032409668,-0.5575413107872009
1772717485000774400,1.0397744140625,-2.20085072517395,-1.01876699924469,-1.0168757438659668
1772717485020806700,1.059806640625,-2.298447608947754,-0.5624099969863892,-1.1493743658065796
1772717485040839400,1.07983935546875,-2.036433219909668,-0.42659443616867065,-0.2399594485759735
1772717485060871400,1.099871337890625,-2.0816290378570557,0.06827406585216522,1.2253577709197998
1772717485080904400,1.119904541015625,-1.694522738456726,1.2199562788009644,3.0176100730895996
1772717485100936400,1.1399365234375,-1.25204336643219,1.6805148124694824,4.401133060455322
1772717485120969500,1.159969482421875,-0.9438313841819763,1.4987061023712158,5.1966094970703125
1772717485141002800,1.180002685546875,-0.8507218360900879,0.5258082151412964,5.444710731506348
1772717485161034500,1.200034423828125,-1.2995023727416992,-0.10225239396095276,5.053739547729492
1772717485181067800,1.22006787109375,-1.8851145505905151,0.9064958095550537,4.208452224731445
1772717485201099500,1.240099609375,-1.684635877609253,1.3547892570495605,3.299642562866211
1772717485221131500,1.260131591796875,-1.3708020448684692,0.977375864982605,2.641712188720703
1772717485241164800,1.280164794921875,-1.1705284118652344,0.3526935577392578,1.9241372346878052
1772717485261196500,1.300196533203125,-0.9353848695755005,0.504458487033844,1.1817874908447266
1772717485281229600,1.3202294921875,-0.6176956295967102,0.5713435411453247,0.5675294399261475
1772717485301261600,1.340261474609375,-0.4016112983226776,0.260239839553833,0.11985645443201065
1772717485321293600,1.36029345703125,-0.34858250617980957,0.03653916344046593,0.024938173592090607
1772717485341326600,1.38032666015625,-0.41767096519470215,-0.1205700933933258,-0.04077901691198349
1772717485361358600,1.400358642578125,-0.48377251625061035,-0.30365467071533203,-0.08660069108009338
1772717485381391600,1.4203916015625,-0.5101500749588013,-0.7409622669219971,-0.09798276424407959
1772717485401423600,1.440423583984375,-0.4104085862636566,-0.8427513837814331,-0.41552284359931946
1772717485421455600,1.46045556640625,-0.10743638873100281,-0.4583849310874939,-0.8676772713661194
1772717485441488400,1.48048828125,0.06366690248250961,0.12513792514801025,-1.6980276107788086
1772717485461520600,1.500520751953125,0.07431495934724808,-0.17572037875652313,-2.598051071166992
1772717485481553700,1.5205537109375,0.04193756356835365,-1.3026446104049683,-3.364018201828003
1772717485501585400,1.54058544921875,-0.03713385760784149,-1.6365208625793457,-3.9806361198425293
1772717485521617700,1.56061767578125,0.2880174517631531,-1.0736351013183594,-4.185814380645752
1772717485541650400,1.580650390625,0.9167580604553223,-0.37828442454338074,-4.77823543548584
1772717485561682700,1.6006826171875,0.7635546326637268,-1.42440927028656,-5.6171040534973145
1772717485581715500,1.620715576171875,0.152928426861763,-2.1577327251434326,-5.6001739501953125
1772717485601747500,1.64074755859375,0.14192454516887665,-1.5043599605560303,-4.38923978805542
1772717485621779700,1.66077978515625,0.47286030650138855,-0.3147220313549042,-3.0286753177642822
1772717485641812500,1.6808125,0.5466850399971008,0.2943398952484131,-2.322484254837036
1772717485661844500,1.700844482421875,0.45397406816482544,0.27352485060691833,-0.9655609726905823
1772717485681877500,1.72087744140625,0.4216555655002594,-0.018431123346090317,0.8928132653236389
1772717485701909500,1.740909423828125,0.3042282462120056,0.3895564079284668,2.3200480937957764
1772717485721941500,1.76094140625,0.019346565008163452,1.0642545223236084,2.757082462310791
1772717485741974500,1.780974609375,-0.2806278169155121,1.1231392621994019,2.9923558235168457
1772717485762006500,1.801006591796875,-0.40779948234558105,1.3756271600723267,3.0700700283050537
1772717485782039600,1.82103955078125,-0.33191800117492676,1.5234591960906982,2.8704469203948975
1772717485802071600,1.841071533203125,-0.03417235612869263,1.0537790060043335,2.63069224357605
1772717485822103600,1.861103515625,0.4514923095703125,0.5701532959938049,2.154604196548462
1772717485842136600,1.881136474609375,0.49831703305244446,-0.36206066608428955,1.4168822765350342
1772717485862168600,1.90116845703125,0.7360050082206726,-1.6048322916030884,0.4338943362236023
1772717485882201600,1.92120166015625,1.003694772720337,-0.9670270681381226,-1.082675576210022
1772717485902233600,1.941233642578125,1.502983570098877,0.7015253305435181,-2.0717523097991943
1772717485922265600,1.961265625,1.7082209587097168,1.112907886505127,-2.1769800186157227
1772717485942298600,1.981298583984375,1.6302398443222046,0.7797363996505737,-1.9704020023345947
1772717485962330600,2.00133056640625,1.4635738134384155,0.36815235018730164,-1.4996130466461182
1772717485982363600,2.02136376953125,1.396498680114746,0.2354573905467987,-1.362194299697876
1772717486002395600,2.041395751953125,1.394101858139038,0.19922399520874023,-1.3654896020889282
1772717486022427600,2.061427734375,1.3949576616287231,0.16411811113357544,-1.371056318283081
1772717486042460700,2.081460693359375,1.3910578489303589,0.129760280251503,-1.3703060150146484
1772717486062492700,2.10149267578125,1.3940953016281128,0.09435097873210907,-1.3700084686279297
1772717486082524400,2.1215244140625,1.3898667097091675,0.0626562312245369,-1.3725214004516602
1772717486102557700,2.1415576171875,1.3912138938903809,0.024170808494091034,-1.3644728660583496
1772717486122589000,2.1615888671875,1.390833854675293,-0.011719056405127048,-1.3607221841812134
1772717486142622000,2.1816220703125,1.3716868162155151,-0.38161590695381165,-0.7886633276939392
1772717486162654000,2.201654052734375,1.5366114377975464,-0.7826443910598755,2.484905958175659
1772717486182686700,2.221686767578125,1.2332960367202759,-0.42944827675819397,5.244291305541992
1772717486202719000,2.241718994140625,-0.48270806670188904,-7.877098560333252,5.09376859664917
1772717486222751000,2.2617509765625,-0.32672548294067383,-2.046684741973877,-1.2351189851760864
1772717486242783700,2.28178369140625,-2.0180251598358154,-0.8149673938751221,-2.122260808944702
1772717486262816000,2.30181591796875,-2.6084249019622803,-0.53242427110672,-0.6641176342964172
1772717486282848000,2.321847900390625,-2.034083843231201,2.2772817611694336,1.2645357847213745
1772717486302880800,2.341880859375,-1.0938282012939453,3.2582128047943115,2.0627212524414062
1772717486322913000,2.3619130859375,-0.2743242084980011,-2.104633092880249,-0.3800371587276459
1772717486342945800,2.38194580078125,-0.4352632462978363,-2.3289852142333984,-0.5362836718559265
1772717486362978000,2.40197802734375,-0.47730180621147156,-1.5382448434829712,-0.8616719245910645
1772717486383009800,2.422009765625,0.3010478615760803,0.01520548202097416,-0.7802203297615051
1772717486403042800,2.442042724609375,1.3760567903518677,1.5318037271499634,-0.4732971489429474
1772717486423075000,2.462074951171875,1.5665218830108643,1.4918897151947021,0.09180272370576859
1772717486443107800,2.48210791015625,1.1677510738372803,0.6312486529350281,0.19131965935230255
1772717486463139800,2.502139892578125,0.6835845708847046,0.950942873954773,0.5637512803077698
1772717486483171800,2.522171875,0.7194587588310242,0.6431630849838257,1.5876481533050537
1772717486503204900,2.542204833984375,0.8017607927322388,0.3476976454257965,2.334322929382324
1772717486523236900,2.56223681640625,0.6007806062698364,0.06761399656534195,2.628220796585083
1772717486543270000,2.582269775390625,0.43621644377708435,0.02892995998263359,2.8963778018951416
1772717486563302000,2.602302001953125,0.31472185254096985,0.33327430486679077,2.778292655944824
1772717486583334000,2.622333984375,0.46270930767059326,0.9058300852775574,2.211277723312378
1772717486603367000,2.642366943359375,0.9181681275367737,1.2437386512756348,1.1689010858535767
1772717486623398700,2.662398681640625,1.4814268350601196,1.559801697731018,0.5239682793617249
1772717486643432000,2.682431884765625,1.7128207683563232,0.971054196357727,0.0637664943933487
1772717486663464000,2.7024638671875,2.005445957183838,0.4665624499320984,-0.16245517134666443
1772717486683496000,2.722495849609375,2.0299904346466064,0.34361979365348816,-0.2146322876214981
1772717486703529000,2.742529052734375,2.0255038738250732,0.3410010039806366,-0.2274511605501175
1772717486723560700,2.762560791015625,2.0260121822357178,0.33626338839530945,-0.24139299988746643
1772717486743594000,2.782593994140625,2.0278897285461426,0.331311970949173,-0.24992065131664276
1772717486763626000,2.8026259765625,2.025556802749634,0.3263013958930969,-0.2604800760746002
1772717486783657700,2.82265771484375,2.0263242721557617,0.32021257281303406,-0.26993757486343384
1772717486803691000,2.84269091796875,2.0245163440704346,0.3126632273197174,-0.28378260135650635
1772717486823722800,2.86272265625,2.022644281387329,0.3079032003879547,-0.2922629714012146
1772717486843754800,2.882754638671875,2.022559404373169,0.30868983268737793,-0.30531781911849976
1772717486863787800,2.902787841796875,2.019570827484131,0.3077528476715088,-0.32039374113082886
1772717486883819800,2.92281982421875,2.0216872692108154,0.3034575879573822,-0.3445529043674469
1772717486903853000,2.94285302734375,1.6312816143035889,-4.035520076751709,0.7951043248176575
1772717486923884800,2.962884765625,0.6353685259819031,-3.4307360649108887,-0.2860621511936188
1772717486943916800,2.982916748046875,0.5369129180908203,0.5148589015007019,-0.6122424602508545
1772717486963949800,3.00294970703125,1.3732881546020508,1.4044102430343628,-0.5129156112670898
1772717486983981800,3.02298193359375,1.2774263620376587,0.27303749322891235,-1.251137375831604
1772717487004014800,3.043014892578125,1.2846049070358276,-1.07010018825531,-0.6463967561721802
1772717487024046800,3.063046875,1.5175247192382812,-1.3554744720458984,-0.12982679903507233
1772717487044078800,3.083078857421875,1.6939756870269775,-0.4729962646961212,-0.6583836674690247
1772717487064111900,3.10311181640625,2.03751540184021,-0.1163938045501709,-0.985670804977417
1772717487084143900,3.123143798828125,2.525860548019409,0.3738844394683838,0.0904146358370781
1772717487104177000,3.143177001953125,3.289632558822632,1.398791790008545,1.293186902999878
1772717487124209000,3.163208984375,3.778635025024414,0.5784221887588501,-1.745039463043213
1772717487144241000,3.183240966796875,2.62182354927063,0.6804463863372803,-3.332791805267334
1772717487164274000,3.20327392578125,2.089369297027588,0.4611477851867676,-0.9139559268951416
1772717487184306000,3.223305908203125,2.4904673099517822,0.2845090329647064,1.3630510568618774
1772717487204339000,3.2433388671875,2.197941303253174,0.2512786090373993,0.8810728192329407
1772717487224371000,3.263370849609375,1.4063918590545654,-0.6961851716041565,1.1042728424072266
1772717487244403000,3.28340283203125,1.2040884494781494,-0.3566855192184448,2.3770291805267334
1772717487264436000,3.30343603515625,1.3654402494430542,0.6458916664123535,2.80139422416687
1772717487284468000,3.323468017578125,1.3379476070404053,0.3721160888671875,2.148982286453247
1772717487304500000,3.3435,1.0538902282714844,-0.20847684144973755,1.4811140298843384
1772717487324533000,3.363532958984375,1.0917332172393799,-0.35048654675483704,1.2521696090698242
1772717487344565000,3.38356494140625,1.3575018644332886,0.6518003940582275,0.8138769268989563
1772717487364598000,3.403597900390625,1.811916470527649,1.0106534957885742,0.7351811528205872
1772717487384630000,3.423630126953125,1.826352596282959,0.337526798248291,0.9809079170227051
1772717487404662000,3.443662109375,1.7281550168991089,-0.07423678040504456,1.324489712715149
1772717487424695000,3.463695068359375,1.706208348274231,-0.20078112185001373,1.4053606986999512
1772717487444727000,3.48372705078125,1.7060484886169434,-0.15325987339019775,1.409105896949768
1772717487464760000,3.503760009765625,1.7012399435043335,-0.11064279079437256,1.4178745746612549
1772717487484792000,3.5237919921875,1.7018383741378784,-0.0650147870182991,1.4203892946243286
1772717487504823800,3.54382373046875,1.7009921073913574,-0.015147997066378593,1.427701473236084
1772717487524857000,3.563857177734375,1.700196385383606,0.040602248162031174,1.4277669191360474
1772717487544889000,3.58388916015625,1.7023303508758545,0.09752262383699417,1.4334007501602173
1772717487564921900,3.603921875,1.7026268243789673,0.1625668704509735,1.4322209358215332
1772717487584954000,3.6239541015625,1.7089028358459473,0.23384258151054382,1.4312207698822021
1772717487604985900,3.64398583984375,1.7116889953613281,0.3051156997680664,1.4231528043746948
1772717487625019100,3.66401904296875,1.6920931339263916,0.12009025365114212,0.8864409923553467
1772717487645051000,3.68405078125,2.42877459526062,-0.2768731713294983,-13.55397891998291
1772717487665084000,3.704083984375,0.5821419954299927,1.6735764741897583,-9.373942375183105
1772717487685116200,3.7241162109375,-1.4217857122421265,-4.8594183921813965,-1.5187013149261475
1772717487705148000,3.74414794921875,-1.0187630653381348,-2.169306993484497,2.7379298210144043
1772717487725181000,3.764180908203125,0.4425351023674011,6.392019748687744,2.753939628601074
1772717487745213000,3.784212890625,2.114522933959961,7.228898525238037,1.9677602052688599
1772717487765245000,3.804244873046875,1.6186137199401855,0.3866722881793976,-2.055227756500244
1772717487785278200,3.8242783203125,0.5026647448539734,0.9010939002037048,-1.6770167350769043
1772717487805310000,3.84431005859375,0.25438758730888367,0.7046518921852112,-0.4648396372795105
1772717487825343000,3.864343017578125,0.7684693932533264,0.529477596282959,0.6419820785522461
1772717487845375000,3.884375,1.1120058298110962,0.9780064821243286,0.2746051251888275
1772717487865407000,3.904406982421875,0.9675918817520142,0.23995916545391083,0.30634406208992004
1772717487885440000,3.92443994140625,0.9149870872497559,-0.8398435711860657,0.23272587358951569
1772717487905472000,3.944471923828125,0.5556115508079529,-0.3241245150566101,1.0841652154922485
1772717487925505000,3.964505126953125,0.39553120732307434,-0.2694174647331238,1.6787691116333008
1772717487945536800,3.984536865234375,0.286172091960907,-0.7736878991127014,1.516011357307434
1772717487965567000,4.00456689453125,0.11652494221925735,-1.2373913526535034,1.0323702096939087
1772717487985600000,4.02460009765625,0.1798270344734192,-1.577233910560608,0.25197842717170715
1772717488005632000,4.044632080078125,-0.36287921667099,0.028326284140348434,0.8834590911865234
1772717488025663700,4.064663818359375,-0.7566261887550354,-0.39364996552467346,1.5658706426620483
1772717488045697000,4.084697021484375,-0.8313453197479248,-1.8128461837768555,1.616990327835083
1772717488065729000,4.10472900390625,-0.8089500069618225,-2.136573076248169,1.295620322227478
1772717488085762000,4.124761962890625,-0.6340604424476624,-1.19394850730896,0.7192050814628601
1772717488105794000,4.1447939453125,-0.37904873490333557,0.3113173842430115,0.37932053208351135
1772717488125826300,4.164826416015625,-0.3018021285533905,0.5359547138214111,0.3039418160915375
1772717488145859600,4.184859619140625,-0.27176037430763245,0.3015364110469818,0.3275846242904663
1772717488165891300,4.204891357421875,-0.2683073878288269,0.29584500193595886,0.33513209223747253
1772717488185924600,4.224924560546875,-0.26688694953918457,0.2954946756362915,0.33716002106666565
1772717488205956400,4.244956298828125,-0.2635211944580078,0.292486310005188,0.3425126373767853
1772717488225988400,4.26498828125,-0.26357877254486084,0.28792303800582886,0.3441944718360901
1772717488246021600,4.285021728515625,-0.2615976929664612,0.28820347785949707,0.3508645296096802
1772717488266053400,4.305053466796875,-0.2619369924068451,0.2869720757007599,0.3527839481830597
1772717488286086700,4.325086669921875,-0.2585133910179138,0.281799852848053,0.3598259389400482
1772717488306118400,4.345118408203125,-0.3731890320777893,-0.2539379298686981,-0.10237050801515579
1772717488326150400,4.365150390625,-0.4908440411090851,-3.5252997875213623,-3.1752283573150635
1772717488346183400,4.385183349609375,-0.05155849829316139,1.8564198017120361,-4.47223424911499
1772717488366215400,4.40521533203125,-0.3751966059207916,3.884326219558716,-3.4697277545928955
1772717488386249500,4.42524951171875,-0.48648378252983093,4.1021294593811035,-0.8653676509857178
1772717488406282500,4.445282470703125,-0.024384548887610435,2.431713581085205,0.7598320245742798
1772717488426314200,4.465314208984375,0.5918271541595459,-1.3823670148849487,-0.5286111831665039
1772717488446347500,4.485347412109375,0.3422534167766571,-3.9113683700561523,-1.4299726486206055
1772717488466379500,4.505379638671875,-0.06583034992218018,-3.379664897918701,-1.5039808750152588
1772717488486411500,4.52541162109375,-0.2684333026409149,-0.3077002763748169,-1.7325793504714966
1772717488506444500,4.545444580078125,0.6592561602592468,0.5833127498626709,-1.663975477218628
1772717488526476300,4.565476318359375,1.0149258375167847,0.3858071267604828,-1.6076847314834595
1772717488546509600,4.585509521484375,0.3454575836658478,0.7104967832565308,-1.1877049207687378
1772717488566541300,4.605541259765625,-0.1357468068599701,-0.43394407629966736,0.06793855130672455
1772717488586573300,4.6255732421875,-0.11000730842351913,-1.0934133529663086,1.475090503692627
1772717488606606600,4.645606689453125,-0.08384836465120316,-0.45134976506233215,2.117835521697998
1772717488626638300,4.665638427734375,-0.0766696184873581,-0.11409763991832733,2.4941647052764893
1772717488646671600,4.685671630859375,-0.18957889080047607,-0.29796943068504333,2.7231431007385254
1772717488666703400,4.705703369140625,-0.42429038882255554,-0.10966616123914719,3.0456461906433105
1772717488686735400,4.7257353515625,-0.42966604232788086,0.043808937072753906,3.2528018951416016
1772717488706768600,4.7457685546875,-0.3467833995819092,-0.39418283104896545,3.207915782928467
1772717488726800400,4.76580029296875,-0.42708098888397217,-1.167073369026184,2.4444692134857178
1772717488746833700,4.785833740234375,-0.3975401818752289,-1.110026240348816,1.493891716003418
1772717488766865400,4.805865478515625,-0.16333529353141785,0.1594332754611969,1.0364971160888672
1772717488786897400,4.8258974609375,-0.021953076124191284,1.64484703540802,0.9626215696334839
1772717488806930400,4.845930419921875,-0.18149219453334808,1.3549423217773438,0.818185567855835
1772717488826962400,4.86596240234375,-0.27382510900497437,0.6197740435600281,0.7455939650535583
1772717488846995500,4.885995361328125,-0.2925175726413727,0.4359045922756195,0.6820460557937622
1772717488867027500,4.90602734375,-0.2982986867427826,0.36169499158859253,0.6353573203086853
1772717488887059500,4.9260595703125,-0.29551076889038086,0.36067649722099304,0.6377713084220886
1772717488907092500,4.946092529296875,-0.31672778725624084,0.25473445653915405,0.6061983108520508
1772717488927124500,4.96612451171875,-0.4186592102050781,-0.15925762057304382,0.4819087088108063
1772717488947156500,4.986156494140625,-0.43482691049575806,-0.21741370856761932,0.46507275104522705
1772717488967189500,5.006189453125,-0.4369230270385742,-0.2258986085653305,0.4628799259662628
1772717488987221500,5.026221435546875,-0.4358087480068207,-0.2315085232257843,0.4655437767505646
1772717489007254300,5.046254150390625,-0.4407467842102051,-0.24483367800712585,0.4610394239425659
1772717489027286500,5.06628662109375,-0.44028976559638977,-0.2587849199771881,0.45864564180374146
1772717489047318500,5.086318603515625,0.41220822930336,-4.238953590393066,-2.2084436416625977
1772717489067351600,5.1063515625,0.722195565700531,-4.289234638214111,-3.6821439266204834
1772717489087383600,5.126383544921875,-0.06649602949619293,4.132754325866699,-3.504892349243164
1772717489107416300,5.146416259765625,-0.4596751034259796,4.065659523010254,-1.6980390548706055
1772717489127448600,5.166448486328125,0.056650400161743164,2.009988307952881,-0.49155187606811523
1772717489147480600,5.18648046875,-0.0746404156088829,-0.04730382561683655,-0.14947932958602905
1772717489167513300,5.206513427734375,-0.32738542556762695,-2.3829054832458496,-0.026371486485004425
1772717489187545600,5.226545654296875,-0.40154147148132324,-4.142392158508301,0.2330549657344818
1772717489207577300,5.246577392578125,-0.08018911629915237,-2.327209949493408,-0.30224987864494324
1772717489227610400,5.2666103515625,0.3903602361679077,0.15251000225543976,-1.0324223041534424
1772717489247642600,5.286642578125,0.9769362807273865,0.28968238830566406,-1.7389919757843018
1772717489267675400,5.30667529296875,0.7939366698265076,0.048166874796152115,-2.0077788829803467
1772717489287707600,5.326707763671875,0.6145175695419312,-0.8803393244743347,-1.702970266342163
1772717489307739400,5.346739501953125,0.9162054657936096,-1.540257453918457,-1.5453131198883057
1772717489327772400,5.3667724609375,1.0368109941482544,0.4661998748779297,-1.3275669813156128
1772717489347804700,5.3868046875,1.092434287071228,1.7011815309524536,-1.72414231300354
1772717489367837400,5.40683740234375,1.194513201713562,0.9451267123222351,-1.9635660648345947
1772717489387869400,5.426869384765625,0.8558852672576904,0.6113409399986267,-1.131945013999939
1772717489407901400,5.4469013671875,0.7675533294677734,0.023046791553497314,-0.1540457010269165
1772717489427934500,5.4669345703125,1.1404708623886108,0.009525636211037636,0.11843574792146683
1772717489447966500,5.486966552734375,1.136091709136963,0.46356505155563354,0.48687130212783813
1772717489467999500,5.50699951171875,0.9243492484092712,0.26110899448394775,1.1829149723052979
1772717489488031500,5.527031494140625,0.8637268543243408,-0.3998928666114807,1.7772897481918335
1772717489508063500,5.5470634765625,0.8359721302986145,-0.6374755501747131,2.2448625564575195
1772717489528096500,5.567096435546875,0.5782177448272705,0.018098946660757065,2.4096319675445557
1772717489548128300,5.587128173828125,0.36475878953933716,0.7706733345985413,2.328035831451416
1772717489568160500,5.607160400390625,0.3290942311286926,0.5667234063148499,2.3977296352386475
1772717489588193500,5.627193603515625,0.3032457232475281,-0.279197096824646,2.499936819076538
1772717489608225300,5.647225341796875,0.16059096157550812,-0.7825932502746582,2.4413678646087646
1772717489628258600,5.667258544921875,-0.07183894515037537,-0.8372361063957214,1.997511386871338
1772717489648290300,5.687290283203125,-0.38129064440727234,-0.29302623867988586,1.5123006105422974
1772717489668322600,5.707322509765625,-0.31497153639793396,-0.027633963152766228,1.2093505859375
1772717489688355300,5.727355224609375,-0.028839701786637306,-0.2580205202102661,0.8761897087097168
1772717489708387300,5.74738720703125,0.15223820507526398,-0.3096919655799866,0.6266413927078247
1772717489728419600,5.767419677734375,0.29455652832984924,0.05772647634148598,0.39764198660850525
1772717489748452400,5.787452392578125,0.43185675144195557,0.6483768224716187,0.06982828676700592
1772717489768484400,5.807484375,0.4312780797481537,1.1572186946868896,-0.286245197057724
1772717489788517400,5.827517333984375,0.4013761878013611,1.2809590101242065,-0.5334806442260742
1772717489808549400,5.84754931640625,0.2734913229942322,0.6625064611434937,-0.5174248814582825
1772717489828581600,5.86758154296875,0.0536239817738533,-0.000007066875696182251,-0.3875857889652252
1772717489848614400,5.887614501953125,-0.17010189592838287,-0.3560532331466675,-0.36366480588912964
1772717489868646400,5.907646484375,-0.21028470993041992,-0.4027427136898041,-0.432647168636322
1772717489888679400,5.927679443359375,-0.19195015728473663,-0.619467556476593,-0.5986238121986389
1772717489908711400,5.94771142578125,-0.056529223918914795,-0.5835071802139282,-0.9892054796218872
1772717489928743400,5.967743408203125,0.13271619379520416,-0.2835479974746704,-1.455342173576355
1772717489948776400,5.9877763671875,0.4162156879901886,0.34607771039009094,-1.9982914924621582
1772717489968808400,6.007808349609375,0.3816947638988495,0.2137947529554367,-2.134860038757324
1772717489988840700,6.0278408203125,0.2920721769332886,-0.6481908559799194,-1.976928472518921
1772717490008873500,6.04787353515625,0.2469019740819931,-1.4808169603347778,-2.2825772762298584
1772717490028905500,6.067905517578125,0.10098496824502945,-0.7178020477294922,-3.1490936279296875
1772717490048938500,6.0879384765625,-0.14494827389717102,0.056474894285202026,-4.73701286315918
1772717490068970500,6.107970458984375,0.02609807252883911,0.923828125,-5.270562171936035
1772717490089002500,6.12800244140625,0.34048008918762207,1.40760338306427,-3.915573835372925
1772717490109035500,6.148035400390625,0.5826485753059387,1.38498854637146,-2.729957342147827
1772717490129067000,6.16806689453125,0.30524200201034546,0.5612902045249939,-2.953964948654175
1772717490149100000,6.18810009765625,0.36819538474082947,-0.12293977290391922,-2.018890142440796
1772717490169132000,6.208132080078125,0.6427144408226013,0.924609363079071,-1.0645885467529297
1772717490189164000,6.2281640625,0.5569040179252625,0.7414253950119019,0.5566726922988892
1772717490209197000,6.248197021484375,0.48013702034950256,-0.4229951500892639,1.6433366537094116
1772717490229229000,6.26822900390625,0.41801905632019043,-0.5759834051132202,2.329141616821289
1772717490249262000,6.288261962890625,0.05468288064002991,-0.3713279068470001,3.410541534423828
1772717490269294000,6.308294189453125,-0.12552104890346527,-0.5628206133842468,4.394723892211914
1772717490289326000,6.328326171875,-0.2902110517024994,-0.7317625880241394,4.744898796081543
1772717490309359000,6.348359130859375,-0.6371576189994812,-0.8437904715538025,4.772589206695557
1772717490329391000,6.36839111328125,-0.7787055373191833,-0.8209303021430969,4.7459716796875
1772717490349422800,6.3884228515625,-0.7467880845069885,-0.7762052416801453,4.4616522789001465
1772717490369456000,6.4084560546875,-1.0445466041564941,-0.7834828495979309,3.820845603942871
1772717490389487900,6.42848779296875,-1.3371961116790771,-0.7366622090339661,3.0931613445281982
1772717490409521200,6.448521240234375,-1.1225188970565796,-0.6273742318153381,2.4897611141204834
1772717490429553200,6.46855322265625,-0.506532609462738,-0.57664954662323,1.7253921031951904
1772717490449585000,6.4885849609375,-0.5252684354782104,0.23349812626838684,1.1603385210037231
1772717490469618200,6.5086181640625,-0.739293098449707,0.2745811343193054,0.6426523327827454
1772717490489650000,6.52864990234375,-0.841418981552124,0.05126876011490822,0.2585931718349457
1772717490509682000,6.548681884765625,-0.5883817672729492,-0.6456745862960815,-0.21911993622779846
1772717490529715000,6.56871484375,-0.38742005825042725,0.38783764839172363,-0.3968230187892914
1772717490549747000,6.588746826171875,-0.24229684472084045,1.2897274494171143,-0.5030821561813354
1772717490569780200,6.6087802734375,-0.334472119808197,0.6719279289245605,-0.5916171669960022
1772717490589812000,6.62881201171875,-0.3491174876689911,0.5649102330207825,-0.5764873027801514
1772717490609844000,6.648843994140625,-0.355523020029068,0.567815363407135,-0.5715349912643433
1772717490629877000,6.668876953125,-0.35823482275009155,0.5675652027130127,-0.5647403597831726
1772717490649909000,6.688908935546875,-0.36197006702423096,0.5655562281608582,-0.5560122728347778
1772717490669942000,6.70894189453125,-0.36226385831832886,0.56622713804245,-0.5478095412254333
1772717490689974000,6.72897412109375,-0.36833813786506653,0.566462516784668,-0.5388698577880859
1772717490710006000,6.749006103515625,-0.3697478771209717,0.5669896006584167,-0.532522439956665
1772717490730039000,6.7690390625,-0.37555527687072754,0.5670834183692932,-0.523533046245575
1772717490750071000,6.789071044921875,-0.3779677748680115,0.5711879134178162,-0.517525851726532
1772717490770103000,6.80910302734375,-0.38159236311912537,0.5773323178291321,-0.5170953273773193
1772717490790136000,6.829135986328125,-0.3842763602733612,0.580681324005127,-0.5207412838935852
1772717490810168000,6.84916796875,-0.38789427280426025,0.5807889699935913,-0.5312964916229248
1772717490830200800,6.869200927734375,1.8251070976257324,-11.158921241760254,-1.3512303829193115
1772717490850233000,6.889233154296875,0.2762821912765503,1.4867565631866455,-3.3680059909820557
1772717490870265000,6.90926513671875,0.1591588854789734,0.6631376147270203,-1.9564729928970337
1772717490890297900,6.9292978515625,0.1394193470478058,1.0024231672286987,-0.7410447001457214
1772717490910330000,6.949330078125,0.007015942595899105,1.1815532445907593,-1.1909209489822388
1772717490930363000,6.96936279296875,0.16542227566242218,1.3941179513931274,-1.152819037437439
1772717490950395100,6.98939501953125,0.43024149537086487,0.9325987100601196,-1.3564224243164062
1772717490970427100,7.00942724609375,0.12670505046844482,0.6432417631149292,-1.0073506832122803
1772717490990460000,7.0294599609375,0.4388602077960968,-0.0075889648869633675,-0.2905048429965973
1772717491010492200,7.0494921875,1.1806858777999878,0.01128985732793808,-1.0549505949020386
1772717491030524000,7.06952392578125,0.6923128962516785,0.6688263416290283,-1.292163610458374
1772717491050557000,7.089556884765625,-0.33688610792160034,-0.16828301548957825,0.4325084090232849
1772717491070589200,7.109589111328125,-0.6814696192741394,-0.9901342391967773,1.5408674478530884
1772717491090622000,7.1296220703125,-0.6666675806045532,-0.9698280692100525,1.781743049621582
1772717491110654200,7.149654296875,-0.6021685600280762,-1.3630461692810059,1.651017427444458
1772717491130686200,7.169686279296875,-0.5776005387306213,-1.7019973993301392,1.0540766716003418
1772717491150719200,7.18971923828125,-0.3422681391239166,-0.8300006985664368,0.6457167863845825
1772717491170751000,7.2097509765625,-0.16086982190608978,0.23085211217403412,0.49809935688972473
1772717491190784300,7.2297841796875,0.17505361139774323,0.014119546860456467,0.30592861771583557
1772717491210816300,7.249816162109375,0.3912556767463684,-0.12247373908758163,0.2896179258823395
1772717491230848300,7.26984814453125,0.5377123951911926,-0.04102855920791626,0.41503700613975525
1772717491250881300,7.28988134765625,0.5467256307601929,0.010442827828228474,0.41916385293006897
1772717491270913000,7.3099130859375,0.5469996333122253,0.015513814054429531,0.41877609491348267
1772717491290945300,7.3299453125,0.5447779893875122,0.01840338483452797,0.42267048358917236
1772717491310978000,7.34997802734375,0.5468739867210388,0.025121640413999557,0.42410802841186523
1772717491331010000,7.370010009765625,0.5463826060295105,0.027302563190460205,0.42559272050857544
1772717491351043300,7.390043212890625,0.5447945594787598,0.03177187964320183,0.4258444011211395
1772717491371075000,7.410074951171875,0.5431792140007019,0.030791427940130234,0.42277607321739197
1772717491391107300,7.430107421875,0.5443609952926636,0.03549997881054878,0.4217487573623657
1772717491411140000,7.45014013671875,0.5447241067886353,0.04108345881104469,0.4211529493331909
1772717491431172000,7.470172119140625,0.5418919920921326,0.042707085609436035,0.4178761839866638
1772717491451204400,7.490204345703125,0.5445592999458313,0.048076897859573364,0.41815704107284546
1772717491471237000,7.510237060546875,0.5417644381523132,0.05439537391066551,0.41405433416366577
1772717491491269000,7.53026904296875,0.5955222845077515,0.2584211230278015,1.0533493757247925
1772717491511302100,7.55030224609375,0.8521899580955505,-1.5820854902267456,-3.107029438018799
1772717491531334100,7.570334228515625,1.3501375913619995,1.1339740753173828,-1.8504185676574707
1772717491551366400,7.590366455078125,1.8700675964355469,1.0643657445907593,0.715300977230072
1772717491571399200,7.610399169921875,1.3539117574691772,0.6546059250831604,-1.0597792863845825
1772717491591431200,7.63043115234375,1.0474439859390259,1.0929373502731323,-1.6643763780593872
1772717491611464200,7.650464111328125,0.7435768246650696,0.48142752051353455,-2.396530866622925
1772717491631496200,7.67049609375,0.20310060679912567,0.5897160768508911,-2.1425349712371826
1772717491651528200,7.690528076171875,0.15445823967456818,2.0323638916015625,-1.754733681678772
1772717491671561200,7.710561279296875,0.5000190734863281,1.7383869886398315,-1.35166597366333
1772717491691593200,7.73059326171875,0.2689240574836731,0.9118230938911438,-1.6097787618637085
1772717491711625200,7.750625244140625,-0.651228666305542,0.32455894351005554,-2.0646109580993652
1772717491731658200,7.770658203125,-1.3434866666793823,-0.4255944490432739,-1.9616878032684326
1772717491751690200,7.790690185546875,-1.4115185737609863,-1.2308495044708252,0.2987666428089142
1772717491771723300,7.81072314453125,-1.1244690418243408,-0.9798948168754578,2.329256534576416
1772717491791755300,7.83075537109375,-1.1939948797225952,-0.9592688679695129,2.7715344429016113
1772717491811787000,7.850787109375,-1.6068891286849976,-2.1093409061431885,2.4239227771759033
1772717491831820300,7.8708203125,-1.8932502269744873,-2.430711030960083,1.6600960493087769
1772717491851852300,7.890852294921875,-1.8848607540130615,-1.4408020973205566,1.7821191549301147
1772717491871885300,7.91088525390625,-1.127569556236267,-0.995695173740387,2.5697989463806152
1772717491891917300,7.930917236328125,-0.5383431315422058,-0.9849426746368408,2.1693718433380127
1772717491911949000,7.950948974609375,-0.7986600399017334,-1.5409163236618042,1.0634146928787231
1772717491931982300,7.970982421875,-0.8433610200881958,-2.0475265979766846,0.45218029618263245
1772717491952014000,7.99101416015625,-0.8613671064376831,-0.2983846366405487,0.2788372337818146
1772717491972044300,8.011044189453125,-0.6862037777900696,1.194933295249939,0.13883920013904572
1772717491992077000,8.0310771484375,-0.6696925163269043,-0.08629582077264786,-0.22955143451690674
1772717492012109300,8.051109375,-0.5837027430534363,-1.1163417100906372,0.2890680134296417
1772717492032142000,8.07114208984375,-0.6609897017478943,-1.1440140008926392,0.8693528175354004
1772717492052174300,8.09117431640625,-0.6647509336471558,-0.5963766574859619,1.172500491142273
1772717492072206300,8.111206298828124,-0.6779451370239258,-0.4657067060470581,1.2474857568740845
1772717492092239000,8.131239013671875,-0.6842268109321594,-0.48138973116874695,1.239701747894287
1772717492112271400,8.151271240234376,-0.6848049759864807,-0.4966470003128052,1.230238676071167
1772717492132303000,8.17130322265625,-0.6953926682472229,-0.5099310874938965,1.221268892288208
1772717492152336100,8.191336181640626,-0.7075321674346924,-0.6007717847824097,1.1594514846801758
1772717492172368100,8.2113681640625,-0.6799570322036743,-1.5514971017837524,0.38841569423675537
1772717492192401200,8.231401123046876,-0.665076732635498,-1.6649646759033203,0.26356273889541626
1772717492212433200,8.25143310546875,-0.4706873595714569,-2.159040927886963,-0.4686144292354584
1772717492232465200,8.271465087890626,0.36519113183021545,-2.242943525314331,-2.9165282249450684
1772717492252498200,8.291498291015625,1.1051325798034668,2.40693736076355,-4.745437145233154
1772717492272530200,8.3115302734375,1.307309627532959,7.427757740020752,-6.697580337524414
1772717492292562000,8.33156201171875,0.35696059465408325,3.590275526046753,-3.481748342514038
1772717492312595200,8.35159521484375,-0.6125658750534058,-0.8691173791885376,-0.635820746421814
1772717492332627000,8.371626953125,-0.7942874431610107,-1.573367714881897,-1.8110698461532593
1772717492352660200,8.39166015625,-0.6615272164344788,0.5147132873535156,-2.661130905151367
1772717492372692200,8.411692138671874,-0.24736866354942322,1.6809866428375244,-2.448892116546631
1772717492392724000,8.431723876953125,-0.43644243478775024,1.8367098569869995,-2.0205445289611816
1772717492412757200,8.45175732421875,-0.998995304107666,1.2045074701309204,-1.2634334564208984
1772717492432789000,8.4717890625,-1.0964359045028687,0.40388038754463196,-0.8958034515380859
1772717492452822000,8.491822021484374,-1.0467678308486938,0.3586843013763428,-0.7087467908859253
1772717492472854000,8.51185400390625,-0.9212272763252258,0.34385985136032104,-0.6050107479095459
1772717492492886000,8.531885986328126,-0.6528773903846741,0.10670624673366547,-0.5754838585853577
1772717492512919300,8.551919189453125,-0.7053779363632202,-0.28252458572387695,-0.18151167035102844
1772717492532951000,8.571950927734376,-0.806440532207489,-0.7307186722755432,0.13202616572380066
1772717492552983000,8.591983154296875,-0.6908853650093079,-0.8428458571434021,0.22834457457065582
1772717492573016000,8.61201611328125,-0.5050007700920105,-0.7060889601707458,0.07986763119697571
1772717492593048000,8.632048095703125,-0.5147572159767151,-0.2609962821006775,0.021827638149261475
1772717492613081000,8.6520810546875,-0.7192175984382629,-0.04993947222828865,0.11573008447885513
1772717492633113000,8.672113037109375,-0.8325781226158142,-0.11126373708248138,0.08345723152160645
1772717492653145000,8.69214501953125,-0.7827309966087341,-0.38011959195137024,-0.09143226593732834
1772717492673178000,8.71217822265625,-0.7627171277999878,-0.45127201080322266,-0.17730967700481415
1772717492693210000,8.732210205078125,-0.7698619961738586,-0.14982306957244873,-0.0916476845741272
1772717492713243000,8.752242919921875,-0.6488258838653564,-0.07989189773797989,-0.06680899858474731
1772717492733275100,8.772275146484375,-0.5622731447219849,-0.08016221225261688,-0.2092715948820114
1772717492753307100,8.79230712890625,-0.5776045918464661,-0.12005726993083954,-0.30940330028533936
1772717492773340000,8.81233984375,-0.733437716960907,-0.14069244265556335,-0.2325192391872406
1772717492793372200,8.8323720703125,-0.7109543085098267,-0.3465379476547241,-0.11266486346721649
1772717492813404200,8.852404052734375,-0.6160928010940552,-0.37856394052505493,-0.13623449206352234
1772717492833437200,8.872437255859374,-0.5754043459892273,-0.3403474688529968,-0.16509632766246796
1772717492853469200,8.89246923828125,-0.5689481496810913,-0.06680377572774887,-0.18992651998996735
1772717492873502000,8.912501953125,-0.5888992547988892,0.019078683108091354,-0.058951910585165024
1772717492893534200,8.9325341796875,-0.5276733636856079,-0.20507138967514038,0.09729311615228653
1772717492913566200,8.952566162109376,-0.45334118604660034,-0.3799824118614197,0.11001035571098328
1772717492933599000,8.972598876953125,-0.3976515531539917,-0.1835167407989502,0.047892119735479355
1772717492953631200,8.99263134765625,-0.3832157254219055,-0.01098267175257206,-0.012043725699186325
1772717492973664000,9.0126640625,-0.39138278365135193,-0.019038261845707893,0.0012140697799623013
1772717492993696000,9.032696044921876,-0.38675937056541443,-0.22947372496128082,0.016815509647130966
1772717493013728300,9.052728271484375,-0.3056067228317261,-0.34581470489501953,-0.07345152646303177
1772717493033761000,9.072760986328126,-0.26989462971687317,-0.0858522579073906,-0.07442010194063187
1772717493053793300,9.092793212890625,-0.210011824965477,0.07098500430583954,0.03096609376370907
1772717493073825000,9.112824951171875,-0.14175696671009064,-0.13935057818889618,0.1048516109585762
1772717493093858000,9.132858154296875,-0.10175421833992004,-0.2957049608230591,-0.0062209805473685265
1772717493113890000,9.15289013671875,-0.176799014210701,-0.27929067611694336,-0.07295161485671997
1772717493133923300,9.17292333984375,-0.16129934787750244,-0.050228301435709,0.05581368878483772
1772717493153955300,9.192955322265625,-0.05201829969882965,0.22176103293895721,0.1280021071434021
1772717493173987300,9.2129873046875,-0.06642612814903259,0.15858912467956543,0.028821110725402832
1772717493194020400,9.233020263671875,-0.17671768367290497,-0.02008216083049774,-0.12349994480609894
1772717493214052400,9.25305224609375,-0.23127266764640808,-0.025616085156798363,-0.12014524638652802
