time,seconds_elapsed,z,y,x
1772788670342756600,0.203756591796875,9.7064790725708,0.5892876982688904,-1.083954095840454
1772788670362855000,0.22385498046875,9.748998641967773,0.5988696217536926,-1.0887449979782104
1772788670382953500,0.243953369140625,9.753789901733398,0.5701239109039307,-1.083954095840454
1772788670403051800,0.2640517578125,9.73941707611084,0.5844967365264893,-1.0791630744934082
1772788670423150000,0.284150146484375,9.73941707611084,0.6084515452384949,-1.0791630744934082
1772788670443248600,0.30424853515625,9.734625816345215,0.5940786600112915,-1.0887449979782104
1772788670463347000,0.324346923828125,9.725044250488281,0.5940786600112915,-1.0935359001159668
1772788670483445500,0.344445556640625,9.753789901733398,0.5988696217536926,-1.0935359001159668
1772788670503543800,0.364543701171875,9.753789901733398,0.5892876982688904,-1.069581151008606
1772788670523642000,0.38464208984375,9.734625816345215,0.5892876982688904,-1.0791630744934082
1772788670543740700,0.40474072265625,9.734625816345215,0.5892876982688904,-1.083954095840454
1772788670563839000,0.4248388671875,9.725044250488281,0.5940786600112915,-1.0743721723556519
1772788670583937500,0.4449375,9.725044250488281,0.5892876982688904,-1.0743721723556519
1772788670604035800,0.465035888671875,9.73941707611084,0.5892876982688904,-1.0743721723556519
1772788670624134100,0.485134033203125,9.734625816345215,0.5892876982688904,-1.0935359001159668
1772788670644232700,0.505232666015625,9.72983455657959,0.613242506980896,-1.083954095840454
1772788670664331000,0.5253310546875,9.73941707611084,0.5988696217536926,-1.083954095840454
1772788670684429300,0.54542919921875,9.725044250488281,0.5940786600112915,-1.083954095840454
1772788670704527600,0.565527587890625,9.734625816345215,0.5844967365264893,-1.069581151008606
1772788670724626200,0.585626220703125,9.720252990722656,0.5797058343887329,-1.083954095840454
1772788670744724500,0.605724365234375,9.711270332336426,0.5982707738876343,-1.0881460905075073
1772788670764822800,0.62582275390625,9.72983455657959,0.6030617356300354,-1.0737732648849487
1772788670784921300,0.64592138671875,9.72983455657959,0.5844967365264893,-1.0689822435379028
1772788670805019600,0.66601953125,9.72085189819336,0.5934798121452332,-1.0881460905075073
1772788670825118000,0.686117919921875,9.72983455657959,0.5982707738876343,-1.0929371118545532
1772788670845216300,0.70621630859375,9.72085189819336,0.5982707738876343,-1.083355188369751
1772788670865314800,0.726314697265625,9.73941707611084,0.5934798121452332,-1.0737732648849487
1772788670885413000,0.7464130859375,9.73941707611084,0.5743159651756287,-1.0881460905075073
1772788670905511400,0.766511474609375,9.748998641967773,0.5743159651756287,-1.0689822435379028
1772788670925609700,0.786609619140625,9.744207382202148,0.5982707738876343,-1.0689822435379028
1772788670945708000,0.8067080078125,9.725044250488281,0.5940786600112915,-1.0737732648849487
1772788670965806600,0.826806640625,9.744207382202148,0.5940786600112915,-1.0737732648849487
1772788670985905000,0.84690478515625,9.744207382202148,0.5892876982688904,-1.0546094179153442
1772788671006003200,0.867003173828125,9.734625816345215,0.5988696217536926,-1.0594004392623901
1772788671026101800,0.887101806640625,9.73941707611084,0.5940786600112915,-1.078564167022705
1772788671046200000,0.907199951171875,9.725044250488281,0.5797058343887329,-1.078564167022705
1772788671066298400,0.92729833984375,9.73941707611084,0.6036605834960938,-1.078564167022705
1772788671086396700,0.947396728515625,9.753789901733398,0.5988696217536926,-1.0881460905075073
1772788671126593500,0.987593505859375,9.696897506713867,0.5892876982688904,-1.0594004392623901
1772788671146691800,1.00769189453125,9.734625816345215,0.5749148726463318,-1.0546094179153442
1772788671166790400,1.027790283203125,9.734625816345215,0.5557510256767273,-1.0594004392623901
1772788671186889700,1.0478896484375,9.73941707611084,0.5605419874191284,-1.0689822435379028
1772788671206989300,1.0679892578125,9.734625816345215,0.5892876982688904,-1.0689822435379028
1772788671227089000,1.0880888671875,9.734625816345215,0.5892876982688904,-1.078564167022705
1772788671247188200,1.108188232421875,9.734625816345215,0.5934798121452332,-1.0881460905075073
1772788671267287800,1.128287841796875,9.734625816345215,0.5701239109039307,-1.083355188369751
1772788671287387100,1.14838720703125,9.744207382202148,0.5797058343887329,-1.083355188369751
1772788671307486700,1.16848681640625,9.744207382202148,0.5605419874191284,-1.0641913414001465
1772788671327586300,1.18858642578125,9.748998641967773,0.5749148726463318,-1.0594004392623901
1772788671347685600,1.208685546875,9.734625816345215,0.5749148726463318,-1.0599992275238037
1772788671367785200,1.22878515625,9.720252990722656,0.5605419874191284,-1.0647902488708496
1772788671387884800,1.248884765625,9.715461730957031,0.5844967365264893,-1.0599992275238037
1772788671407984400,1.268984375,9.73941707611084,0.5749148726463318,-1.0743721723556519
1772788671428083700,1.289083740234375,9.72983455657959,0.5749148726463318,-1.083954095840454
1772788671448183300,1.309183349609375,9.715461730957031,0.5988696217536926,-1.083954095840454
1772788671468283000,1.329282958984375,9.725044250488281,0.5749148726463318,-1.0749709606170654
1772788671488382200,1.34938232421875,9.734625816345215,0.5701239109039307,-1.0653890371322632
1772788671508481800,1.369481689453125,9.72983455657959,0.5892876982688904,-1.055807113647461
1772788671528581400,1.389581298828125,9.72983455657959,0.5844967365264893,-1.070180058479309
1772788671548680700,1.4096806640625,9.73941707611084,0.5749148726463318,-1.078564167022705
1772788671568780300,1.4297802734375,9.748998641967773,0.5797058343887329,-1.0689822435379028
1772788671588880000,1.4498798828125,9.72983455657959,0.5653329491615295,-1.083355188369751
1772788671608979200,1.469979248046875,9.758581161499023,0.5653329491615295,-1.083355188369751
1772788671629078800,1.490078857421875,9.72983455657959,0.5557510256767273,-1.0737732648849487
1772788671649178400,1.510178466796875,9.753789901733398,0.5647340416908264,-1.0641913414001465
1772788671669277400,1.53027734375,9.734625816345215,0.5743159651756287,-1.0594004392623901
1772788671689375700,1.550375732421875,9.744207382202148,0.5743159651756287,-1.0594004392623901
1772788671709474300,1.570474365234375,9.753789901733398,0.5791069269180298,-1.0594004392623901
1772788671729572600,1.590572509765625,9.744207382202148,0.5599430799484253,-1.0635924339294434
1772788671749671000,1.6106708984375,9.72983455657959,0.5701239109039307,-1.069581151008606
1772788671769769500,1.63076953125,9.744207382202148,0.5701239109039307,-1.0599992275238037
1772788671789867800,1.65086767578125,9.720252990722656,0.5653329491615295,-1.0504173040390015
1772788671809966000,1.670966064453125,9.75798225402832,0.5557510256767273,-1.0552083253860474
1772788671830064400,1.691064453125,9.744207382202148,0.5749148726463318,-1.055807113647461
1772788671850162700,1.71116259765625,9.73941707611084,0.5605419874191284,-1.055807113647461
1772788671870261200,1.73126123046875,9.72983455657959,0.5701239109039307,-1.0510162115097046
1772788671910457900,1.771457763671875,9.720252990722656,0.5563498735427856,-1.0845528841018677
1772788671930556200,1.79155615234375,9.725044250488281,0.5659317970275879,-1.0653890371322632
1772788671950654700,1.81165478515625,9.72983455657959,0.5557510256767273,-1.0647902488708496
1772788671970753000,1.8317529296875,9.734625816345215,0.546169102191925,-1.031253457069397
1772788671990851300,1.851851318359375,9.73941707611084,0.546169102191925,-1.0647902488708496
1772788672010949600,1.87194970703125,9.777145385742188,0.5509600639343262,-1.083954095840454
1772788672031048200,1.892048095703125,9.734625816345215,0.5844967365264893,-1.0456264019012451
1772788672051146500,1.912146484375,9.72983455657959,0.5844967365264893,-1.0504173040390015
1772788672071244800,1.932244873046875,9.762772560119629,0.5701239109039307,-1.0935359001159668
1772788672111441400,1.97244140625,9.710671424865723,0.6228244304656982,-1.0408353805541992
1772788672131540000,1.9925400390625,9.715461730957031,0.5701239109039307,-1.0126885175704956
1772788672151638300,2.01263818359375,9.715461730957031,0.5180222392082214,-1.0126885175704956
1772788672171736800,2.03273681640625,9.72983455657959,0.5413781404495239,-1.0222704410552979
1772788672191835400,2.05283544921875,9.696897506713867,0.5036493539810181,-1.0078976154327393
1772788672211934200,2.072934326171875,9.734625816345215,0.5180222392082214,-1.0078976154327393
1772788672232033000,2.093032958984375,9.744207382202148,0.5467679500579834,-1.0983269214630127
1772788672252131600,2.113131591796875,9.781936645507812,0.5892876982688904,-1.1558183431625366
1772788672272230400,2.13323046875,9.790919303894043,0.6946887969970703,-1.2037279605865479
1772788672292329200,2.1533291015625,9.795710563659668,0.71385258436203,-1.2037279605865479
1772788672312427800,2.173427734375,9.772355079650879,0.7186435461044312,-1.179773211479187
1772788672332526600,2.193526611328125,9.692106246948242,0.5940786600112915,-1.1366546154022217
1772788672352625400,2.21362548828125,9.701687812805176,0.5365871787071228,-1.103117823600769
1772788672372724000,2.233723876953125,9.696897506713867,0.6084515452384949,-1.0360444784164429
1772788672392822800,2.25382275390625,9.668749809265137,0.5892876982688904,-0.9881349205970764
1772788672412921600,2.273921630859375,9.682524681091309,0.5222142934799194,-0.9689710736274719
1772788672433020200,2.294020263671875,9.687314987182617,0.5557510256767273,-0.9785529971122742
1772788672453119000,2.314118896484375,9.672942161560059,0.5844967365264893,-0.973762035369873
1772788672473217800,2.3342177734375,9.692106246948242,0.546169102191925,-1.0360444784164429
1772788672493316600,2.354316650390625,9.687314987182617,0.5797058343887329,-1.103117823600769
1772788672513415200,2.374415283203125,9.654376983642578,0.6653441786766052,-1.1600104570388794
1772788672533514000,2.394513916015625,9.801100730895996,0.6509712934494019,-1.251038670539856
1772788672553612800,2.41461279296875,9.734625816345215,0.6515701413154602,-1.2181007862091064
1772788672573711400,2.43471142578125,9.73941707611084,0.6276153922080994,-1.1654002666473389
1772788672593810200,2.45481005859375,9.696897506713867,0.5749148726463318,-1.0887449979782104
1772788672613909000,2.474908935546875,9.701687812805176,0.5180222392082214,-1.0653890371322632
1772788672634007600,2.495007568359375,9.753190994262695,0.5467679500579834,-1.070180058479309
1772788672654106400,2.5151064453125,9.672942161560059,0.5276041626930237,-1.0031065940856934
1772788672674205200,2.535205078125,9.493281364440918,0.5323951244354248,-0.9360332489013672
1772788672694304300,2.55530419921875,9.597484588623047,0.5323951244354248,-1.0749709606170654
1772788672714403300,2.5754033203125,9.380095481872559,0.6755249500274658,-1.1468353271484375
1772788672734502400,2.59550244140625,9.682524681091309,0.794700026512146,-1.5337051153182983
1772788672754601500,2.6156015625,10.24486255645752,0.7659542560577393,-1.8541003465652466
1772788672774700500,2.635700439453125,10.576037406921387,0.8474005460739136,-2.432009696960449
1772788672794799600,2.655799560546875,10.277800559997559,0.6467791795730591,-2.1978516578674316
1772788672814898700,2.675898681640625,10.102931022644043,0.541977047920227,-2.069094657897949
1772788672834997500,2.69599755859375,9.715461730957031,0.34135568141937256,-1.5097503662109375
1772788672855096600,2.7160966796875,9.970580101013184,0.23116368055343628,-1.524123191833496
1772788672875195600,2.736195556640625,9.94243335723877,0.16888123750686646,-1.3187109231948853
1772788672895294700,2.756294677734375,9.805292129516602,0.1503162831068039,-1.0318523645401
1772788672915393800,2.776393798828125,9.795710563659668,0.13594341278076172,-0.830632209777832
1772788672955592000,2.816592041015625,9.781936645507812,0.16468915343284607,-0.5970730185508728
1772788672975691000,2.83669091796875,9.630422592163086,0.18385298550128937,-0.4485533535480499
1772788672995790000,2.8567900390625,9.578320503234863,0.169480100274086,-0.41082456707954407
1772788673015889200,2.87688916015625,9.526219367980957,0.24074558913707733,-0.4204064905643463
1772788673035988200,2.89698828125,9.469925880432129,0.3509376049041748,-0.4156155288219452
1772788673056087300,2.91708740234375,9.644795417785645,0.288655161857605,-0.5299996137619019
1772788673076186400,2.937186279296875,9.620841026306152,0.23655350506305695,-0.4539431929588318
1772788673096285400,2.957285400390625,9.630422592163086,0.18385298550128937,-0.39166074991226196
1772788673116384500,2.977384521484375,9.696298599243164,0.2269715964794159,-0.40603360533714294
1772788673136483600,2.997483642578125,9.653778076171875,0.2269715964794159,-0.36351385712623596
1772788673156582400,3.01758251953125,9.715461730957031,0.19822585582733154,-0.3922595977783203
1772788673176680700,3.0376806640625,9.767563819885254,0.2078077644109726,-0.44016918540000916
1772788673196778500,3.057778564453125,9.715461730957031,0.21259872615337372,-0.4305872619152069
1772788673216876000,3.0778759765625,9.720252990722656,0.23655350506305695,-0.4114234447479248
1772788673236973800,3.097973876953125,9.76696491241455,0.22218063473701477,-0.4641239643096924
1772788673277169200,3.138169189453125,9.83823013305664,0.2844630777835846,-0.5928809642791748
1772788673297267000,3.158266845703125,9.719654083251953,0.2892540395259857,-0.5503612160682678
1772788673317364500,3.178364501953125,9.866376876831055,0.23176254332065582,-0.5743159651756287
1772788673337462300,3.198462158203125,9.67713451385498,0.2892540395259857,-0.5120335221290588
1772788673357559800,3.218559814453125,9.861586570739746,0.23655350506305695,-0.5264064073562622
1772788673377657600,3.23865771484375,9.83823013305664,0.22218063473701477,-0.47849684953689575
1772788673397757000,3.2587568359375,9.705880165100098,0.2078077644109726,-0.42519745230674744
1772788673417856500,3.2788564453125,9.86218547821045,0.19822585582733154,-0.5066437125205994
1772788673437956400,3.298956298828125,9.738818168640137,0.246135413646698,-0.48747989535331726
1772788673458056200,3.31905615234375,9.814874649047852,0.24134446680545807,-0.48747989535331726
1772788673478156000,3.339156005859375,9.772355079650879,0.26050829887390137,-0.5114346742630005
1772788673498256000,3.359255859375,9.776546478271484,0.23176254332065582,-0.530598521232605
1772788673518355500,3.37935546875,9.74839973449707,0.26050829887390137,-0.5066437125205994
1772788673538455300,3.399455322265625,9.776546478271484,0.288655161857605,-0.5018527507781982
1772788673558555100,3.41955517578125,9.8526029586792,0.2269715964794159,-0.492270827293396
1772788673578655000,3.439655029296875,9.753190994262695,0.24134446680545807,-0.4587341547012329
1772788673598754600,3.459754638671875,9.795710563659668,0.23176254332065582,-0.4347793459892273
1772788673618854400,3.4798544921875,9.734625816345215,0.24134446680545807,-0.42998838424682617
1772788673638954200,3.499954345703125,9.78133773803711,0.23655350506305695,-0.4587341547012329
1772788673659053800,3.5200537109375,9.795710563659668,0.24134446680545807,-0.492270827293396
1772788673679153000,3.54015283203125,9.786128997802734,0.2503274977207184,-0.5012539029121399
1772788673699251200,3.560251220703125,10.027473449707031,0.20301680266857147,-0.5779091715812683
1772788673719349800,3.580349853515625,9.512445449829102,0.2982370853424072,-0.4204064905643463
1772788673739448000,3.600447998046875,9.875959396362305,0.23176254332065582,-0.49646294116973877
1772788673759546600,3.620546630859375,9.75798225402832,0.24553655087947845,-0.4587341547012329
1772788673779645000,3.64064501953125,9.795710563659668,0.21259872615337372,-0.4395703077316284
1772788673799743500,3.660743408203125,9.800501823425293,0.23176254332065582,-0.4539431929588318
1772788673819841800,3.680841796875,9.771756172180176,0.2509263753890991,-0.46352508664131165
1772788673839940400,3.7009404296875,9.790919303894043,0.23176254332065582,-0.46831604838371277
1772788673860038700,3.72103857421875,9.786128997802734,0.23176254332065582,-0.477897971868515
1772788673880137200,3.74113720703125,10.088558197021484,0.21259872615337372,-0.5880900025367737
1772788673900235800,3.76123583984375,9.389078140258789,0.3275817036628723,-0.37788674235343933
1772788673920334000,3.781333984375,9.970580101013184,0.2078077644109726,-0.5120335221290588
1772788673940432600,3.8014326171875,9.75798225402832,0.21259872615337372,-0.45933300256729126
1772788673960531000,3.821531005859375,9.823857307434082,0.23176254332065582,-0.45454204082489014
1772788673980629500,3.84162939453125,9.776546478271484,0.2269715964794159,-0.4497511088848114
1772788674000727800,3.861727783203125,9.771756172180176,0.21738967299461365,-0.44016918540000916
1772788674020826400,3.881826416015625,9.786128997802734,0.21738967299461365,-0.45933300256729126
1772788674040924700,3.901924560546875,9.786128997802734,0.2269715964794159,-0.45933300256729126
1772788674081121500,3.94212158203125,9.800501823425293,0.24134446680545807,-0.5120335221290588
1772788674101220000,3.96222021484375,9.965789794921875,0.2269715964794159,-0.5072425603866577
1772788674121318400,3.982318359375,9.554366111755371,0.25571733713150024,-0.40184152126312256
1772788674161515300,4.022515380859375,9.804693222045898,0.22218063473701477,-0.4497511088848114
1772788674181614000,4.042614013671875,9.753190994262695,0.23655350506305695,-0.44016918540000916
1772788674201713000,4.062712890625,9.805292129516602,0.24134446680545807,-0.45454204082489014
1772788674221812000,4.08281201171875,9.776546478271484,0.2269715964794159,-0.4497511088848114
1772788674241910800,4.102910888671875,9.790919303894043,0.23655350506305695,-0.47849684953689575
1772788674262009600,4.123009521484375,9.786128997802734,0.24134446680545807,-0.4641239643096924
1772788674282108400,4.1431083984375,9.78133773803711,0.21259872615337372,-0.4497511088848114
1772788674302207200,4.163207275390625,9.776546478271484,0.22218063473701477,-0.45454204082489014
1772788674322306000,4.18330615234375,9.790919303894043,0.23176254332065582,-0.4449601471424103
1772788674362504000,4.22350390625,10.121495246887207,0.15989819169044495,-0.5353894829750061
1772788674382602800,4.243602783203125,9.323202133178711,0.31799978017807007,-0.349141001701355
1772788674402701600,4.26370166015625,9.956207275390625,0.21259872615337372,-0.48268893361091614
1772788674422800400,4.28380029296875,9.75798225402832,0.22218063473701477,-0.44915223121643066
1772788674442899500,4.3038994140625,9.810083389282227,0.24134446680545807,-0.4395703077316284
1772788674462998300,4.323998291015625,9.795710563659668,0.246135413646698,-0.44915223121643066
1772788674483097000,4.34409716796875,9.762772560119629,0.2269715964794159,-0.46352508664131165
1772788674503196000,4.36419580078125,9.795710563659668,0.21738967299461365,-0.44436126947402954
1772788674523294700,4.384294677734375,9.795710563659668,0.22218063473701477,-0.44436126947402954
1772788674543393800,4.404393798828125,9.786128997802734,0.23655350506305695,-0.44436126947402954
1772788674563492600,4.42449267578125,9.78133773803711,0.2269715964794159,-0.46352508664131165
1772788674583591400,4.44459130859375,9.814874649047852,0.24134446680545807,-0.4539431929588318
1772788674603690200,4.464690185546875,9.786128997802734,0.23655350506305695,-0.43537822365760803
1772788674623789000,4.4847890625,9.809484481811523,0.21319758892059326,-0.4641239643096924
1772788674643887900,4.504887939453125,9.79990291595459,0.23176254332065582,-0.45933300256729126
1772788674663987000,4.524987060546875,9.804693222045898,0.23176254332065582,-0.4497511088848114
1772788674684085200,4.545085205078125,9.786128997802734,0.21798855066299438,-0.44555899500846863
1772788674704183800,4.565183837890625,9.795710563659668,0.21798855066299438,-0.44555899500846863
1772788674724282400,4.585282470703125,9.941834449768066,0.1796608865261078,-0.5120335221290588
1772788674744381000,4.605380859375,9.616049766540527,0.29404500126838684,-0.3593217730522156
1772788674764479200,4.625479248046875,9.899314880371094,0.20840662717819214,-0.4647228419780731
1772788674784577800,4.645577880859375,9.734026908874512,0.2419433295726776,-0.44555899500846863
1772788674804676000,4.665676025390625,9.819067001342773,0.2269715964794159,-0.4449601471424103
1772788674824774700,4.685774658203125,9.762173652648926,0.2509263753890991,-0.43537822365760803
1772788674844873200,4.705873291015625,9.790919303894043,0.23655350506305695,-0.4641239643096924
1772788674864971800,4.7259716796875,9.804693222045898,0.23176254332065582,-0.4449601471424103
1772788674885070000,4.746070068359375,9.795710563659668,0.23655350506305695,-0.4305872619152069
1772788674905168600,4.766168701171875,9.795710563659668,0.20840662717819214,-0.4257963001728058
1772788674925267200,4.78626708984375,9.790919303894043,0.21738967299461365,-0.44016918540000916
1772788674965464000,4.826464111328125,9.776546478271484,0.23176254332065582,-0.43537822365760803
1772788674985562600,4.846562744140625,9.79990291595459,0.24134446680545807,-0.4449601471424103
1772788675005661200,4.8666611328125,9.78133773803711,0.25152525305747986,-0.43597710132598877
1772788675025759500,4.886759521484375,9.776546478271484,0.2419433295726776,-0.45034995675086975
1772788675045858000,4.906858154296875,9.790919303894043,0.23236142098903656,-0.45034995675086975
1772788675065956600,4.92695654296875,9.79990291595459,0.23715238273143768,-0.43118613958358765
1772788675086055000,4.947054931640625,9.786128997802734,0.23236142098903656,-0.43597710132598877
1772788675106153500,4.967153564453125,9.786128997802734,0.20840662717819214,-0.4407680630683899
1772788675126252000,4.987251953125,9.809484481811523,0.23236142098903656,-0.44555899500846863
1772788675146350300,5.007350341796875,10.059812545776367,0.18924281001091003,-0.49346858263015747
1772788675166449000,5.027448974609375,9.436388969421387,0.2844630777835846,-0.37848562002182007
1772788675186548000,5.0475478515625,9.899314880371094,0.21798855066299438,-0.46951380372047424
1772788675206647000,5.06764697265625,9.771756172180176,0.21319758892059326,-0.43597710132598877
1772788675226746000,5.08774609375,9.786128997802734,0.24673429131507874,-0.4407680630683899
1772788675266944300,5.1279443359375,9.78133773803711,0.22277949750423431,-0.43118613958358765
1772788675287043300,5.148043212890625,9.790919303894043,0.22277949750423431,-0.4407680630683899
1772788675307142400,5.168142333984375,9.804693222045898,0.23236142098903656,-0.44555899500846863
1772788675327241500,5.188241455078125,9.79990291595459,0.22277949750423431,-0.43597710132598877
1772788675347340500,5.208340576171875,9.790919303894043,0.21798855066299438,-0.4407680630683899
1772788675367439600,5.228439697265625,9.776546478271484,0.21319758892059326,-0.4407680630683899
1772788675387538700,5.24853857421875,9.78133773803711,0.22757045924663544,-0.43118613958358765
1772788675407637800,5.2686376953125,9.790919303894043,0.22218063473701477,-0.4305872619152069
1772788675447836000,5.3088359375,9.804693222045898,0.23655350506305695,-0.42100536823272705
1772788675467935000,5.32893505859375,9.800501823425293,0.22218063473701477,-0.44016918540000916
1772788675488034000,5.349033935546875,9.795710563659668,0.2269715964794159,-0.43537822365760803
1772788675508133000,5.369133056640625,9.790919303894043,0.21738967299461365,-0.43537822365760803
1772788675528232000,5.38923193359375,9.786128997802734,0.21259872615337372,-0.4305872619152069
1772788675548331000,5.4093310546875,9.786128997802734,0.21738967299461365,-0.43537822365760803
1772788675568430000,5.42943017578125,9.78133773803711,0.23176254332065582,-0.43537822365760803
1772788675588529200,5.449529052734375,9.800501823425293,0.22218063473701477,-0.4257963001728058
1772788675608628200,5.469628173828125,9.776546478271484,0.23236142098903656,-0.44555899500846863
1772788675628727300,5.489727294921875,9.78133773803711,0.23715238273143768,-0.4263951778411865
1772788675648826400,5.509826416015625,9.804693222045898,0.21798855066299438,-0.4263951778411865
1772788675668925400,5.529925537109375,9.814275741577148,0.22277949750423431,-0.4263951778411865
1772788675689024800,5.550024658203125,9.776546478271484,0.23236142098903656,-0.43118613958358765
1772788675729223200,5.59022314453125,9.79990291595459,0.20840662717819214,-0.43597710132598877
1772788675749322200,5.610322265625,9.786128997802734,0.21319758892059326,-0.4407680630683899
1772788675769421300,5.63042138671875,9.88015079498291,0.1988247185945511,-0.47430476546287537
1772788675789520600,5.650520751953125,9.734026908874512,0.26589810848236084,-0.3689036965370178
1772788675829718800,5.69071875,9.743609428405762,0.2269715964794159,-0.4162144064903259
1772788675849818000,5.710818115234375,9.83823013305664,0.23176254332065582,-0.4162144064903259
1772788675869917200,5.730917236328125,9.78133773803711,0.23176254332065582,-0.4066324830055237
1772788675890016300,5.751016357421875,9.833439826965332,0.22218063473701477,-0.42100536823272705
1772788675910115600,5.771115478515625,9.76696491241455,0.21259872615337372,-0.43537822365760803
1772788675930214700,5.791214599609375,9.809484481811523,0.22218063473701477,-0.4449601471424103
1772788675950313700,5.811313720703125,9.805292129516602,0.2269715964794159,-0.4257963001728058
1772788675970413000,5.8314130859375,9.790919303894043,0.21259872615337372,-0.40184152126312256
1772788675990512000,5.85151220703125,9.786128997802734,0.24134446680545807,-0.4114234447479248
1772788676010611200,5.871611083984375,9.790919303894043,0.2269715964794159,-0.42100536823272705
1772788676030710500,5.89171044921875,9.78133773803711,0.2269715964794159,-0.4257963001728058
1772788676050809600,5.9118095703125,9.786128997802734,0.21738967299461365,-0.42100536823272705
1772788676070909000,5.931908935546875,9.809484481811523,0.23176254332065582,-0.4257963001728058
1772788676091008000,5.952008056640625,9.795710563659668,0.23655350506305695,-0.42100536823272705
1772788676111107000,5.972107177734375,9.800501823425293,0.21738967299461365,-0.4162144064903259
1772788676131206400,5.992206298828125,9.800501823425293,0.21259872615337372,-0.4305872619152069
1772788676151305500,6.012305419921875,9.795710563659668,0.2269715964794159,-0.43537822365760803
1772788676171404000,6.032404052734375,9.804693222045898,0.23176254332065582,-0.4257963001728058
1772788676191501600,6.05250146484375,9.800501823425293,0.21738967299461365,-0.42100536823272705
1772788676211599000,6.07259912109375,9.790919303894043,0.2269715964794159,-0.43537822365760803
1772788676231696600,6.092696533203125,9.800501823425293,0.23655350506305695,-0.42100536823272705
1772788676251794000,6.1127939453125,9.790919303894043,0.2078077644109726,-0.42100536823272705
1772788676271891500,6.132891357421875,9.800501823425293,0.20301680266857147,-0.42100536823272705
1772788676291989000,6.152989013671875,9.795710563659668,0.2269715964794159,-0.4305872619152069
1772788676312086500,6.17308642578125,9.795710563659668,0.21738967299461365,-0.43537822365760803
1772788676332183800,6.193183837890625,9.78133773803711,0.2269715964794159,-0.4305872619152069
1772788676352281300,6.21328125,9.795710563659668,0.23176254332065582,-0.4162144064903259
1772788676372379000,6.23337890625,9.800501823425293,0.23655350506305695,-0.42519745230674744
1772788676392476400,6.253476318359375,9.78133773803711,0.2078077644109726,-0.42519745230674744
1772788676412574000,6.273573974609375,9.800501823425293,0.21738967299461365,-0.4305872619152069
1772788676432671200,6.293671142578125,9.804693222045898,0.21738967299461365,-0.4305872619152069
1772788676452768800,6.313768798828125,9.795710563659668,0.23655350506305695,-0.4257963001728058
1772788676472866300,6.3338662109375,9.800501823425293,0.21738967299461365,-0.4162144064903259
1772788676492963800,6.3539638671875,9.828648567199707,0.21259872615337372,-0.43537822365760803
1772788676513061000,6.37406103515625,9.819067001342773,0.22218063473701477,-0.42100536823272705
1772788676533158700,6.39415869140625,9.795710563659668,0.21798855066299438,-0.41202232241630554
1772788676553256200,6.414256103515625,9.790919303894043,0.2269715964794159,-0.4168132543563843
1772788676573353700,6.434353759765625,10.05082893371582,0.1844518482685089,-0.49766066670417786
1772788676593451000,6.454450927734375,9.436388969421387,0.27967211604118347,-0.34015795588493347
1772788676613548500,6.474548583984375,9.941834449768066,0.20301680266857147,-0.45454204082489014
1772788676633646000,6.49464599609375,9.76696491241455,0.22218063473701477,-0.4257963001728058
1772788676653743600,6.51474365234375,9.814275741577148,0.22218063473701477,-0.4114234447479248
1772788676673841400,6.53484130859375,9.800501823425293,0.21738967299461365,-0.4162144064903259
1772788676693940500,6.5549404296875,9.786128997802734,0.21738967299461365,-0.4114234447479248
1772788676714039300,6.575039306640625,9.814275741577148,0.23655350506305695,-0.42100536823272705
1772788676734138400,6.595138427734375,9.819067001342773,0.246135413646698,-0.4257963001728058
1772788676754237200,6.6152373046875,9.819067001342773,0.23176254332065582,-0.4162144064903259
1772788676774336000,6.6353359375,9.800501823425293,0.21738967299461365,-0.44016918540000916
1772788676794435000,6.65543505859375,9.804693222045898,0.2078077644109726,-0.4257963001728058
1772788676814534000,6.675533935546875,9.819067001342773,0.22218063473701477,-0.4066324830055237
1772788676834632700,6.6956328125,9.804693222045898,0.2269715964794159,-0.4162144064903259
1772788676854731500,6.7157314453125,9.786128997802734,0.23176254332065582,-0.4162144064903259
1772788676874830600,6.73583056640625,9.786128997802734,0.2269715964794159,-0.43537822365760803
1772788676894929400,6.755929443359375,9.800501823425293,0.24134446680545807,-0.4257963001728058
1772788676915028500,6.776028564453125,9.809484481811523,0.2269715964794159,-0.4114234447479248
1772788676935127300,6.796127197265625,9.795710563659668,0.23655350506305695,-0.42100536823272705
1772788676955226000,6.81622607421875,9.786128997802734,0.21738967299461365,-0.42100536823272705
1772788676975325200,6.8363251953125,9.800501823425293,0.2078077644109726,-0.4114234447479248
1772788676995424000,6.856424072265625,9.804693222045898,0.22218063473701477,-0.4066324830055237
1772788677015522800,6.876522705078125,9.805292129516602,0.23655350506305695,-0.4162144064903259
1772788677035621600,6.89662158203125,9.800501823425293,0.23176254332065582,-0.4114234447479248
1772788677055720700,6.916720703125,9.805292129516602,0.21738967299461365,-0.4257963001728058
1772788677075819500,6.936819580078125,9.795710563659668,0.23176254332065582,-0.42100536823272705
1772788677095918300,6.95691845703125,9.795710563659668,0.2269715964794159,-0.4162144064903259
1772788677116017400,6.977017333984375,9.809484481811523,0.2078077644109726,-0.4066324830055237
1772788677136116200,6.9971162109375,9.805292129516602,0.21738967299461365,-0.42100536823272705
1772788677156215300,7.01721533203125,9.814275741577148,0.2078077644109726,-0.42100536823272705
1772788677176314400,7.037314453125,9.790919303894043,0.22218063473701477,-0.4257963001728058
1772788677216512800,7.0775126953125,9.804693222045898,0.22277949750423431,-0.4168132543563843
1772788677236612000,7.097612060546875,9.790919303894043,0.21319758892059326,-0.41202232241630554
1772788677256711400,7.11771142578125,9.795111656188965,0.23715238273143768,-0.4216042160987854
1772788677276810800,7.137810791015625,9.809484481811523,0.22277949750423431,-0.4263951778411865
1772788677296910000,7.15791015625,9.804693222045898,0.23236142098903656,-0.4072313606739044
1772788677317009400,7.178009521484375,9.809484481811523,0.21798855066299438,-0.4024403989315033
1772788677337108700,7.198108642578125,9.79032039642334,0.21798855066299438,-0.4072313606739044
1772788677357208000,7.2182080078125,9.78133773803711,0.21319758892059326,-0.43118613958358765
1772788677377307400,7.238307373046875,9.795111656188965,0.23715238273143768,-0.4126211702823639
1772788677397406700,7.25840673828125,9.795111656188965,0.23236142098903656,-0.40783020853996277
1772788677417506000,7.278506103515625,9.819067001342773,0.2078077644109726,-0.4156155288219452
1772788677437605400,7.29860546875,9.800501823425293,0.20301680266857147,-0.4204064905643463
1772788677457704700,7.31870458984375,9.805292129516602,0.2078077644109726,-0.41082456707954407
1772788677477804000,7.338803955078125,9.805292129516602,0.21259872615337372,-0.4156155288219452
1772788677497903400,7.3589033203125,9.795710563659668,0.21259872615337372,-0.4204064905643463
1772788677518002700,7.379002685546875,9.810083389282227,0.21738967299461365,-0.42519745230674744
1772788677538102000,7.39910205078125,9.786128997802734,0.19822585582733154,-0.4156155288219452
1772788677558201300,7.419201416015625,9.805292129516602,0.22158177196979523,-0.4204064905643463
1772788677578300700,7.43930078125,9.800501823425293,0.2359546422958374,-0.4245985746383667
1772788677598399700,7.459399658203125,9.790919303894043,0.22637271881103516,-0.4245985746383667
1772788677618499000,7.4794990234375,9.81966495513916,0.21738967299461365,-0.41082456707954407
1772788677638598400,7.499598388671875,9.823857307434082,0.22218063473701477,-0.44436126947402954
1772788677658697700,7.51969775390625,9.795710563659668,0.21259872615337372,-0.4204064905643463
1772788677678796800,7.539796875,9.78133773803711,0.22218063473701477,-0.41082456707954407
1772788677698895600,7.5598955078125,9.795710563659668,0.23176254332065582,-0.4204064905643463
1772788677718994200,7.579994140625,9.786128997802734,0.20301680266857147,-0.42519745230674744
1772788677739093000,7.600093017578125,9.781936645507812,0.22218063473701477,-0.4204064905643463
1772788677759191800,7.62019189453125,9.795710563659668,0.2167908102273941,-0.4204064905643463
1772788677779290600,7.64029052734375,9.781936645507812,0.2359546422958374,-0.41022568941116333
1772788677799389200,7.66038916015625,9.78133773803711,0.2078077644109726,-0.4066324830055237
1772788677819488000,7.680488037109375,9.795710563659668,0.21738967299461365,-0.4162144064903259
1772788677839586800,7.7005869140625,9.810083389282227,0.23655350506305695,-0.4066324830055237
1772788677859685600,7.720685546875,9.805292129516602,0.23176254332065582,-0.42100536823272705
1772788677879784400,7.740784423828125,9.805292129516602,0.21259872615337372,-0.4257963001728058
1772788677899883000,7.760883056640625,10.121495246887207,0.15989819169044495,-0.48268893361091614
1772788677919981800,7.78098193359375,9.360931396484375,0.3036268949508667,-0.33955907821655273
1772788677940080600,7.80108056640625,9.941834449768066,0.21259872615337372,-0.4257963001728058
1772788677960179500,7.821179443359375,9.78133773803711,0.21738967299461365,-0.42100536823272705
1772788677980278300,7.8412783203125,9.814275741577148,0.2269715964794159,-0.39705055952072144
1772788678000376800,7.861376953125,9.800501823425293,0.22218063473701477,-0.4012426435947418
1772788678020475600,7.8814755859375,9.78133773803711,0.2078077644109726,-0.42519745230674744
1772788678040574500,7.901574462890625,9.810083389282227,0.21738967299461365,-0.4204064905643463
1772788678060673300,7.92167333984375,9.800501823425293,0.22218063473701477,-0.41082456707954407
1772788678080771800,7.941771728515625,9.795710563659668,0.23176254332065582,-0.4156155288219452
1772788678100870700,7.96187060546875,9.786128997802734,0.22218063473701477,-0.4204064905643463
1772788678120969500,7.981969482421875,9.805292129516602,0.21738967299461365,-0.3964517116546631
1772788678141068300,8.002068359375,9.781936645507812,0.23116368055343628,-0.4012426435947418
1772788678161167000,8.0221669921875,9.810083389282227,0.2078077644109726,-0.41082456707954407
1772788678181265700,8.042265625,9.790919303894043,0.22637271881103516,-0.4198076128959656
1772788678201364000,8.062364013671875,9.790919303894043,0.23176254332065582,-0.4114234447479248
1772788678221462500,8.082462646484375,9.819067001342773,0.2269715964794159,-0.4305872619152069
1772788678241561000,8.10256103515625,9.786128997802734,0.21259872615337372,-0.42100536823272705
1772788678261659600,8.12265966796875,9.795710563659668,0.21738967299461365,-0.4162144064903259
1772788678301856800,8.162856689453125,9.790919303894043,0.22218063473701477,-0.4114234447479248
1772788678321955300,8.182955322265625,9.786128997802734,0.21738967299461365,-0.4162144064903259
1772788678342054000,8.203053955078126,9.795710563659668,0.20301680266857147,-0.40184152126312256
1772788678382251000,8.2432509765625,9.804693222045898,0.2269715964794159,-0.42100536823272705
1772788678402349600,8.263349609375,9.814275741577148,0.2269715964794159,-0.4162144064903259
1772788678422447900,8.28344775390625,9.800501823425293,0.21738967299461365,-0.4066324830055237
1772788678442546400,8.30354638671875,9.800501823425293,0.23176254332065582,-0.41082456707954407
1772788678482743600,8.34374365234375,9.786128997802734,0.23176254332065582,-0.4156155288219452
1772788678502842000,8.363842041015625,9.795710563659668,0.21259872615337372,-0.41082456707954407
1772788678522940700,8.383940673828125,9.800501823425293,0.22218063473701477,-0.3964517116546631
1772788678543039000,8.4040390625,9.805292129516602,0.22218063473701477,-0.41082456707954407
1772788678563137000,8.424136962890625,9.81966495513916,0.2078077644109726,-0.40603360533714294
1772788678583235000,8.444235107421875,9.810083389282227,0.23655350506305695,-0.42998838424682617
1772788678603333000,8.4643330078125,9.795710563659668,0.22218063473701477,-0.4162144064903259
1772788678623431200,8.48443115234375,9.800501823425293,0.21738967299461365,-0.4162144064903259
1772788678643529500,8.504529541015625,9.790919303894043,0.22218063473701477,-0.4162144064903259
1772788678663627500,8.52462744140625,9.805292129516602,0.19343489408493042,-0.4066324830055237
1772788678683725600,8.5447255859375,9.800501823425293,0.2078077644109726,-0.4162144064903259
1772788678703823600,8.56482373046875,9.804693222045898,0.23176254332065582,-0.41202232241630554
1772788678723922000,8.584921875,9.790919303894043,0.22757045924663544,-0.4168132543563843
1772788678744020000,8.60502001953125,9.795710563659668,0.22158177196979523,-0.4156155288219452
1772788678784216300,8.64521630859375,9.810083389282227,0.2078077644109726,-0.40603360533714294
1772788678804314600,8.665314697265625,9.810083389282227,0.19822585582733154,-0.41022568941116333
1772788678824412700,8.68541259765625,9.786128997802734,0.23116368055343628,-0.41501665115356445
1772788678864609000,8.725609130859375,9.805292129516602,0.21199984848499298,-0.41022568941116333
1772788678884707000,8.74570703125,9.795710563659668,0.2167908102273941,-0.41022568941116333
1772788678904805400,8.765805419921875,9.786727905273438,0.20720888674259186,-0.41022568941116333
1772788678924903400,8.7859033203125,9.810083389282227,0.22158177196979523,-0.40064379572868347
1772788678945001500,8.80600146484375,9.810083389282227,0.21259872615337372,-0.41082456707954407
1772788678985197800,8.84619775390625,9.800501823425293,0.2078077644109726,-0.3964517116546631
1772788679005296000,8.866296142578125,9.810083389282227,0.22218063473701477,-0.4066324830055237
1772788679025394200,8.886394287109376,9.819067001342773,0.21259872615337372,-0.3922595977783203
1772788679045492500,8.906492431640626,9.805292129516602,0.21738967299461365,-0.4162144064903259
1772788679065590500,8.926590576171876,9.795710563659668,0.2269715964794159,-0.4162144064903259
1772788679085688600,8.9466884765625,9.78133773803711,0.21259872615337372,-0.3922595977783203
1772788679105787000,8.966786865234376,9.800501823425293,0.23176254332065582,-0.4066324830055237
1772788679125885000,8.986885009765626,9.805292129516602,0.246135413646698,-0.4162144064903259
1772788679145983200,9.006983154296876,9.814874649047852,0.21259872615337372,-0.41082456707954407
1772788679166081300,9.027081298828126,9.814874649047852,0.19822585582733154,-0.41082456707954407
1772788679186179600,9.0471796875,9.800501823425293,0.21259872615337372,-0.4156155288219452
1772788679206278100,9.067278076171876,9.790919303894043,0.21259872615337372,-0.4012426435947418
1772788679226376700,9.087376708984374,9.790919303894043,0.2269715964794159,-0.3964517116546631
1772788679246475000,9.10747509765625,9.805292129516602,0.23116368055343628,-0.42519745230674744
1772788679266573600,9.127573486328124,9.814874649047852,0.21738967299461365,-0.4156155288219452
1772788679286672100,9.147672119140625,9.786128997802734,0.21738967299461365,-0.3964517116546631
1772788679306770400,9.1677705078125,9.795710563659668,0.21259872615337372,-0.41082456707954407
1772788679326869000,9.187868896484375,9.805292129516602,0.20301680266857147,-0.41022568941116333
1772788679346967300,9.20796728515625,9.795710563659668,0.20720888674259186,-0.41501665115356445
1772788679367065900,9.22806591796875,9.790919303894043,0.19822585582733154,-0.40064379572868347
1772788679387164400,9.248164306640625,9.790919303894043,0.2167908102273941,-0.41501665115356445
1772788679407262700,9.2682626953125,9.795710563659668,0.22158177196979523,-0.41501665115356445
1772788679427361300,9.288361328125,9.786727905273438,0.2167908102273941,-0.41501665115356445
1772788679447459600,9.30845947265625,9.777145385742188,0.21199984848499298,-0.4054347574710846
1772788679467558100,9.32855810546875,9.795710563659668,0.20241793990135193,-0.4054347574710846
1772788679487656700,9.34865673828125,9.786727905273438,0.22158177196979523,-0.41501665115356445
1772788679507755000,9.368755126953126,9.805292129516602,0.22637271881103516,-0.4054347574710846
1772788679527853600,9.388853515625,9.81966495513916,0.21199984848499298,-0.41501665115356445
1772788679547951900,9.408951904296876,9.805292129516602,0.20241793990135193,-0.41022568941116333
1772788679568050400,9.429050537109376,9.791518211364746,0.21199984848499298,-0.41501665115356445
1772788679588149000,9.44914892578125,9.795710563659668,0.2167908102273941,-0.4198076128959656
1772788679608247300,9.469247314453124,9.781936645507812,0.22637271881103516,-0.4198076128959656
1772788679628345900,9.489345947265624,9.786727905273438,0.2167908102273941,-0.4245985746383667
1772788679648444200,9.509444091796874,9.800501823425293,0.2359546422958374,-0.40064379572868347
1772788679668542700,9.529542724609374,9.805292129516602,0.21199984848499298,-0.39585283398628235
1772788679688642300,9.549642333984375,9.81966495513916,0.21199984848499298,-0.4198076128959656
1772788679708742000,9.569741943359375,9.814874649047852,0.22637271881103516,-0.40064379572868347
1772788679728841200,9.58984130859375,9.805292129516602,0.22158177196979523,-0.4054347574710846
1772788679748940800,9.60994091796875,9.810083389282227,0.2167908102273941,-0.4054347574710846
1772788679769040400,9.630040283203124,9.81966495513916,0.20720888674259186,-0.4054347574710846
1772788679789139700,9.6501396484375,9.796309471130371,0.22158177196979523,-0.41022568941116333
1772788679809239300,9.6702392578125,9.786727905273438,0.22637271881103516,-0.41501665115356445
1772788679829339000,9.6903388671875,9.786727905273438,0.21199984848499298,-0.4054347574710846
1772788679849438200,9.710438232421875,9.781936645507812,0.22158177196979523,-0.409626841545105
1772788679869537800,9.730537841796876,9.786727905273438,0.2167908102273941,-0.40483587980270386
1772788679889637400,9.750637451171874,9.796309471130371,0.21199984848499298,-0.409626841545105
1772788679909736700,9.77073681640625,9.791518211364746,0.23116368055343628,-0.4144177734851837
1772788679949935900,9.810935791015625,9.824456214904785,0.21199984848499298,-0.3862709105014801
1772788679970035200,9.83103515625,9.82924747467041,0.2167908102273941,-0.4054347574710846
1772788679990134800,9.851134765625,9.790919303894043,0.21199984848499298,-0.3910618722438812
1772788680010234400,9.871234375,9.805292129516602,0.23116368055343628,-0.4054347574710846
1772788680030334000,9.891333984375,9.800501823425293,0.2167908102273941,-0.41022568941116333
1772788680050433300,9.911433349609375,10.084365844726562,0.18385298550128937,-0.49646294116973877
1772788680070532900,9.931532958984375,9.417823791503906,0.2982370853424072,-0.3197963833808899
1772788680090632200,9.951632080078125,9.956806182861328,0.18385298550128937,-0.4156155288219452
1772788680110731800,9.971731689453126,9.781936645507812,0.20301680266857147,-0.41082456707954407
1772788680130831400,9.991831298828124,9.828648567199707,0.20301680266857147,-0.41082456707954407
1772788680150930700,10.0119306640625,9.786727905273438,0.20720888674259186,-0.4054347574710846
1772788680171030000,10.032030029296875,9.795710563659668,0.20720888674259186,-0.40064379572868347
1772788680191129000,10.052129150390625,9.824456214904785,0.22158177196979523,-0.41022568941116333
1772788680211228200,10.072228271484375,9.805292129516602,0.21199984848499298,-0.4054347574710846
1772788680231327200,10.0923271484375,9.786128997802734,0.20720888674259186,-0.40064379572868347
1772788680251426000,10.112426025390626,9.781936645507812,0.22637271881103516,-0.41022568941116333
1772788680271525000,10.132525146484374,9.810083389282227,0.22158177196979523,-0.41501665115356445
1772788680291624200,10.152624267578124,9.790919303894043,0.22637271881103516,-0.41082456707954407
1772788680311723300,10.17272314453125,9.810083389282227,0.2167908102273941,-0.38686978816986084
1772788680331822300,10.192822265625,9.810083389282227,0.22637271881103516,-0.4012426435947418
1772788680351921200,10.212921142578125,9.796309471130371,0.2167908102273941,-0.40004491806030273
1772788680372020200,10.233020263671875,9.796309471130371,0.20720888674259186,-0.40004491806030273
1772788680392119300,10.253119384765625,9.786727905273438,0.20720888674259186,-0.40483587980270386
1772788680412218400,10.27321826171875,9.805292129516602,0.21199984848499298,-0.409626841545105
1772788680432317400,10.2933173828125,9.781936645507812,0.22158177196979523,-0.40004491806030273
1772788680452416300,10.313416259765624,9.805891036987305,0.22158177196979523,-0.4144177734851837
1772788680472515300,10.333515380859374,9.805891036987305,0.22637271881103516,-0.40004491806030273
1772788680492614400,10.353614501953125,9.786727905273438,0.1976269781589508,-0.40004491806030273
1772788680512713500,10.37371337890625,9.796309471130371,0.19283601641654968,-0.40004491806030273
1772788680532812500,10.3938125,9.81966495513916,0.21199984848499298,-0.40483587980270386
1772788680552911400,10.413911376953125,9.810083389282227,0.21199984848499298,-0.409626841545105
1772788680573010400,10.434010498046876,9.796309471130371,0.23116368055343628,-0.40004491806030273
1772788680593109500,10.454109619140626,9.805891036987305,0.22637271881103516,-0.409626841545105
1772788680613208600,10.47420849609375,9.796309471130371,0.2167908102273941,-0.4144177734851837
1772788680653406500,10.514406494140625,9.814874649047852,0.21140098571777344,-0.40004491806030273
1772788680673505000,10.534505126953125,9.796309471130371,0.21619193255901337,-0.3904629945755005
1772788680693602800,10.554602783203125,9.791518211364746,0.20661002397537231,-0.4042370021343231
1772788680713700900,10.574700927734375,9.791518211364746,0.20661002397537231,-0.40902796387672424
1772788680733798700,10.594798583984375,9.81966495513916,0.23056480288505554,-0.41381892561912537
1772788680753896400,10.614896484375,9.805292129516602,0.21199984848499298,-0.41022568941116333
1772788680773994200,10.634994140625,9.810083389282227,0.19283601641654968,-0.40064379572868347
1772788680794092300,10.65509228515625,9.805292129516602,0.1976269781589508,-0.41022568941116333
1772788680814190000,10.675190185546874,9.800501823425293,0.20720888674259186,-0.4245985746383667
1772788680834287900,10.695287841796874,9.810083389282227,0.22637271881103516,-0.41022568941116333
1772788680854386000,10.715385986328124,9.781936645507812,0.20720888674259186,-0.40064379572868347
1772788680874483700,10.735483642578124,9.790919303894043,0.2167908102273941,-0.4054347574710846
1772788680894581500,10.75558154296875,9.795710563659668,0.2167908102273941,-0.39585283398628235
1772788680914679600,10.775679443359374,9.790919303894043,0.22637271881103516,-0.4054347574710846
1772788680934777300,10.79577734375,9.805292129516602,0.22158177196979523,-0.41022568941116333
1772788680954875100,10.815875244140624,9.805292129516602,0.18804506957530975,-0.40483587980270386
1772788680995071000,10.856071044921874,9.786727905273438,0.1976269781589508,-0.40004491806030273
1772788681015168800,10.876168701171874,9.81966495513916,0.20720888674259186,-0.40483587980270386
1772788681035266600,10.8962666015625,9.824456214904785,0.20241793990135193,-0.409626841545105
1772788681055364600,10.916364501953124,9.814874649047852,0.2167908102273941,-0.409626841545105
1772788681075462400,10.93646240234375,9.814874649047852,0.22158177196979523,-0.4144177734851837
1772788681095560200,10.956560302734376,9.796309471130371,0.20241793990135193,-0.40004491806030273
1772788681115658200,10.976658203125,9.801100730895996,0.21199984848499298,-0.409626841545105
1772788681135756000,10.996756103515626,9.796309471130371,0.20241793990135193,-0.40483587980270386
1772788681155853800,11.016853759765626,9.786727905273438,0.22158177196979523,-0.4144177734851837
1772788681175952100,11.0369521484375,9.801100730895996,0.22158177196979523,-0.4144177734851837
1772788681196050700,11.05705078125,9.814874649047852,0.20720888674259186,-0.3952539563179016
1772788681216149500,11.0771494140625,9.814874649047852,0.2167908102273941,-0.40483587980270386
1772788681236248000,11.097248046875,9.796309471130371,0.22158177196979523,-0.40483587980270386
1772788681256347000,11.117346923828125,9.791518211364746,0.20720888674259186,-0.40004491806030273
1772788681276445400,11.137445556640625,9.796309471130371,0.2167908102273941,-0.3952539563179016
1772788681296544300,11.157544189453125,9.791518211364746,0.20720888674259186,-0.409626841545105
1772788681316642800,11.177642822265625,9.810083389282227,0.22158177196979523,-0.40483587980270386
1772788681336741600,11.19774169921875,9.791518211364746,0.2167908102273941,-0.4054347574710846
1772788681356840200,11.217840087890625,9.800501823425293,0.21199984848499298,-0.41022568941116333
1772788681376938800,11.237938720703125,9.791518211364746,0.21199984848499298,-0.41501665115356445
1772788681397037600,11.25803759765625,9.805292129516602,0.23116368055343628,-0.40064379572868347
1772788681417136000,11.27813623046875,9.795710563659668,0.20241793990135193,-0.41501665115356445
1772788681437235000,11.29823486328125,9.795710563659668,0.20241793990135193,-0.41022568941116333
1772788681457333500,11.31833349609375,9.790919303894043,0.22158177196979523,-0.40064379572868347
1772788681477432300,11.338432373046874,9.790919303894043,0.2359546422958374,-0.41501665115356445
1772788681497531000,11.35853076171875,9.795710563659668,0.22637271881103516,-0.4054347574710846
1772788681517629400,11.37862939453125,9.800501823425293,0.2167908102273941,-0.39585283398628235
1772788681537728300,11.398728271484375,9.791518211364746,0.1976269781589508,-0.409626841545105
1772788681557826800,11.418826904296875,9.800501823425293,0.1976269781589508,-0.41920873522758484
1772788681577925600,11.438925537109375,9.800501823425293,0.2167908102273941,-0.4144177734851837
1772788681598024200,11.459024169921875,9.814874649047852,0.23116368055343628,-0.40483587980270386
1772788681618123000,11.479123046875,9.796309471130371,0.22637271881103516,-0.4144177734851837
1772788681638221600,11.4992216796875,9.801100730895996,0.1976269781589508,-0.4144177734851837
1772788681658320400,11.5193203125,9.810083389282227,0.22158177196979523,-0.40483587980270386
1772788681678419500,11.53941943359375,9.805292129516602,0.2167908102273941,-0.4144177734851837
1772788681698519000,11.55951904296875,9.801100730895996,0.2167908102273941,-0.40004491806030273
1772788681718618600,11.57961865234375,9.805292129516602,0.20720888674259186,-0.3952539563179016
1772788681738718200,11.59971826171875,9.781936645507812,0.2167908102273941,-0.40483587980270386
1772788681758817800,11.61981787109375,9.796309471130371,0.2167908102273941,-0.4144177734851837
1772788681778917400,11.63991748046875,9.796309471130371,0.20241793990135193,-0.40004491806030273
1772788681799017000,11.660016845703124,9.791518211364746,0.21140098571777344,-0.399446040391922
1772788681819116500,11.680116455078124,9.8016996383667,0.21559306979179382,-0.3934573531150818
1772788681839216000,11.700216064453125,9.782535552978516,0.20541228353977203,-0.3922595977783203
1772788681859315700,11.720315673828125,9.816072463989258,0.21499419212341309,-0.4012426435947418
1772788681899515000,11.760514892578126,9.79810619354248,0.22816933691501617,-0.399446040391922
1772788681919614500,11.780614501953124,9.788524627685547,0.22757045924663544,-0.40303927659988403
1772788681939714000,11.800714111328125,9.826851844787598,0.21259872615337372,-0.3976494371891022
1772788681959813600,11.820813720703125,9.78912353515625,0.20301680266857147,-0.39166074991226196
1772788682000012800,11.8610126953125,9.801100730895996,0.22158177196979523,-0.3904629945755005
1772788682020112400,11.8811123046875,9.791518211364746,0.22158177196979523,-0.409626841545105
1772788682040212000,11.9012119140625,9.796309471130371,0.23116368055343628,-0.40004491806030273
1772788682060311600,11.9213115234375,9.814874649047852,0.2167908102273941,-0.40483587980270386
1772788682080411100,11.9414111328125,9.810083389282227,0.20241793990135193,-0.3904629945755005
1772788682100510700,11.9615107421875,9.801100730895996,0.20241793990135193,-0.40004491806030273
1772788682120610300,11.9816103515625,9.805292129516602,0.2167908102273941,-0.3952539563179016
1772788682140710000,12.0017099609375,9.805292129516602,0.21199984848499298,-0.409626841545105
1772788682180908300,12.041908203125,9.800501823425293,0.19283601641654968,-0.39585283398628235
1772788682201006800,12.0620068359375,9.81966495513916,0.20241793990135193,-0.3952539563179016
1772788682221105400,12.08210546875,9.801100730895996,0.22637271881103516,-0.40483587980270386
1772788682241204000,12.102203857421875,9.796309471130371,0.23116368055343628,-0.4144177734851837
1772788682261302500,12.122302490234375,9.801100730895996,0.22637271881103516,-0.40004491806030273
1772788682281400800,12.14240087890625,9.810083389282227,0.20720888674259186,-0.38567203283309937
1772788682301499400,12.16249951171875,9.805891036987305,0.22637271881103516,-0.40004491806030273
1772788682341696500,12.202696533203126,9.796309471130371,0.20720888674259186,-0.40483587980270386
1772788682361795000,12.222795166015626,9.810083389282227,0.20241793990135193,-0.4144177734851837
1772788682381893600,12.2428935546875,9.801100730895996,0.21199984848499298,-0.409626841545105
1772788682422090500,12.283090576171874,9.796309471130371,0.2167908102273941,-0.40004491806030273
1772788682442189000,12.30318896484375,9.796309471130371,0.2257738560438156,-0.40483587980270386
1772788682462287600,12.32328759765625,9.81068229675293,0.20241793990135193,-0.409626841545105
1772788682482386200,12.34338623046875,9.81068229675293,0.21619193255901337,-0.3952539563179016
1772788682502484700,12.363484619140625,9.786727905273438,0.2257738560438156,-0.4144177734851837
1772788682522583300,12.383583251953125,9.796309471130371,0.21619193255901337,-0.4144177734851837
1772788682542681900,12.403681884765625,9.796309471130371,0.21619193255901337,-0.40483587980270386
1772788682562780200,12.4237802734375,9.786727905273438,0.2209828943014145,-0.4186098873615265
1772788682582878700,12.443878662109375,9.796309471130371,0.2209828943014145,-0.3904629945755005
1772788682602977300,12.463977294921875,9.801100730895996,0.2257738560438156,-0.40483587980270386
1772788682623075800,12.484075927734375,9.781936645507812,0.2167908102273941,-0.40483587980270386
1772788682643174400,12.50417431640625,9.777145385742188,0.20241793990135193,-0.40004491806030273
1772788682663273000,12.52427294921875,9.791518211364746,0.19283601641654968,-0.40483587980270386
1772788682683371000,12.54437109375,9.805891036987305,0.1976269781589508,-0.4144177734851837
1772788682703469300,12.56446923828125,9.796309471130371,0.20241793990135193,-0.3952539563179016
1772788682743666000,12.604666015625,9.786727905273438,0.2257738560438156,-0.40483587980270386
1772788682763764000,12.624763916015626,9.801100730895996,0.2257738560438156,-0.40004491806030273
1772788682783862300,12.6448623046875,9.791518211364746,0.2257738560438156,-0.409626841545105
1772788682803960600,12.664960693359374,9.814874649047852,0.21140098571777344,-0.40004491806030273
1772788682824059000,12.685058837890624,9.81966495513916,0.21140098571777344,-0.40004491806030273
1772788682844157000,12.705156982421874,9.801100730895996,0.20720888674259186,-0.40004491806030273
1772788682864255200,12.725255126953124,9.81068229675293,0.20720888674259186,-0.4144177734851837
1772788682884353500,12.745353515625,9.82924747467041,0.21140098571777344,-0.41381892561912537
1772788682924550000,12.7855498046875,9.805891036987305,0.21140098571777344,-0.40483587980270386
1772788682944648200,12.805648193359374,9.786727905273438,0.20661002397537231,-0.40483587980270386
1772788682964746500,12.82574658203125,9.801100730895996,0.20241793990135193,-0.3952539563179016
1772788682984844800,12.8458447265625,9.805891036987305,0.21619193255901337,-0.40902796387672424
1772788683004942800,12.86594287109375,9.801100730895996,0.21140098571777344,-0.41381892561912537
1772788683025041200,12.886041259765625,9.791518211364746,0.2257738560438156,-0.40902796387672424
1772788683045139500,12.906139404296875,9.786727905273438,0.21619193255901337,-0.399446040391922
1772788683085335800,12.946335693359375,9.801100730895996,0.21140098571777344,-0.39884716272354126
1772788683125532400,12.986532470703125,9.825055122375488,0.2209828943014145,-0.39884716272354126
1772788683145630700,13.006630615234375,9.81068229675293,0.21140098571777344,-0.4036381244659424
1772788683165728800,13.026728759765625,9.801100730895996,0.20661002397537231,-0.4036381244659424
1772788683185827300,13.046827392578125,9.772953987121582,0.2209828943014145,-0.38986414670944214
1772788683205926000,13.06692578125,9.805891036987305,0.21140098571777344,-0.38986414670944214
1772788683226024700,13.087024658203125,9.796309471130371,0.20661002397537231,-0.4042370021343231
1772788683246123300,13.107123291015625,9.796309471130371,0.20661002397537231,-0.4042370021343231
1772788683266221800,13.127221923828126,9.815473556518555,0.21619193255901337,-0.40902796387672424
1772788683286320400,13.1473203125,9.805891036987305,0.2257738560438156,-0.40902796387672424
1772788683306419200,13.167419189453126,9.801100730895996,0.21619193255901337,-0.3946550786495209
1772788683326517800,13.187517822265624,9.81966495513916,0.20661002397537231,-0.385073184967041
1772788683346616300,13.2076162109375,9.814874649047852,0.20661002397537231,-0.40902796387672424
1772788683366715000,13.22771484375,10.117902755737305,0.15450836718082428,-0.46651944518089294
1772788683386813400,13.2478134765625,9.38548469543457,0.29284724593162537,-0.3275817036628723
1772788683406912300,13.267912353515625,9.914885520935059,0.19702811539173126,-0.41322004795074463
1772788683427010800,13.2880107421875,9.796309471130371,0.19223715364933014,-0.3940562307834625
1772788683447109400,13.308109375,9.791518211364746,0.21619193255901337,-0.3940562307834625
1772788683467208000,13.3282080078125,9.805891036987305,0.21140098571777344,-0.39884716272354126
1772788683487306800,13.348306640625,9.763371467590332,0.21140098571777344,-0.39884716272354126
1772788683507405300,13.3684052734375,9.782535552978516,0.23535576462745667,-0.4084290862083435
1772788683527504000,13.38850390625,9.796309471130371,0.2257738560438156,-0.39884716272354126
1772788683547602400,13.4086025390625,9.81068229675293,0.2209828943014145,-0.3940562307834625
1772788683567701000,13.428700927734376,9.796309471130371,0.21140098571777344,-0.4084290862083435
1772788683587799800,13.4487998046875,9.824456214904785,0.21619193255901337,-0.399446040391922
1772788683607898400,13.4688984375,9.81068229675293,0.21140098571777344,-0.37549126148223877
1772788683627997000,13.488996826171874,9.786727905273438,0.23056480288505554,-0.38986414670944214
1772788683648095500,13.509095458984374,9.81068229675293,0.2257738560438156,-0.4042370021343231
1772788683668194300,13.5291943359375,9.796309471130371,0.21140098571777344,-0.40004491806030273
1772788683688292900,13.54929296875,9.805891036987305,0.1976269781589508,-0.40004491806030273
1772788683708391700,13.5693916015625,9.81068229675293,0.21199984848499298,-0.40483587980270386
1772788683728490200,13.589490234375,9.810083389282227,0.22158177196979523,-0.3904629945755005
1772788683748589000,13.609589111328125,9.796309471130371,0.22637271881103516,-0.4144177734851837
1772788683768687600,13.6296875,9.796309471130371,0.2167908102273941,-0.40004491806030273
1772788683788786400,13.649786376953125,9.81068229675293,0.20661002397537231,-0.399446040391922
1772788683808885200,13.66988525390625,9.805891036987305,0.20661002397537231,-0.399446040391922
1772788683828983800,13.68998388671875,9.796309471130371,0.21140098571777344,-0.385073184967041
1772788683849082600,13.71008251953125,9.815473556518555,0.21140098571777344,-0.38986414670944214
1772788683869181200,13.73018115234375,9.805891036987305,0.21140098571777344,-0.399446040391922
1772788683889280000,13.750280029296874,9.796309471130371,0.2018190622329712,-0.40902796387672424
1772788683909378600,13.770378662109374,9.805891036987305,0.23056480288505554,-0.4042370021343231
1772788683929477400,13.790477294921875,9.791518211364746,0.2257738560438156,-0.4042370021343231
1772788683949576200,13.810576171875,9.81068229675293,0.2209828943014145,-0.4042370021343231
1772788683969674800,13.8306748046875,9.805891036987305,0.20661002397537231,-0.4042370021343231
1772788683989773600,13.850773681640625,9.781936645507812,0.21619193255901337,-0.3946550786495209
1772788684009872100,13.8708720703125,9.805891036987305,0.2018190622329712,-0.3946550786495209
1772788684029971000,13.890970947265625,9.805891036987305,0.20661002397537231,-0.4042370021343231
1772788684050069500,13.911069580078125,9.786727905273438,0.2209828943014145,-0.399446040391922
1772788684070168300,13.931168212890626,9.81068229675293,0.21140098571777344,-0.4186098873615265
1772788684090267000,13.951266845703126,9.801100730895996,0.18744619190692902,-0.4042370021343231
1772788684110365700,13.97136572265625,9.81068229675293,0.21619193255901337,-0.40902796387672424
1772788684130464500,13.991464599609374,9.81068229675293,0.2209828943014145,-0.4042370021343231
1772788684150563000,14.01156298828125,9.796309471130371,0.23056480288505554,-0.4042370021343231
1772788684170661600,14.03166162109375,9.796309471130371,0.2209828943014145,-0.385073184967041
1772788684190760000,14.051760009765625,9.786727905273438,0.21140098571777344,-0.3946550786495209
1772788684210858000,14.07185791015625,9.777145385742188,0.19223715364933014,-0.399446040391922
1772788684230956300,14.091956298828125,9.805891036987305,0.21619193255901337,-0.38986414670944214
1772788684271153000,14.13215283203125,9.796309471130371,0.2018190622329712,-0.40902796387672424
1772788684291251000,14.1522509765625,9.81068229675293,0.20661002397537231,-0.385073184967041
1772788684311349200,14.172349365234375,9.801100730895996,0.23535576462745667,-0.4042370021343231
1772788684331447300,14.192447265625,9.796309471130371,0.20661002397537231,-0.4042370021343231
1772788684351545600,14.212545654296875,9.796309471130371,0.2018190622329712,-0.4042370021343231
1772788684391742200,14.2527421875,9.796309471130371,0.21140098571777344,-0.3946550786495209
1772788684411840300,14.27284033203125,9.772953987121582,0.20661002397537231,-0.4042370021343231
1772788684431938600,14.2929384765625,9.81068229675293,0.20661002397537231,-0.4042370021343231
1772788684472135000,14.333135009765625,9.801100730895996,0.19702811539173126,-0.399446040391922
1772788684492233200,14.353233154296875,9.81068229675293,0.20661002397537231,-0.38986414670944214
1772788684512331500,14.37333154296875,9.791518211364746,0.2209828943014145,-0.4036381244659424
1772788684532429600,14.3934296875,9.791518211364746,0.2257738560438156,-0.39884716272354126
1772788684552528000,14.41352783203125,9.820263862609863,0.2018190622329712,-0.385073184967041
1772788684572626200,14.433626220703125,9.791518211364746,0.2018190622329712,-0.4036381244659424
1772788684592724200,14.45372412109375,9.801100730895996,0.21140098571777344,-0.4042370021343231
1772788684612822500,14.473822509765625,9.801100730895996,0.20661002397537231,-0.3946550786495209
1772788684632920800,14.4939208984375,9.814874649047852,0.2018190622329712,-0.399446040391922
1772788684653019000,14.514018798828126,9.796309471130371,0.21619193255901337,-0.3904629945755005
1772788684673117400,14.534117431640626,9.796309471130371,0.21619193255901337,-0.3904629945755005
1772788684693216500,14.554216552734376,9.801100730895996,0.20720888674259186,-0.409626841545105
1772788684713315300,14.5743154296875,9.786727905273438,0.20720888674259186,-0.3952539563179016
1772788684733414400,14.594414306640624,9.810083389282227,0.21199984848499298,-0.3952539563179016
1772788684753513500,14.614513427734375,9.796309471130371,0.1976269781589508,-0.3952539563179016
1772788684773612500,14.634612548828125,9.796309471130371,0.18804506957530975,-0.40004491806030273
1772788684793711400,14.65471142578125,9.825055122375488,0.23056480288505554,-0.37489238381385803
1772788684813810400,14.674810546875,9.801100730895996,0.21140098571777344,-0.3844743072986603
1772788684833909500,14.694909423828125,9.77774429321289,0.2018190622329712,-0.4036381244659424
1772788684854008300,14.71500830078125,9.77774429321289,0.2209828943014145,-0.39884716272354126
1772788684874107400,14.735107421875,9.825055122375488,0.21619193255901337,-0.3940562307834625
1772788684894206200,14.755206298828124,9.815473556518555,0.2018190622329712,-0.4036381244659424
1772788684914305300,14.77530517578125,9.796309471130371,0.21619193255901337,-0.39884716272354126
1772788684934404400,14.795404296875,9.78732681274414,0.22517497837543488,-0.3940562307834625
1772788684954503400,14.81550341796875,9.79211711883545,0.23954784870147705,-0.39884716272354126
1772788684974602200,14.835602294921875,9.815473556518555,0.2108021080493927,-0.39884716272354126
1772788684994701300,14.855701416015625,9.796309471130371,0.21619193255901337,-0.40902796387672424
1772788685014800400,14.87580029296875,9.77774429321289,0.2257738560438156,-0.399446040391922
1772788685034899200,14.895899169921876,9.791518211364746,0.21140098571777344,-0.40902796387672424
1772788685054998300,14.915998291015624,9.805891036987305,0.19702811539173126,-0.3946550786495209
1772788685075097000,14.93609716796875,9.791518211364746,0.2209828943014145,-0.385073184967041
1772788685095196200,14.956196044921874,9.81068229675293,0.2257738560438156,-0.38986414670944214
1772788685115295200,14.976295166015625,9.796309471130371,0.21140098571777344,-0.38986414670944214
1772788685155493000,15.0164931640625,9.805891036987305,0.21140098571777344,-0.38986414670944214
1772788685175592000,15.036592041015625,9.801100730895996,0.20661002397537231,-0.4042370021343231
1772788685195690800,15.056690673828125,9.796309471130371,0.21619193255901337,-0.3946550786495209
1772788685235888000,15.09688818359375,9.805891036987305,0.21140098571777344,-0.38986414670944214
1772788685255986700,15.116986572265626,9.815473556518555,0.21619193255901337,-0.3946550786495209
1772788685276085500,15.13708544921875,9.81068229675293,0.20661002397537231,-0.4042370021343231
1772788685296184000,15.15718408203125,9.805891036987305,0.2018190622329712,-0.3946550786495209
1772788685316283000,15.177282958984375,9.805891036987305,0.19223715364933014,-0.3946550786495209
1772788685356480300,15.217480224609375,9.786727905273438,0.2018190622329712,-0.38986414670944214
1772788685396677600,15.257677734375,9.801100730895996,0.21140098571777344,-0.385073184967041
1772788685436875000,15.297875,9.796309471130371,0.21619193255901337,-0.3946550786495209
1772788685477072400,15.338072265625,9.786727905273438,0.20661002397537231,-0.3946550786495209
1772788685497171200,15.358171142578126,9.781936645507812,0.20661002397537231,-0.399446040391922
1772788685517269800,15.378269775390624,9.81068229675293,0.21140098571777344,-0.399446040391922
1772788685537368600,15.39836865234375,9.820263862609863,0.2209828943014145,-0.3802822232246399
1772788685557467100,15.418467041015624,9.805891036987305,0.2209828943014145,-0.38986414670944214
1772788685577566000,15.43856591796875,9.801100730895996,0.21140098571777344,-0.3946550786495209
1772788685597664800,15.458664794921875,9.81068229675293,0.2209828943014145,-0.39884716272354126
1772788685617763300,15.478763427734375,9.791518211364746,0.2257738560438156,-0.3940562307834625
1772788685637862100,15.498862060546875,9.801100730895996,0.2209828943014145,-0.3844743072986603
1772788685657960700,15.518960693359375,9.796309471130371,0.21140098571777344,-0.4036381244659424
1772788685678059000,15.53905908203125,9.791518211364746,0.20661002397537231,-0.3892652690410614
1772788685698157000,15.559156982421875,9.796309471130371,0.2018190622329712,-0.3940562307834625
1772788685718255000,15.579255126953125,9.820263862609863,0.2209828943014145,-0.3940562307834625
1772788685738353400,15.599353515625,9.796309471130371,0.21140098571777344,-0.3892652690410614
1772788685758451500,15.619451416015625,9.791518211364746,0.19702811539173126,-0.37968334555625916
1772788685778549500,15.639549560546875,9.801100730895996,0.20661002397537231,-0.37968334555625916
1772788685798647600,15.6596474609375,9.796309471130371,0.21559306979179382,-0.39884716272354126
1772788685818745600,15.67974560546875,9.815473556518555,0.20601116120815277,-0.4036381244659424
1772788685838843600,15.69984375,9.805891036987305,0.19702811539173126,-0.40303927659988403
1772788685858941700,15.719941650390625,9.79211711883545,0.19642923772335052,-0.3934573531150818
1772788685879040000,15.7400400390625,9.805891036987305,0.22517497837543488,-0.38866639137268066
1772788685899138000,15.760137939453125,9.801100730895996,0.22517497837543488,-0.3982483148574829
1772788685919236000,15.780236083984375,9.801100730895996,0.2108021080493927,-0.3934573531150818
1772788685939334100,15.800334228515625,9.796908378601074,0.22038403153419495,-0.3934573531150818
1772788685959432200,15.82043212890625,9.820263862609863,0.22517497837543488,-0.3982483148574829
1772788685979530200,15.8405302734375,9.782535552978516,0.21559306979179382,-0.40303927659988403
1772788685999628300,15.860628173828125,9.782535552978516,0.20661002397537231,-0.3940562307834625
1772788686019726600,15.8807265625,9.772953987121582,0.21619193255901337,-0.39884716272354126
1772788686039824600,15.90082470703125,9.782535552978516,0.22517497837543488,-0.3940562307834625
1772788686059922700,15.920922607421875,9.805891036987305,0.20661002397537231,-0.39884716272354126
1772788686100118800,15.961118896484376,9.81068229675293,0.21140098571777344,-0.39884716272354126
1772788686120216800,15.981216796875,9.768162727355957,0.21619193255901337,-0.39884716272354126
1772788686140315100,16.001315185546876,9.81068229675293,0.20661002397537231,-0.39884716272354126
1772788686160413200,16.0214130859375,9.801100730895996,0.2209828943014145,-0.41322004795074463
1772788686200609800,16.06160986328125,9.791518211364746,0.2209828943014145,-0.39884716272354126
1772788686220708400,16.081708251953124,9.801100730895996,0.2018190622329712,-0.39884716272354126
1772788686240806700,16.101806640625,9.838829040527344,0.20661002397537231,-0.3946550786495209
1772788686260905000,16.121905029296876,9.81068229675293,0.2257738560438156,-0.4042370021343231
1772788686301101800,16.162101806640624,9.796309471130371,0.2018190622329712,-0.3946550786495209
1772788686341298700,16.202298583984376,9.805891036987305,0.2257738560438156,-0.3946550786495209
1772788686361397000,16.22239697265625,9.786727905273438,0.23535576462745667,-0.40902796387672424
1772788686401593900,16.26259375,9.815473556518555,0.21140098571777344,-0.3892652690410614
1772788686421692400,16.2826923828125,9.81068229675293,0.2257738560438156,-0.3940562307834625
1772788686441790700,16.302790771484375,9.801100730895996,0.2209828943014145,-0.3892652690410614
1772788686481987600,16.342987548828123,9.801100730895996,0.20661002397537231,-0.3940562307834625
1772788686502086000,16.3630859375,9.796309471130371,0.20661002397537231,-0.3940562307834625
1772788686522184400,16.383184326171875,9.801100730895996,0.21559306979179382,-0.3940562307834625
1772788686542282800,16.40328271484375,9.801100730895996,0.22038403153419495,-0.39884716272354126
1772788686562381000,16.423381103515624,9.820263862609863,0.2108021080493927,-0.3892652690410614
1772788686582479600,16.443479736328126,9.796908378601074,0.1916382908821106,-0.38866639137268066
1772788686602578000,16.463577880859376,9.782535552978516,0.2209828943014145,-0.3892652690410614
1772788686622676500,16.483676513671874,9.81068229675293,0.19702811539173126,-0.3844743072986603
1772788686642774800,16.50377490234375,9.805891036987305,0.19223715364933014,-0.3892652690410614
1772788686682971600,16.5439716796875,9.796309471130371,0.21619193255901337,-0.4036381244659424
1772788686703070000,16.564070068359374,9.796309471130371,0.21140098571777344,-0.3940562307834625
1772788686723168500,16.58416845703125,9.805891036987305,0.20661002397537231,-0.3892652690410614
1772788686743267000,16.60426708984375,9.805891036987305,0.229965940117836,-0.3892652690410614
1772788686763365400,16.624365478515625,9.796309471130371,0.2018190622329712,-0.39884716272354126
1772788686803562200,16.664562255859376,9.81068229675293,0.20661002397537231,-0.37489238381385803
1772788686823660500,16.68466064453125,9.805891036987305,0.20661002397537231,-0.3940562307834625
1772788686843759000,16.704759033203125,9.801100730895996,0.21140098571777344,-0.3940562307834625
1772788686883956000,16.7449560546875,9.805891036987305,0.20661002397537231,-0.39884716272354126
1772788686904054300,16.76505419921875,9.805891036987305,0.21619193255901337,-0.3940562307834625
1772788686924152800,16.78515283203125,9.815473556518555,0.21619193255901337,-0.39884716272354126
1772788686944251100,16.805251220703123,9.801100730895996,0.2209828943014145,-0.3892652690410614
1772788686964349700,16.825349609375,9.805891036987305,0.2209828943014145,-0.3940562307834625
1772788686984448000,16.845447998046875,9.834636688232422,0.2108021080493927,-0.38866639137268066
1772788687004546600,16.865546630859374,9.796908378601074,0.20601116120815277,-0.40303927659988403
1772788687044743400,16.905743408203126,9.806489944458008,0.23475690186023712,-0.3934573531150818
1772788687064841700,16.925841796875,9.8016996383667,0.21559306979179382,-0.40303927659988403
1772788687084940300,16.945940185546874,9.8016996383667,0.19642923772335052,-0.3976494371891022
1772788687105038600,16.96603857421875,9.8016996383667,0.20122019946575165,-0.4024403989315033
1772788687125137200,16.98613720703125,9.811281204223633,0.20122019946575165,-0.4024403989315033
1772788687145235500,17.0062353515625,9.796908378601074,0.2108021080493927,-0.4024403989315033
1772788687165333800,17.026333740234374,9.806489944458008,0.20601116120815277,-0.39285847544670105
1772788687185433000,17.04643310546875,9.81068229675293,0.2257738560438156,-0.3892652690410614
1772788687205532200,17.0665322265625,9.805891036987305,0.21619193255901337,-0.39884716272354126
1772788687225631500,17.086631591796873,9.796309471130371,0.21619193255901337,-0.4036381244659424
1772788687245730600,17.10673046875,9.786727905273438,0.21619193255901337,-0.4036381244659424
1772788687285929000,17.146928955078124,9.796309471130371,0.21619193255901337,-0.3946550786495209
1772788687306028000,17.167028076171874,9.796309471130371,0.21619193255901337,-0.40902796387672424
1772788687326127400,17.18712744140625,9.805891036987305,0.2209828943014145,-0.3946550786495209
1772788687346226400,17.207226318359375,9.796309471130371,0.23056480288505554,-0.38986414670944214
1772788687386424800,17.2474248046875,9.81068229675293,0.2108021080493927,-0.38387542963027954
1772788687426623200,17.287623291015624,9.820263862609863,0.20122019946575165,-0.40303927659988403
1772788687446722300,17.307722412109374,9.79211711883545,0.19642923772335052,-0.40303927659988403
1772788687466821400,17.3278212890625,9.8016996383667,0.21559306979179382,-0.38866639137268066
1772788687486920700,17.347920654296875,9.79211711883545,0.21559306979179382,-0.38387542963027954
1772788687507019800,17.368019775390625,9.78732681274414,0.21559306979179382,-0.38866639137268066
1772788687547218200,17.40821826171875,9.796908378601074,0.2108021080493927,-0.3982483148574829
1772788687587416600,17.44841650390625,9.805891036987305,0.19642923772335052,-0.3934573531150818
1772788687607515600,17.468515625,9.815473556518555,0.19642923772335052,-0.38866639137268066
1772788687627615000,17.488614990234375,9.796908378601074,0.22038403153419495,-0.3982483148574829
1772788687647714000,17.508714111328125,9.796908378601074,0.20601116120815277,-0.3982483148574829
1772788687667813000,17.528813232421875,9.801100730895996,0.20601116120815277,-0.38387542963027954
1772788687687912000,17.548911865234373,9.782535552978516,0.20122019946575165,-0.38387542963027954
1772788687708010800,17.5690107421875,9.79211711883545,0.21559306979179382,-0.3934573531150818
1772788687728109600,17.589109619140626,9.801100730895996,0.22517497837543488,-0.38866639137268066
1772788687748208600,17.609208740234376,9.805891036987305,0.23475690186023712,-0.3934573531150818
1772788687788406300,17.64940625,9.81068229675293,0.21140098571777344,-0.3892652690410614
1772788687808505000,17.669505126953126,9.815473556518555,0.1826552450656891,-0.3940562307834625
1772788687828604000,17.68960400390625,9.79211711883545,0.21619193255901337,-0.3892652690410614
1772788687868801500,17.729801513671877,9.815473556518555,0.21140098571777344,-0.3844743072986603
1772788687888900400,17.749900390625,9.801100730895996,0.20661002397537231,-0.3892652690410614
1772788687908999200,17.769999267578125,9.81068229675293,0.20661002397537231,-0.3844743072986603
1772788687929098000,17.790097900390624,9.801100730895996,0.2018190622329712,-0.3940562307834625
1772788687949196800,17.81019677734375,9.801100730895996,0.2018190622329712,-0.4084290862083435
1772788687969295600,17.830295654296876,9.805891036987305,0.2209828943014145,-0.4036381244659424
1772788687989394400,17.85039453125,9.8016996383667,0.22038403153419495,-0.3982483148574829
1772788688009493200,17.8704931640625,9.81068229675293,0.20122019946575165,-0.3982483148574829
1772788688029592000,17.890592041015626,9.78732681274414,0.2108021080493927,-0.3934573531150818
1772788688049691000,17.91069091796875,9.782535552978516,0.21559306979179382,-0.38866639137268066
1772788688069789700,17.930789794921875,9.782535552978516,0.1916382908821106,-0.38387542963027954
1772788688089888500,17.950888427734377,9.79211711883545,0.22038403153419495,-0.3790844678878784
1772788688109987300,17.9709873046875,9.8016996383667,0.21559306979179382,-0.38866639137268066
1772788688130086400,17.99108642578125,9.815473556518555,0.22038403153419495,-0.3982483148574829
1772788688170283800,18.03128369140625,9.79211711883545,0.22517497837543488,-0.3982483148574829
1772788688190382300,18.05138232421875,9.805891036987305,0.20661002397537231,-0.39884716272354126
1772788688210480600,18.071480712890626,9.805891036987305,0.19702811539173126,-0.39884716272354126
1772788688230579000,18.091578857421876,9.805891036987305,0.21619193255901337,-0.3940562307834625
1772788688250677500,18.111677490234374,9.801100730895996,0.21140098571777344,-0.3892652690410614
1772788688270775800,18.13177587890625,9.81068229675293,0.2209828943014145,-0.38986414670944214
1772788688290874400,18.151874267578126,9.805891036987305,0.21619193255901337,-0.3946550786495209
1772788688331071000,18.192071044921875,9.786727905273438,0.21619193255901337,-0.38986414670944214
1772788688351169500,18.21216943359375,9.805891036987305,0.21140098571777344,-0.3946550786495209
1772788688371267800,18.232267822265626,9.824456214904785,0.21140098571777344,-0.4042370021343231
1772788688391366400,18.252366455078125,9.820263862609863,0.20601116120815277,-0.3982483148574829
1772788688411464700,18.272464599609375,9.801100730895996,0.22517497837543488,-0.38387542963027954
1772788688431563000,18.29256298828125,9.81068229675293,0.20601116120815277,-0.3934573531150818
1772788688451661600,18.31266162109375,9.805891036987305,0.2108021080493927,-0.38866639137268066
1772788688491858400,18.3528583984375,9.81068229675293,0.21559306979179382,-0.3982483148574829
1772788688511956700,18.372956787109374,9.796908378601074,0.21559306979179382,-0.3982483148574829
1772788688532055000,18.393054931640624,9.805891036987305,0.2108021080493927,-0.3982483148574829
1772788688552153600,18.413153564453125,9.8016996383667,0.22038403153419495,-0.38866639137268066
1772788688572252000,18.433251953125,9.81068229675293,0.2108021080493927,-0.38866639137268066
1772788688592350200,18.45335009765625,9.78732681274414,0.20122019946575165,-0.3790844678878784
1772788688632547000,18.493547119140626,9.8016996383667,0.2108021080493927,-0.3982483148574829
1772788688672743700,18.53374365234375,9.81068229675293,0.20601116120815277,-0.38866639137268066
1772788688712939800,18.573939697265626,9.805891036987305,0.22517497837543488,-0.3934573531150818
1772788688733037600,18.59403759765625,9.8016996383667,0.2108021080493927,-0.38387542963027954
1772788688753135600,18.614135498046874,9.8016996383667,0.20122019946575165,-0.40783020853996277
1772788688773233400,18.6342333984375,9.81068229675293,0.19642923772335052,-0.40303927659988403
1772788688793331500,18.65433154296875,9.796908378601074,0.22038403153419495,-0.38387542963027954
1772788688813429500,18.674429443359376,9.8016996383667,0.22517497837543488,-0.40303927659988403
1772788688833527300,18.69452734375,9.81068229675293,0.20122019946575165,-0.3982483148574829
1772788688873723100,18.73472314453125,9.805891036987305,0.21559306979179382,-0.3934573531150818
1772788688893821200,18.7548212890625,9.815473556518555,0.2108021080493927,-0.3934573531150818
1772788688913919200,18.774919189453126,9.81068229675293,0.19642923772335052,-0.3790844678878784
1772788688934017000,18.79501708984375,9.78732681274414,0.22517497837543488,-0.38866639137268066
1772788688954115000,18.815114990234374,9.81068229675293,0.20601116120815277,-0.40303927659988403
1772788688974213000,18.835213134765624,9.796908378601074,0.20122019946575165,-0.38387542963027954
1772788688994311000,18.855310791015626,9.801100730895996,0.21559306979179382,-0.3892652690410614
1772788689014409000,18.875408935546876,9.801100730895996,0.19223715364933014,-0.3940562307834625
1772788689034506800,18.8955068359375,9.79211711883545,0.2018190622329712,-0.3940562307834625
1772788689054604800,18.915604736328124,9.78732681274414,0.21619193255901337,-0.3892652690410614
1772788689074702800,18.935702880859374,9.79211711883545,0.20661002397537231,-0.3892652690410614
1772788689094800600,18.955800537109376,9.801100730895996,0.2018190622329712,-0.3844743072986603
1772788689114898700,18.975898681640626,9.801100730895996,0.2209828943014145,-0.39884716272354126
1772788689134996500,18.99599658203125,9.801100730895996,0.2209828943014145,-0.3892652690410614
1772788689155094500,19.016094482421874,9.825055122375488,0.21619193255901337,-0.3892652690410614
1772788689175193000,19.036193115234376,9.801100730895996,0.19702811539173126,-0.39884716272354126
1772788689195292400,19.05629248046875,9.815473556518555,0.2108021080493927,-0.3934573531150818
1772788689215391700,19.076391845703125,9.81068229675293,0.21559306979179382,-0.38387542963027954
1772788689235491000,19.096490966796875,9.8016996383667,0.20122019946575165,-0.4126211702823639
1772788689255590100,19.116590087890625,9.820263862609863,0.20601116120815277,-0.40303927659988403
1772788689275689500,19.136689453125,9.79211711883545,0.20122019946575165,-0.38387542963027954
1772788689295788800,19.156788818359374,9.796908378601074,0.20122019946575165,-0.3742935359477997
1772788689315888000,19.17688818359375,9.825055122375488,0.20601116120815277,-0.3880675137042999
1772788689335987500,19.196987548828126,9.829846382141113,0.19642923772335052,-0.39285847544670105
1772788689356086500,19.21708642578125,9.8016996383667,0.21559306979179382,-0.3976494371891022
1772788689376185900,19.237185791015627,9.896320343017578,0.18684732913970947,-0.45034995675086975
1772788689396285200,19.25728515625,9.754388809204102,0.2491297721862793,-0.3407568335533142
1772788689436483800,19.29748388671875,9.768162727355957,0.19642923772335052,-0.38387542963027954
1772788689456583200,19.317583251953124,9.829846382141113,0.19642923772335052,-0.3934573531150818
1772788689476682200,19.33768212890625,9.772953987121582,0.22038403153419495,-0.3982483148574829
1772788689516881000,19.377880859375,9.79211711883545,0.20601116120815277,-0.38866639137268066
1772788689557079600,19.41807958984375,9.805891036987305,0.21559306979179382,-0.3844743072986603
1772788689597278000,19.45827783203125,9.796908378601074,0.20601116120815277,-0.38387542963027954
1772788689617377300,19.478377197265626,9.815473556518555,0.22038403153419495,-0.38387542963027954
1772788689637476600,19.4984765625,9.806489944458008,0.21559306979179382,-0.3742935359477997
1772788689677675000,19.538675048828125,9.815473556518555,0.22038403153419495,-0.3790844678878784
1772788689697783800,19.55878369140625,9.81068229675293,0.19642923772335052,-0.36471161246299744
1772788689717879600,19.578879638671875,9.806489944458008,0.20601116120815277,-0.38866639137268066
1772788689758078000,19.619077880859376,9.820263862609863,0.2108021080493927,-0.3982483148574829
1772788689778177300,19.63917724609375,9.811281204223633,0.20122019946575165,-0.3976494371891022
1772788689798276400,19.6592763671875,9.825055122375488,0.19642923772335052,-0.3982483148574829
1772788689818375700,19.679375732421875,9.825055122375488,0.229965940117836,-0.38866639137268066
1772788689838475000,19.69947509765625,9.78732681274414,0.22038403153419495,-0.3742935359477997
1772788689858574000,19.719573974609375,9.81068229675293,0.20601116120815277,-0.3790844678878784
1772788689878673400,19.73967333984375,9.820263862609863,0.20601116120815277,-0.3790844678878784
1772788689898772700,19.759772705078124,9.805891036987305,0.20601116120815277,-0.3982483148574829
1772788689918871800,19.779871826171874,9.78732681274414,0.23475690186023712,-0.3934573531150818
1772788689959070500,19.820070556640626,9.805891036987305,0.1916382908821106,-0.3982483148574829
1772788689979169500,19.84016943359375,9.8016996383667,0.2108021080493927,-0.38387542963027954
1772788689999268900,19.860268798828123,9.801100730895996,0.20122019946575165,-0.36950257420539856
1772788690019368200,19.8803681640625,9.829846382141113,0.18744619190692902,-0.37489238381385803
1772788690039467300,19.90046728515625,9.834636688232422,0.2108021080493927,-0.37968334555625916
1772788690059566600,19.920566650390626,9.78732681274414,0.21559306979179382,-0.3844743072986603
1772788690079666000,19.940666015625,9.805891036987305,0.2108021080493927,-0.3844743072986603
1772788690099765200,19.96076513671875,9.796309471130371,0.20601116120815277,-0.4084290862083435
1772788690119864300,19.9808642578125,9.79211711883545,0.2108021080493927,-0.3940562307834625
1772788690139963600,20.000963623046875,9.78732681274414,0.2018190622329712,-0.3940562307834625
1772788690160062700,20.021062744140625,9.81068229675293,0.22517497837543488,-0.3892652690410614
1772788690200259600,20.061259521484374,9.782535552978516,0.21559306979179382,-0.3742935359477997
1772788690220357600,20.081357666015624,9.8016996383667,0.21559306979179382,-0.3934573531150818
1772788690240456000,20.1014560546875,9.796908378601074,0.20601116120815277,-0.38866639137268066
1772788690260554000,20.121553955078124,9.8016996383667,0.19642923772335052,-0.3934573531150818
1772788690280652300,20.14165234375,9.806489944458008,0.18205636739730835,-0.3790844678878784
1772788690320848600,20.1818486328125,9.81068229675293,0.22038403153419495,-0.38866639137268066
1772788690340946700,20.20194677734375,9.815473556518555,0.22038403153419495,-0.3790844678878784
1772788690361045000,20.222044921875,9.796908378601074,0.21559306979179382,-0.3742935359477997
1772788690401241300,20.262241455078126,9.79211711883545,0.20601116120815277,-0.3880675137042999
1772788690421339400,20.28233935546875,9.806489944458008,0.2108021080493927,-0.3832765817642212
1772788690441437700,20.302437744140626,9.8016996383667,0.20601116120815277,-0.3832765817642212
1772788690461535700,20.32253564453125,9.773552894592285,0.22517497837543488,-0.37369465827941895
1772788690481634000,20.342634033203126,9.78732681274414,0.21559306979179382,-0.3880675137042999
1772788690501732000,20.362732177734376,9.796908378601074,0.1916382908821106,-0.3880675137042999
1772788690521830400,20.382830322265626,9.796908378601074,0.20601116120815277,-0.37848562002182007
1772788690541928400,20.402928466796876,9.816072463989258,0.2197851538658142,-0.39285847544670105
1772788690562026800,20.42302685546875,9.78732681274414,0.21499419212341309,-0.39285847544670105
1772788690582124800,20.443124755859376,9.796908378601074,0.2197851538658142,-0.38267770409584045
1772788690602223000,20.46322314453125,9.801100730895996,0.2108021080493927,-0.3982483148574829
1772788690622321200,20.483321044921876,9.801100730895996,0.20122019946575165,-0.3934573531150818
1772788690642419500,20.50341943359375,9.801100730895996,0.21559306979179382,-0.3892652690410614
1772788690662517500,20.523517578125,9.796309471130371,0.2108021080493927,-0.3892652690410614
1772788690682615000,20.543614990234374,9.77774429321289,0.21140098571777344,-0.3844743072986603
1772788690702712600,20.563712646484376,9.815473556518555,0.2257738560438156,-0.3892652690410614
1772788690742907400,20.603907470703124,9.825055122375488,0.21619193255901337,-0.3940562307834625
1772788690763004700,20.624004638671874,9.801100730895996,0.20661002397537231,-0.3844743072986603
1772788690783102200,20.644102294921876,9.772953987121582,0.21619193255901337,-0.3844743072986603
1772788690803199500,20.664199462890625,9.78732681274414,0.1916382908821106,-0.38387542963027954
1772788690823296800,20.684296875,9.8016996383667,0.20122019946575165,-0.38866639137268066
1772788690843394300,20.704394287109373,9.806489944458008,0.21559306979179382,-0.3742935359477997
1772788690863491800,20.724491943359375,9.806489944458008,0.21559306979179382,-0.3790844678878784
1772788690883589000,20.744589111328125,9.796908378601074,0.229965940117836,-0.39285847544670105
1772788690923784000,20.784783935546876,9.815473556518555,0.2108021080493927,-0.3880675137042999
1772788690943881200,20.804881103515626,9.815473556518555,0.2108021080493927,-0.3880675137042999
1772788690984076000,20.845075927734374,9.796908378601074,0.20601116120815277,-0.40783020853996277
1772788691004173600,20.865173583984376,9.820263862609863,0.19642923772335052,-0.38866639137268066
1772788691024270800,20.885270751953126,9.8016996383667,0.20601116120815277,-0.36950257420539856
1772788691044368400,20.905368408203124,9.79211711883545,0.22038403153419495,-0.38387542963027954
1772788691064465700,20.925465576171874,9.78732681274414,0.18684732913970947,-0.38866639137268066
1772788691084563200,20.945563232421875,9.805891036987305,0.20122019946575165,-0.3934573531150818
1772788691124758000,20.985758056640623,9.805891036987305,0.22517497837543488,-0.40783020853996277
1772788691144855300,21.005855224609373,9.801100730895996,0.2108021080493927,-0.3982483148574829
1772788691164952800,21.025952880859375,9.78732681274414,0.2108021080493927,-0.3790844678878784
1772788691185051600,21.0460517578125,9.796908378601074,0.2108021080493927,-0.3832765817642212
1772788691205150500,21.066150390625,9.78732681274414,0.2108021080493927,-0.3689036965370178
1772788691225249500,21.08624951171875,9.78732681274414,0.20601116120815277,-0.37369465827941895
1772788691245348600,21.1063486328125,9.796908378601074,0.2108021080493927,-0.39285847544670105
1772788691265447400,21.126447509765626,9.8016996383667,0.20601116120815277,-0.39285847544670105
1772788691285546500,21.14654638671875,9.8016996383667,0.22038403153419495,-0.4024403989315033
1772788691325744400,21.186744384765625,9.806489944458008,0.21559306979179382,-0.3880675137042999
1772788691345843500,21.206843505859375,9.8016996383667,0.22457611560821533,-0.3880675137042999
1772788691365942500,21.226942626953125,9.773552894592285,0.2197851538658142,-0.3976494371891022
1772788691386041300,21.247041259765624,9.825055122375488,0.20122019946575165,-0.3982483148574829
1772788691406140400,21.267140380859374,9.81068229675293,0.19642923772335052,-0.38866639137268066
1772788691426239500,21.287239501953124,9.796908378601074,0.22517497837543488,-0.38866639137268066
1772788691466437400,21.327437255859376,9.820263862609863,0.22038403153419495,-0.38866639137268066
1772788691486536400,21.347536376953126,9.796908378601074,0.20601116120815277,-0.38866639137268066
1772788691506635300,21.36763525390625,9.815473556518555,0.20601116120815277,-0.3982483148574829
1772788691546833400,21.40783349609375,9.801100730895996,0.2108021080493927,-0.3892652690410614
1772788691566932200,21.42793212890625,9.801100730895996,0.2108021080493927,-0.3844743072986603
1772788691587031300,21.44803125,9.79211711883545,0.19642923772335052,-0.38866639137268066
1772788691607130400,21.46813037109375,9.77774429321289,0.1916382908821106,-0.38866639137268066
1772788691627229200,21.488229248046874,9.79211711883545,0.1916382908821106,-0.3790844678878784
1772788691647328300,21.508328369140624,9.805891036987305,0.2108021080493927,-0.3934573531150818
1772788691667427000,21.528427001953126,9.815473556518555,0.20601116120815277,-0.3982483148574829
1772788691687526000,21.54852587890625,9.772953987121582,0.2108021080493927,-0.3934573531150818
1772788691707624700,21.568624755859375,9.796908378601074,0.21559306979179382,-0.3982483148574829
1772788691727723300,21.58872314453125,9.796908378601074,0.19642923772335052,-0.38866639137268066
1772788691747822000,21.608822021484375,9.805891036987305,0.1916382908821106,-0.38866639137268066
1772788691767921000,21.6289208984375,9.815473556518555,0.22038403153419495,-0.3934573531150818
1772788691788019500,21.64901953125,9.834636688232422,0.229965940117836,-0.38866639137268066
1772788691808118300,21.6691181640625,9.811281204223633,0.20601116120815277,-0.3880675137042999
1772788691828217000,21.689217041015624,9.78732681274414,0.2108021080493927,-0.3832765817642212
1772788691848315600,21.709315673828126,9.796908378601074,0.20601116120815277,-0.3832765817642212
1772788691888513300,21.74951318359375,9.79211711883545,0.22038403153419495,-0.39285847544670105
1772788691908611800,21.76961181640625,9.78732681274414,0.21559306979179382,-0.39285847544670105
1772788691928710700,21.789710693359375,9.806489944458008,0.20601116120815277,-0.3832765817642212
1772788691948809500,21.8098095703125,9.8016996383667,0.2108021080493927,-0.3832765817642212
1772788691968908000,21.829907958984375,9.78732681274414,0.22517497837543488,-0.37369465827941895
1772788691989006800,21.8500068359375,9.796908378601074,0.2108021080493927,-0.3832765817642212
1772788692009105700,21.870105712890624,9.829846382141113,0.20601116120815277,-0.4024403989315033
1772788692029204200,21.890204345703125,9.79211711883545,0.2108021080493927,-0.39285847544670105
1772788692049303000,21.910302978515624,9.806489944458008,0.2108021080493927,-0.3832765817642212
1772788692069401900,21.93040185546875,9.8016996383667,0.20122019946575165,-0.39285847544670105
1772788692089500400,21.95050048828125,9.8016996383667,0.20122019946575165,-0.3880675137042999
1772788692109599200,21.97059912109375,9.8016996383667,0.20601116120815277,-0.3880675137042999
1772788692129698000,21.990697998046876,9.796908378601074,0.22038403153419495,-0.3880675137042999
1772788692149796900,22.010796875,9.796908378601074,0.22038403153419495,-0.3880675137042999
1772788692169895400,22.0308955078125,9.796908378601074,0.2108021080493927,-0.3832765817642212
1772788692189993500,22.050993408203126,9.805891036987305,0.21559306979179382,-0.3982483148574829
1772788692210091500,22.071091552734377,9.796908378601074,0.22517497837543488,-0.38866639137268066
1772788692230189600,22.091189453125,9.796908378601074,0.21559306979179382,-0.39884716272354126
1772788692250287900,22.111287841796877,9.796309471130371,0.22038403153419495,-0.3940562307834625
1772788692270386000,22.131385986328127,9.79211711883545,0.20661002397537231,-0.37968334555625916
1772788692290484000,22.15148388671875,9.801100730895996,0.2257738560438156,-0.3892652690410614
1772788692310582000,22.17158203125,9.78732681274414,0.21140098571777344,-0.3940562307834625
1772788692350778400,22.2117783203125,9.81068229675293,0.19702811539173126,-0.3892652690410614
1772788692370876400,22.23187646484375,9.801100730895996,0.21140098571777344,-0.3892652690410614
1772788692390974500,22.251974365234375,9.81068229675293,0.22517497837543488,-0.3790844678878784
1772788692431170800,22.2921708984375,9.820263862609863,0.21559306979179382,-0.3982483148574829
1772788692471367000,22.332366943359375,9.8016996383667,0.20122019946575165,-0.37369465827941895
1772788692491465000,22.35246484375,9.772953987121582,0.22517497837543488,-0.39285847544670105
1772788692531661300,22.392661376953125,9.8016996383667,0.20601116120815277,-0.3880675137042999
1772788692551759400,22.41275927734375,9.806489944458008,0.22038403153419495,-0.3880675137042999
1772788692571857400,22.432857421875,9.811281204223633,0.20122019946575165,-0.39285847544670105
1772788692591955700,22.452955810546875,9.782535552978516,0.2108021080493927,-0.38387542963027954
1772788692612053800,22.4730537109375,9.796908378601074,0.21559306979179382,-0.3982483148574829
1772788692632151800,22.49315185546875,9.815473556518555,0.20601116120815277,-0.3982483148574829
1772788692672348200,22.53334814453125,9.796908378601074,0.21559306979179382,-0.38387542963027954
1772788692692446500,22.553446533203125,9.79211711883545,0.22038403153419495,-0.38866639137268066
1772788692712544800,22.573544677734375,9.772953987121582,0.2108021080493927,-0.3934573531150818
1772788692752741400,22.613741455078124,9.8016996383667,0.21559306979179382,-0.38866639137268066
1772788692792938000,22.65393798828125,9.806489944458008,0.20601116120815277,-0.39285847544670105
1772788692813036300,22.674036376953126,9.8016996383667,0.21559306979179382,-0.3976494371891022
1772788692833134600,22.694134521484376,9.811281204223633,0.22517497837543488,-0.3832765817642212
1772788692853233000,22.71423291015625,9.796908378601074,0.20601116120815277,-0.3880675137042999
1772788692873331200,22.734331298828124,9.811281204223633,0.20601116120815277,-0.3976494371891022
1772788692893429500,22.754429443359374,9.796908378601074,0.22038403153419495,-0.3976494371891022
1772788692913527800,22.77452783203125,9.79211711883545,0.22517497837543488,-0.4072313606739044
1772788692933626000,22.794626220703126,9.78732681274414,0.20601116120815277,-0.3976494371891022
1772788692953724400,22.814724365234376,9.782535552978516,0.20601116120815277,-0.3880675137042999
1772788692973822700,22.83482275390625,9.796908378601074,0.22038403153419495,-0.3880675137042999
1772788692993921000,22.854921142578124,9.806489944458008,0.21559306979179382,-0.3832765817642212
1772788693034117600,22.89511767578125,9.825055122375488,0.2108021080493927,-0.3976494371891022
1772788693054216000,22.9152158203125,9.79211711883545,0.2108021080493927,-0.39285847544670105
1772788693074314200,22.935314208984376,9.77774429321289,0.21559306979179382,-0.3832765817642212
1772788693094412500,22.95541259765625,9.806489944458008,0.22038403153419495,-0.3880675137042999
1772788693114510800,22.9755107421875,9.816072463989258,0.20122019946575165,-0.39285847544670105
1772788693134609200,22.995609130859375,9.8016996383667,0.21559306979179382,-0.37848562002182007
1772788693154707500,23.01570751953125,9.796908378601074,0.20601116120815277,-0.3880675137042999
1772788693174805500,23.035805419921875,9.806489944458008,0.2108021080493927,-0.3880675137042999
1772788693194903800,23.05590380859375,9.820263862609863,0.20601116120815277,-0.3790844678878784
1772788693215002400,23.07600244140625,9.8016996383667,0.20601116120815277,-0.38866639137268066
1772788693235100400,23.096100341796873,9.782535552978516,0.20601116120815277,-0.3982483148574829
1772788693255199000,23.116198974609375,9.796908378601074,0.22038403153419495,-0.38866639137268066
1772788693275297300,23.13629736328125,9.79211711883545,0.2108021080493927,-0.38387542963027954
1772788693315494000,23.176493896484374,9.79211711883545,0.2108021080493927,-0.38866639137268066
1772788693335592200,23.19659228515625,9.796908378601074,0.21559306979179382,-0.3982483148574829
1772788693355690500,23.2166904296875,9.796908378601074,0.22038403153419495,-0.3790844678878784
1772788693375788800,23.236788818359376,9.79211711883545,0.2108021080493927,-0.38387542963027954
1772788693395887000,23.25688720703125,9.782535552978516,0.2108021080493927,-0.39285847544670105
1772788693415985400,23.2769853515625,9.806489944458008,0.20601116120815277,-0.39285847544670105
1772788693436083700,23.297083740234374,9.816072463989258,0.20601116120815277,-0.3880675137042999
1772788693456182000,23.31718212890625,9.8016996383667,0.2108021080493927,-0.39285847544670105
1772788693476280300,23.3372802734375,9.806489944458008,0.2108021080493927,-0.3976494371891022
1772788693496378600,23.357378662109376,9.79211711883545,0.20601116120815277,-0.39285847544670105
1772788693516477000,23.377476806640626,9.8016996383667,0.20601116120815277,-0.3880675137042999
1772788693536575200,23.3975751953125,9.78732681274414,0.2108021080493927,-0.39285847544670105
1772788693556673500,23.417673583984374,9.8016996383667,0.2108021080493927,-0.3832765817642212
1772788693576771800,23.437771728515624,9.816072463989258,0.2108021080493927,-0.39285847544670105
1772788693596870100,23.4578701171875,9.825055122375488,0.2108021080493927,-0.3832765817642212
1772788693616968400,23.477968505859376,9.8016996383667,0.22038403153419495,-0.3976494371891022
1772788693637066800,23.498066650390626,9.816072463989258,0.2108021080493927,-0.3976494371891022
1772788693657165000,23.5181650390625,9.816072463989258,0.22517497837543488,-0.39285847544670105
1772788693677263600,23.538263671875,9.78732681274414,0.20601116120815277,-0.39285847544670105
1772788693697362400,23.558362548828125,9.796908378601074,0.19642923772335052,-0.39285847544670105
1772788693717461000,23.5784609375,9.806489944458008,0.22936707735061646,-0.3976494371891022
1772788693757658600,23.61865869140625,9.782535552978516,0.22936707735061646,-0.4024403989315033
1772788693797856000,23.65885595703125,9.78732681274414,0.19642923772335052,-0.4024403989315033
1772788693817954800,23.678954833984374,9.825055122375488,0.20122019946575165,-0.4024403989315033
1772788693838053400,23.699053466796876,9.806489944458008,0.20122019946575165,-0.3880675137042999
1772788693858152200,23.719152099609374,9.811281204223633,0.21559306979179382,-0.39285847544670105
1772788693878251000,23.7392509765625,9.825055122375488,0.20601116120815277,-0.3880675137042999
1772788693898349600,23.759349609375,9.8016996383667,0.229965940117836,-0.38387542963027954
1772788693938547200,23.799547119140627,9.806489944458008,0.18205636739730835,-0.3982483148574829
1772788693958645800,23.819645751953125,9.8016996383667,0.20122019946575165,-0.3790844678878784
1772788693978744600,23.83974462890625,9.796908378601074,0.2108021080493927,-0.3982483148574829
1772788693998843400,23.859843505859374,9.8016996383667,0.20601116120815277,-0.3976494371891022
1772788694018942000,23.87994189453125,9.820862770080566,0.19642923772335052,-0.37848562002182007
1772788694059139600,23.9201396484375,9.806489944458008,0.20541228353977203,-0.3880675137042999
1772788694079238100,23.940238037109374,9.806489944458008,0.19642923772335052,-0.39285847544670105
1772788694099337000,23.9603369140625,9.78732681274414,0.20541228353977203,-0.4024403989315033
1772788694119435500,23.980435546875,9.796908378601074,0.2006213217973709,-0.3880675137042999
1772788694139534300,24.000534423828125,9.79211711883545,0.20541228353977203,-0.37788674235343933
1772788694159633200,24.020633056640627,9.783134460449219,0.2197851538658142,-0.3922595977783203
1772788694179732000,24.04073193359375,9.79211711883545,0.20541228353977203,-0.3874686658382416
1772788694199831000,24.0608310546875,9.796908378601074,0.22038403153419495,-0.3832765817642212
1772788694219930000,24.08093017578125,9.796908378601074,0.21559306979179382,-0.3880675137042999
1772788694240029200,24.101029296875,9.8016996383667,0.21559306979179382,-0.39285847544670105
1772788694260128300,24.121128173828126,9.815473556518555,0.2108021080493927,-0.39285847544670105
1772788694280227300,24.141227294921876,9.796908378601074,0.19642923772335052,-0.38866639137268066
1772788694300326400,24.161326416015626,9.829846382141113,0.20122019946575165,-0.40303927659988403
1772788694320425500,24.181425537109376,9.825055122375488,0.20122019946575165,-0.40783020853996277
1772788694340524500,24.201524658203127,9.820263862609863,0.20601116120815277,-0.3982483148574829
1772788694360623600,24.22162353515625,9.806489944458008,0.22038403153419495,-0.3790844678878784
1772788694380722700,24.24172265625,9.796908378601074,0.21559306979179382,-0.38866639137268066
1772788694400821800,24.26182177734375,9.811281204223633,0.2108021080493927,-0.3880675137042999
1772788694420920800,24.2819208984375,9.8016996383667,0.22038403153419495,-0.3832765817642212
1772788694441020000,24.30202001953125,9.815473556518555,0.21559306979179382,-0.3976494371891022
1772788694461119000,24.322118896484376,9.78732681274414,0.19642923772335052,-0.3976494371891022
1772788694481218000,24.342218017578126,9.796908378601074,0.20601116120815277,-0.39285847544670105
1772788694501317000,24.362317138671877,9.8016996383667,0.21559306979179382,-0.3832765817642212
1772788694521416400,24.38241650390625,9.8016996383667,0.20601116120815277,-0.3880675137042999
1772788694541515300,24.402515380859374,9.78732681274414,0.2108021080493927,-0.3880675137042999
1772788694561614300,24.4226142578125,9.806489944458008,0.22517497837543488,-0.3976494371891022
1772788694581713400,24.44271337890625,9.815473556518555,0.1916382908821106,-0.3880675137042999
1772788694601812500,24.4628125,9.796908378601074,0.2108021080493927,-0.3880675137042999
1772788694621911800,24.482911865234374,9.811281204223633,0.20601116120815277,-0.3880675137042999
1772788694642010600,24.5030107421875,9.79211711883545,0.2108021080493927,-0.39285847544670105
1772788694682208800,24.543208740234373,9.8016996383667,0.2108021080493927,-0.39285847544670105
1772788694702307800,24.563307861328123,9.806489944458008,0.21499419212341309,-0.4024403989315033
1772788694742505700,24.603505615234376,9.78732681274414,0.19642923772335052,-0.39285847544670105
1772788694762604800,24.623604736328126,9.811281204223633,0.22936707735061646,-0.3976494371891022
1772788694782703600,24.64370361328125,9.79211711883545,0.2006213217973709,-0.3880675137042999
1772788694802802700,24.663802734375,9.806489944458008,0.2108021080493927,-0.39285847544670105
1772788694822901800,24.68390185546875,9.811281204223633,0.21559306979179382,-0.37848562002182007
1772788694843000600,24.70400048828125,9.816072463989258,0.20601116120815277,-0.3880675137042999
1772788694863099600,24.724099609375,9.806489944458008,0.19642923772335052,-0.4024403989315033
1772788694883198700,24.74419873046875,9.796908378601074,0.2108021080493927,-0.4024403989315033
1772788694903297500,24.764297607421874,9.79211711883545,0.20601116120815277,-0.39285847544670105
1772788694923396600,24.784396728515624,9.8016996383667,0.20122019946575165,-0.3832765817642212
1772788694943495700,24.80449560546875,9.811281204223633,0.20122019946575165,-0.3832765817642212
1772788694963594500,24.824594482421876,9.8016996383667,0.19642923772335052,-0.3832765817642212
1772788694983693600,24.844693603515626,9.806489944458008,0.21499419212341309,-0.4066324830055237
1772788695003792600,24.864792724609377,9.811281204223633,0.19583037495613098,-0.4114234447479248
1772788695023891500,24.884891357421875,9.79211711883545,0.19103941321372986,-0.4114234447479248
1772788695043990500,24.904990478515625,9.811281204223633,0.21499419212341309,-0.3922595977783203
1772788695084188400,24.9451884765625,9.8016996383667,0.21499419212341309,-0.3874686658382416
1772788695104287500,24.96528759765625,9.811281204223633,0.2197851538658142,-0.38267770409584045
1772788695144485400,25.0054853515625,9.811281204223633,0.21020324528217316,-0.39705055952072144
1772788695164584400,25.02558447265625,9.796908378601074,0.2197851538658142,-0.3922595977783203
1772788695184683000,25.04568310546875,9.782535552978516,0.20601116120815277,-0.3976494371891022
1772788695204781600,25.065781494140627,9.8016996383667,0.21559306979179382,-0.39285847544670105
1772788695224880000,25.085880126953125,9.796908378601074,0.20122019946575165,-0.3880675137042999
1772788695244978700,25.105978759765627,9.806489944458008,0.19642923772335052,-0.3880675137042999
1772788695265077200,25.1260771484375,9.806489944458008,0.1916382908821106,-0.39285847544670105
1772788695285175800,25.14617578125,9.79211711883545,0.1916382908821106,-0.3880675137042999
1772788695305274600,25.166274658203125,9.796908378601074,0.20122019946575165,-0.39285847544670105
1772788695345471700,25.2064716796875,9.796908378601074,0.21559306979179382,-0.3880675137042999
1772788695385668900,25.2466689453125,9.79211711883545,0.20541228353977203,-0.3922595977783203
1772788695405767400,25.266767333984376,9.8016996383667,0.2197851538658142,-0.37788674235343933
1772788695425866000,25.286865966796874,9.8016996383667,0.22936707735061646,-0.3874686658382416
1772788695445964500,25.306964599609376,9.8016996383667,0.22936707735061646,-0.3874686658382416
1772788695466063000,25.32706298828125,9.796908378601074,0.21499419212341309,-0.3874686658382416
1772788695486161700,25.34716162109375,9.796908378601074,0.21499419212341309,-0.37788674235343933
1772788695506260200,25.36726025390625,9.820862770080566,0.21499419212341309,-0.3922595977783203
1772788695526358800,25.38735888671875,9.79211711883545,0.20541228353977203,-0.38267770409584045
1772788695566556000,25.427555908203125,9.796908378601074,0.21499419212341309,-0.3874686658382416
1772788695586654500,25.447654541015623,9.77774429321289,0.21559306979179382,-0.4024403989315033
1772788695606753000,25.4677529296875,9.782535552978516,0.22038403153419495,-0.3832765817642212
1772788695626851800,25.487851806640624,9.79211711883545,0.22517497837543488,-0.3790844678878784
1772788695667048700,25.528048583984376,9.8016996383667,0.20122019946575165,-0.3934573531150818
1772788695687147300,25.548147216796874,9.815473556518555,0.2108021080493927,-0.3934573531150818
1772788695707245600,25.56824560546875,9.806489944458008,0.2108021080493927,-0.40303927659988403
1772788695727343900,25.58834375,9.79211711883545,0.21559306979179382,-0.38387542963027954
1772788695747442200,25.608442138671876,9.8016996383667,0.20122019946575165,-0.38387542963027954
1772788695767540500,25.62854052734375,9.81068229675293,0.22517497837543488,-0.3982483148574829
1772788695787638800,25.648638671875,9.8016996383667,0.2197851538658142,-0.3874686658382416
1772788695807737000,25.668737060546874,9.8016996383667,0.21499419212341309,-0.40184152126312256
1772788695827835400,25.68883544921875,9.806489944458008,0.2197851538658142,-0.3874686658382416
1772788695868032000,25.729031982421876,9.783134460449219,0.2197851538658142,-0.38267770409584045
1772788695908228600,25.769228515625,9.811281204223633,0.21499419212341309,-0.38267770409584045
1772788695928327000,25.789326904296875,9.8016996383667,0.2197851538658142,-0.3874686658382416
1772788695948425200,25.80942529296875,9.76876163482666,0.19583037495613098,-0.3964517116546631
1772788695968523500,25.8295234375,9.806489944458008,0.21499419212341309,-0.3820788264274597
1772788696008720100,25.86972021484375,9.811281204223633,0.19103941321372986,-0.38686978816986084
1772788696028818400,25.889818359375,9.783134460449219,0.21020324528217316,-0.39166074991226196
1772788696048916700,25.909916748046875,9.802298545837402,0.21020324528217316,-0.3820788264274597
1772788696069015000,25.93001513671875,9.802298545837402,0.20541228353977203,-0.38686978816986084
1772788696089113300,25.95011328125,9.811281204223633,0.21499419212341309,-0.39166074991226196
1772788696109211600,25.970211669921873,9.820862770080566,0.21439532935619354,-0.4012426435947418
1772788696129310000,25.99031005859375,9.792716026306152,0.21918629109859467,-0.39166074991226196
1772788696149408500,26.010408447265625,9.773552894592285,0.20002245903015137,-0.3820788264274597
1772788696189606000,26.05060595703125,9.806489944458008,0.2108021080493927,-0.4024403989315033
1772788696209704700,26.07070458984375,9.77774429321289,0.22038403153419495,-0.3976494371891022
1772788696229803800,26.0908037109375,9.8016996383667,0.22038403153419495,-0.3976494371891022
1772788696249902800,26.11090283203125,9.820263862609863,0.20601116120815277,-0.3880675137042999
1772788696270001700,26.131001708984375,9.796908378601074,0.1916382908821106,-0.38387542963027954
1772788696290100700,26.151100830078125,9.79211711883545,0.1916382908821106,-0.40303927659988403
1772788696310199800,26.17119970703125,9.796908378601074,0.20122019946575165,-0.3934573531150818
1772788696330298600,26.191298583984373,9.796908378601074,0.20122019946575165,-0.38387542963027954
1772788696350397700,26.211397705078124,9.79211711883545,0.20122019946575165,-0.3934573531150818
1772788696370496500,26.23149658203125,9.796908378601074,0.1916382908821106,-0.3982483148574829
1772788696390595600,26.251595703125,9.78732681274414,0.2006213217973709,-0.3922595977783203
1772788696410694700,26.271694580078126,9.79211711883545,0.21020324528217316,-0.39705055952072144
1772788696430793700,26.291793701171876,9.78732681274414,0.20541228353977203,-0.3874686658382416
1772788696450892500,26.311892578125,9.811281204223633,0.21020324528217316,-0.40184152126312256
1772788696470991600,26.33199169921875,9.79211711883545,0.2006213217973709,-0.38267770409584045
1772788696491090400,26.35209033203125,9.811281204223633,0.21020324528217316,-0.3874686658382416
1772788696511189500,26.372189453125,9.825654029846191,0.20541228353977203,-0.4114234447479248
1772788696551387400,26.412387451171874,9.8016996383667,0.21020324528217316,-0.38267770409584045
1772788696591585500,26.45258544921875,9.820862770080566,0.20541228353977203,-0.3874686658382416
1772788696611684400,26.472684326171876,9.811281204223633,0.2006213217973709,-0.38267770409584045
1772788696631783400,26.492783447265627,9.787925720214844,0.2006213217973709,-0.40184152126312256
1772788696651882500,26.512882568359377,9.8016996383667,0.2006213217973709,-0.3922595977783203
1772788696671981300,26.532981201171875,9.787925720214844,0.20541228353977203,-0.37788674235343933
1772788696692079600,26.55307958984375,9.8016996383667,0.21499419212341309,-0.3922595977783203
1772788696712178200,26.57317822265625,9.8016996383667,0.20541228353977203,-0.40184152126312256
1772788696752375000,26.613375,9.820862770080566,0.2006213217973709,-0.3922595977783203
1772788696792572000,26.653572021484376,9.783134460449219,0.20541228353977203,-0.40184152126312256
1772788696812670200,26.673670166015626,9.75917911529541,0.22457611560821533,-0.3874686658382416
1772788696832768800,26.693768798828124,9.79211711883545,0.21499419212341309,-0.38267770409584045
1772788696852867000,26.7138671875,9.811281204223633,0.21020324528217316,-0.38267770409584045
1772788696872965600,26.733965576171876,9.79211711883545,0.21020324528217316,-0.3922595977783203
1772788696913162500,26.77416259765625,9.79211711883545,0.2197851538658142,-0.3874686658382416
1772788696933261000,26.794260986328126,9.816072463989258,0.21499419212341309,-0.39705055952072144
1772788696953359400,26.814359375,9.796908378601074,0.2197851538658142,-0.3922595977783203
1772788696993556200,26.85455615234375,9.816072463989258,0.21020324528217316,-0.37788674235343933
1772788697013654800,26.87465478515625,9.79211711883545,0.19583037495613098,-0.37788674235343933
1772788697033753000,26.894753173828125,9.79211711883545,0.21499419212341309,-0.3922595977783203
1772788697053851600,26.9148515625,9.796908378601074,0.21020324528217316,-0.3922595977783203
1772788697073950000,26.934949951171873,9.806489944458008,0.19103941321372986,-0.39705055952072144
1772788697114146800,26.975146728515625,9.8016996383667,0.2197851538658142,-0.3874686658382416
1772788697154343700,27.01534375,9.796908378601074,0.19103941321372986,-0.3922595977783203
1772788697194539500,27.05553955078125,9.8016996383667,0.21020324528217316,-0.38267770409584045
1772788697234734600,27.095734619140625,9.811281204223633,0.21499419212341309,-0.3922595977783203
1772788697254832000,27.11583203125,9.816072463989258,0.21020324528217316,-0.38267770409584045
1772788697274929700,27.1359296875,9.796908378601074,0.21020324528217316,-0.3832765817642212
1772788697295027200,27.156027099609375,9.796908378601074,0.2197851538658142,-0.40184152126312256
1772788697315125000,27.176125,9.8016996383667,0.21499419212341309,-0.3976494371891022
1772788697335222500,27.196222412109375,9.796908378601074,0.2197851538658142,-0.3832765817642212
1772788697355320000,27.216320068359376,9.806489944458008,0.20122019946575165,-0.39285847544670105
1772788697375417600,27.23641748046875,9.806489944458008,0.20122019946575165,-0.3880675137042999
1772788697395515100,27.25651513671875,9.78732681274414,0.20601116120815277,-0.4024403989315033
1772788697415612700,27.27661279296875,9.796908378601074,0.2108021080493927,-0.3976494371891022
1772788697435710500,27.29671044921875,9.796908378601074,0.2108021080493927,-0.4024403989315033
1772788697455808000,27.31680810546875,9.8016996383667,0.22517497837543488,-0.3832765817642212
1772788697475905500,27.336905517578124,9.8016996383667,0.20601116120815277,-0.4024403989315033
1772788697496003000,27.357003173828126,9.79211711883545,0.2108021080493927,-0.3880675137042999
1772788697536198400,27.397198486328126,9.79211711883545,0.21559306979179382,-0.39285847544670105
1772788697556296000,27.4172958984375,9.8016996383667,0.2108021080493927,-0.4072313606739044
1772788697576393500,27.4373935546875,9.811281204223633,0.22038403153419495,-0.3976494371891022
1772788697596491000,27.457490966796875,9.796908378601074,0.21559306979179382,-0.3832765817642212
1772788697616588500,27.477588623046874,9.811281204223633,0.20601116120815277,-0.3880675137042999
1772788697636686300,27.497686279296875,9.825055122375488,0.22038403153419495,-0.3880675137042999
1772788697656784000,27.517783935546873,9.782535552978516,0.2108021080493927,-0.3832765817642212
1772788697676881400,27.53788134765625,9.78732681274414,0.20122019946575165,-0.39285847544670105
1772788697696979200,27.557979248046873,9.820263862609863,0.20122019946575165,-0.3976494371891022
1772788697717077000,27.578076904296875,9.796908378601074,0.22517497837543488,-0.39285847544670105
1772788697737174800,27.5981748046875,9.796908378601074,0.19642923772335052,-0.3832765817642212
1772788697777370400,27.638370361328125,9.78732681274414,0.22517497837543488,-0.38866639137268066
1772788697817566000,27.67856591796875,9.816072463989258,0.19583037495613098,-0.38267770409584045
1772788697837663700,27.698663818359375,9.816072463989258,0.19583037495613098,-0.3874686658382416
1772788697857761500,27.718761474609376,9.816072463989258,0.20541228353977203,-0.4012426435947418
1772788697877859300,27.738859375,9.797507286071777,0.19583037495613098,-0.3964517116546631
1772788697897957000,27.75895703125,9.820862770080566,0.21020324528217316,-0.39166074991226196
1772788697918055000,27.779054931640626,9.802298545837402,0.2197851538658142,-0.38686978816986084
1772788697938152700,27.799152587890624,9.797507286071777,0.2006213217973709,-0.3820788264274597
1772788697958250500,27.81925048828125,9.797507286071777,0.21918629109859467,-0.39166074991226196
1772788697978348300,27.839348388671876,9.802298545837402,0.20002245903015137,-0.3964517116546631
1772788697998446000,27.859446044921874,9.796908378601074,0.20601116120815277,-0.39285847544670105
1772788698018543900,27.8795439453125,9.811281204223633,0.21559306979179382,-0.3832765817642212
1772788698038641700,27.8996416015625,9.815473556518555,0.20601116120815277,-0.3880675137042999
1772788698058739500,27.919739501953124,9.79211711883545,0.20601116120815277,-0.37369465827941895
