time,seconds_elapsed,z,y,x
1772717417715893800,0.061893798828125,-1.0522613525390625,-0.2090606689453125,0.020416259765625
1772717417735926800,0.0819267578125,-1.0608062744140625,-0.187255859375,0.0252838134765625
1772717417755959800,0.101959716796875,-1.0570526123046875,-0.1404266357421875,0.0829010009765625
1772717417775991800,0.12199169921875,-1.06121826171875,-0.1215972900390625,0.1144256591796875
1772717417796024800,0.14202490234375,-1.032318115234375,-0.1252593994140625,0.097137451171875
1772717417816057900,0.162057861328125,-0.9813385009765625,-0.1714630126953125,0.07220458984375
1772717417836091000,0.1820908203125,-0.9220733642578125,-0.2069244384765625,0.043701171875
1772717417856122600,0.20212255859375,-0.8642425537109375,-0.22589111328125,0.0233306884765625
1772717417876156000,0.222156005859375,-0.80291748046875,-0.2249755859375,0.037139892578125
1772717417896188700,0.242188720703125,-0.7605743408203125,-0.2188873291015625,0.0682220458984375
1772717417916222000,0.262221923828125,-0.7237091064453125,-0.2062530517578125,0.0909423828125
1772717417936254700,0.282254638671875,-0.6951904296875,-0.1729278564453125,0.0829010009765625
1772717417956287000,0.302286865234375,-0.6710357666015625,-0.141815185546875,0.0576934814453125
1772717417976319700,0.32231982421875,-0.7466888427734375,-0.1754302978515625,-0.01788330078125
1772717417996353000,0.34235302734375,-0.8510894775390625,-0.131744384765625,-0.14569091796875
1772717418016385800,0.3623857421875,-0.964447021484375,-0.0674896240234375,-0.2340545654296875
1772717418036417800,0.382417724609375,-1.0726470947265625,-0.0438690185546875,-0.20343017578125
1772717418056450000,0.402449951171875,-1.1477508544921875,-0.059417724609375,-0.11700439453125
1772717418076483300,0.4224833984375,-1.2302703857421875,-0.0640106201171875,0.0102081298828125
1772717418096516000,0.44251611328125,-1.4103851318359375,-0.0819549560546875,0.102203369140625
1772717418116549400,0.46254931640625,-1.4296112060546875,-0.10614013671875,0.2440338134765625
1772717418136581000,0.4825810546875,-1.26593017578125,-0.09295654296875,0.340576171875
1772717418156614100,0.5026142578125,-1.1663818359375,-0.1145477294921875,0.27593994140625
1772717418176647200,0.522647216796875,-1.162811279296875,-0.2809906005859375,0.0736541748046875
1772717418196680200,0.54268017578125,-1.29254150390625,-0.3237457275390625,-0.084228515625
1772717418216712200,0.562712158203125,-1.425018310546875,-0.217010498046875,-0.1001434326171875
1772717418236745200,0.5827451171875,-1.33770751953125,-0.0749053955078125,0.1188201904296875
1772717418256778200,0.6027783203125,-1.18603515625,0.024505615234375,0.185821533203125
1772717418276811000,0.62281103515625,-1.1810455322265625,0.0228424072265625,0.0419921875
1772717418296843000,0.642843017578125,-1.2704925537109375,-0.029205322265625,-0.1775970458984375
1772717418316876300,0.662876220703125,-1.0649261474609375,-0.07574462890625,-0.3598480224609375
1772717418336909000,0.682908935546875,-0.7519378662109375,-0.0255279541015625,-0.3313446044921875
1772717418356942000,0.702942138671875,-0.40228271484375,0.082489013671875,-0.1964263916015625
1772717418376975000,0.72297509765625,-0.2144317626953125,-0.04388427734375,-0.205322265625
1772717418397007000,0.743007080078125,-0.3354339599609375,-0.18499755859375,-0.1890869140625
1772717418417040100,0.7630400390625,-0.28851318359375,-0.19952392578125,-0.1588287353515625
1772717418437073200,0.7830732421875,-0.0115814208984375,-0.24884033203125,-0.258575439453125
1772717418457106200,0.803106201171875,-0.0567626953125,-0.098358154296875,-0.135284423828125
1772717418477138000,0.823137939453125,-0.233673095703125,-0.1513519287109375,-0.3390960693359375
1772717418497171200,0.843171142578125,-0.6414337158203125,0.0747528076171875,-0.405548095703125
1772717418517204000,0.863203857421875,-0.830535888671875,0.4188690185546875,-0.55938720703125
1772717418537237200,0.8832373046875,-0.76934814453125,-0.0910491943359375,-0.2919921875
1772717418557269000,0.90326904296875,-0.8285980224609375,0.227294921875,-0.3249969482421875
1772717418577302300,0.92330224609375,-0.99676513671875,0.2313690185546875,-0.3759918212890625
1772717418597335000,0.9433349609375,-1.3305206298828125,0.3283538818359375,-0.4068756103515625
1772717418617368300,0.963368408203125,-1.64508056640625,0.5501861572265625,-0.3974609375
1772717418637401000,0.983401123046875,-2.1638031005859375,0.7939910888671875,-0.3467864990234375
1772717418657433300,1.003433349609375,-2.42626953125,0.817291259765625,-0.1870880126953125
1772717418677466000,1.023466064453125,-2.3345489501953125,0.7432861328125,-0.2220458984375
1772717418697499400,1.04349951171875,-2.18377685546875,0.679473876953125,-0.3850250244140625
1772717418717532200,1.0635322265625,-2.018341064453125,0.63446044921875,-0.531036376953125
1772717418737564200,1.083564208984375,-1.890594482421875,0.5523223876953125,-0.4849395751953125
1772717418757597200,1.10359716796875,-1.6075439453125,0.387939453125,-0.3192138671875
1772717418777630200,1.123630126953125,-1.14617919921875,0.317047119140625,-0.1531524658203125
1772717418797663200,1.143663330078125,-0.7321929931640625,0.322479248046875,0.0172882080078125
1772717418817695200,1.1636953125,-0.5323944091796875,0.252288818359375,0.0885009765625
1772717418837728300,1.183728271484375,-0.3431396484375,0.079193115234375,0.091552734375
1772717418857761000,1.203760986328125,-0.1336212158203125,-0.0395660400390625,-0.0816497802734375
1772717418877794300,1.223794189453125,0.0396881103515625,-0.00848388671875,0.1109466552734375
1772717418897827000,1.2438271484375,0.1118011474609375,0.08563232421875,-0.05535888671875
1772717418917859000,1.263859130859375,0.1141815185546875,0.064697265625,-0.100311279296875
1772717418937892000,1.28389208984375,0.0081787109375,0.0438690185546875,-0.14501953125
1772717418957925000,1.303925048828125,-0.15240478515625,-0.0402374267578125,-0.2682952880859375
1772717418977958100,1.323958251953125,-0.2122344970703125,-0.0510711669921875,-0.277191162109375
1772717418997990100,1.343990234375,-0.2310791015625,0.0397796630859375,-0.3864898681640625
1772717419018023200,1.364023193359375,-0.5670623779296875,0.1076202392578125,-0.3611602783203125
1772717419038056200,1.38405615234375,-0.8008880615234375,0.2113800048828125,-0.4453582763671875
1772717419058090000,1.404090087890625,-1.02862548828125,0.34100341796875,-0.5076141357421875
1772717419078122000,1.4241220703125,-1.0667724609375,0.4605560302734375,-0.5324249267578125
1772717419098155000,1.444155029296875,-1.2755126953125,0.4896392822265625,-0.3985748291015625
1772717419118188000,1.46418798828125,-1.6669769287109375,0.6428985595703125,-0.20379638671875
1772717419138221000,1.484220947265625,-1.925384521484375,0.77337646484375,0.0911712646484375
1772717419158253000,1.504253173828125,-1.937042236328125,0.601409912109375,0.193878173828125
1772717419178285800,1.524285888671875,-2.0098114013671875,0.33258056640625,0.3297576904296875
1772717419198318800,1.54431884765625,-2.453277587890625,0.2170867919921875,0.277435302734375
1772717419218351900,1.564351806640625,-2.64208984375,0.133087158203125,0.1686248779296875
1772717419238384000,1.584384033203125,-2.385650634765625,0.063385009765625,0.0797271728515625
1772717419258417000,1.6044169921875,-1.7061614990234375,-0.2141571044921875,0.13897705078125
1772717419278450000,1.624449951171875,-0.9658660888671875,-0.2301788330078125,0.009033203125
1772717419298483000,1.64448291015625,-0.533935546875,-0.1455230712890625,-0.0114593505859375
1772717419318515000,1.664514892578125,-0.5051422119140625,-0.1263580322265625,0.087982177734375
1772717419338548000,1.6845478515625,-0.5223846435546875,-0.0701141357421875,0.146697998046875
1772717419358581000,1.7045810546875,-0.403350830078125,0.0646820068359375,0.0861358642578125
1772717419378614000,1.724614013671875,-0.2903900146484375,0.1459197998046875,0.050567626953125
1772717419398645800,1.744645751953125,-0.20965576171875,0.219329833984375,0.079620361328125
1772717419418679000,1.764678955078125,-0.1832275390625,0.203857421875,0.1148529052734375
1772717419438711800,1.7847119140625,-0.12347412109375,0.1320343017578125,0.061492919921875
1772717419458745000,1.8047451171875,-0.17559814453125,0.1095428466796875,-0.0154876708984375
1772717419478776800,1.82477685546875,-0.36566162109375,0.1895904541015625,-0.056640625
1772717419498810000,1.84481005859375,-0.608673095703125,0.2710723876953125,-0.0200042724609375
1772717419518843000,1.8648427734375,-0.90093994140625,0.2753753662109375,0.06121826171875
1772717419538876200,1.884876220703125,-1.0999298095703125,0.161041259765625,0.117828369140625
1772717419558908000,1.904907958984375,-1.2225799560546875,0.020965576171875,0.139801025390625
1772717419578941000,1.92494091796875,-1.4093017578125,0.1268768310546875,0.3065948486328125
1772717419598974000,1.944973876953125,-1.6094818115234375,0.2066802978515625,0.5592803955078125
1772717419619007000,1.965007080078125,-1.800628662109375,0.1328887939453125,0.556365966796875
1772717419639039000,1.9850390625,-1.54302978515625,0.1956634521484375,0.2066192626953125
1772717419659072000,2.005072021484375,-1.3505706787109375,0.024444580078125,0.2131805419921875
1772717419679105000,2.02510498046875,-1.547119140625,-0.1339263916015625,0.5718536376953125
1772717419699138000,2.045137939453125,-1.56671142578125,-0.3230133056640625,0.6001434326171875
1772717419719169800,2.065169677734375,-1.4552001953125,-0.465545654296875,0.444061279296875
1772717419739203000,2.085203125,-1.312896728515625,-0.42657470703125,0.230316162109375
1772717419759235800,2.10523583984375,-1.3568572998046875,-0.3436126708984375,0.1122589111328125
1772717419779268900,2.125268798828125,-1.2229461669921875,-0.2979736328125,-0.079803466796875
1772717419799300900,2.14530078125,-0.8764801025390625,-0.36083984375,-0.328948974609375
1772717419819334100,2.165334228515625,-0.7346038818359375,-0.36712646484375,-0.37445068359375
1772717419839367000,2.185366943359375,-0.5567169189453125,-0.290985107421875,-0.4373931884765625
1772717419859400000,2.20539990234375,-0.3558197021484375,-0.13134765625,-0.447418212890625
1772717419879432000,2.225431884765625,-0.20233154296875,-0.0266265869140625,-0.3700714111328125
1772717419899465000,2.24546484375,-0.20343017578125,0.0769195556640625,-0.1417236328125
1772717419919498000,2.265498046875,-0.2897491455078125,0.1222991943359375,0.010986328125
1772717419939530800,2.28553076171875,-0.33441162109375,0.22186279296875,-0.020751953125
1772717419959563000,2.30556298828125,-0.37066650390625,0.2117156982421875,-0.00531005859375
1772717419979595800,2.325595703125,-0.378814697265625,0.11370849609375,-0.095855712890625
1772717419999629000,2.345629150390625,-0.378662109375,0.1121368408203125,-0.1511383056640625
1772717420019661800,2.365661865234375,-0.4874114990234375,0.1480560302734375,-0.03106689453125
1772717420039693800,2.38569384765625,-0.55963134765625,0.1974639892578125,-0.08087158203125
1772717420059726600,2.4057265625,-0.7017669677734375,0.0727996826171875,0.0624542236328125
1772717420079759600,2.425759521484375,-0.44122314453125,-0.2568817138671875,0.228729248046875
1772717420099792400,2.44579248046875,-0.5557708740234375,-0.577056884765625,0.1229400634765625
1772717420119824600,2.46582470703125,-1.3100128173828125,-0.436126708984375,0.0474700927734375
1772717420139857400,2.485857421875,-2.049407958984375,-0.100067138671875,0.393524169921875
1772717420159890700,2.505890625,-1.7958831787109375,-0.23583984375,-0.2480316162109375
1772717420179923500,2.52592333984375,-1.1925506591796875,-0.533599853515625,-0.48834228515625
1772717420199955500,2.54595556640625,-1.6729583740234375,-0.5595703125,0.3638916015625
1772717420219988500,2.565988525390625,-1.8807373046875,-0.730926513671875,0.7843017578125
1772717420240021500,2.586021484375,-1.2109375,-1.322662353515625,1.120086669921875
1772717420260054500,2.606054443359375,-0.8168182373046875,-1.515838623046875,1.0126495361328125
1772717420280086500,2.62608642578125,-1.2015533447265625,-1.137420654296875,0.8302001953125
1772717420300119600,2.64611962890625,-1.7927093505859375,-0.8900299072265625,0.476348876953125
1772717420320152600,2.666152587890625,-1.5407257080078125,-0.9290313720703125,0.3150634765625
1772717420340185600,2.686185546875,-0.9697113037109375,-1.0146942138671875,0.149078369140625
1772717420360217600,2.706217529296875,-0.4886627197265625,-0.944183349609375,0.185150146484375
1772717420380250600,2.726250732421875,-0.2511444091796875,-0.51953125,0.436492919921875
1772717420400283600,2.74628369140625,-0.4871063232421875,0.0818634033203125,0.2598724365234375
1772717420420316400,2.76631640625,-0.9942779541015625,0.0941009521484375,0.196136474609375
1772717420440348700,2.7863486328125,-0.637969970703125,0.0218353271484375,0.075958251953125
1772717420460381400,2.80638134765625,-0.14862060546875,-0.0078125,-0.0731048583984375
1772717420480414700,2.826414794921875,-0.1839141845703125,0.006927490234375,-0.0081329345703125
1772717420500447500,2.846447509765625,-0.22808837890625,-0.048858642578125,0.0667266845703125
1772717420520479700,2.866479736328125,-0.269927978515625,-0.115234375,-0.0334625244140625
1772717420540512500,2.886512451171875,-0.3041839599609375,-0.12811279296875,0.0081634521484375
1772717420560545800,2.9065458984375,-0.300445556640625,-0.154266357421875,0.059295654296875
1772717420580578600,2.92657861328125,-0.279083251953125,-0.2118988037109375,0.0670013427734375
1772717420600610600,2.946610595703125,-0.306854248046875,-0.215789794921875,0.0203704833984375
1772717420620643600,2.9666435546875,-0.6020660400390625,-0.1983642578125,0.0309906005859375
1772717420640676600,2.986676513671875,-0.8159637451171875,-0.261199951171875,0.1648406982421875
1772717420660708600,3.00670849609375,-0.9000701904296875,-0.417877197265625,0.2116241455078125
1772717420680741600,3.02674169921875,-1.1383514404296875,-0.521575927734375,0.2103729248046875
1772717420700774700,3.046774658203125,-1.1312713623046875,-0.5333099365234375,0.1735076904296875
1772717420720807700,3.0668076171875,-1.166656494140625,-0.5927581787109375,0.1628570556640625
1772717420740839400,3.08683935546875,-1.1491546630859375,-0.653167724609375,-0.09033203125
1772717420760872700,3.106872802734375,-1.9163665771484375,-0.6326751708984375,0.0384521484375
1772717420780905500,3.126905517578125,-2.70654296875,-0.5798492431640625,0.50909423828125
1772717420800938500,3.1469384765625,-2.6688690185546875,-0.7415008544921875,0.7470550537109375
1772717420820970500,3.166970458984375,-2.245147705078125,-1.03961181640625,0.4496002197265625
1772717420841003800,3.187003662109375,-2.008392333984375,-1.0131378173828125,0.2732086181640625
1772717420861036500,3.20703662109375,-1.671295166015625,-0.778656005859375,0.09228515625
1772717420881069600,3.227069580078125,-1.512481689453125,-0.6532135009765625,-0.04608154296875
1772717420901101600,3.2471015625,-1.181549072265625,-0.4199676513671875,-0.1286773681640625
1772717420921134600,3.267134521484375,-0.6450042724609375,-0.4578094482421875,-0.22021484375
1772717420941167600,3.287167724609375,-0.50799560546875,-0.440643310546875,-0.3111114501953125
1772717420961200400,3.307200439453125,-0.343536376953125,-0.2710723876953125,-0.23516845703125
1772717420981232600,3.327232666015625,-0.075469970703125,-0.1910247802734375,-0.090057373046875
1772717421001265400,3.347265380859375,0.1554107666015625,-0.1688385009765625,0.0895538330078125
1772717421021298700,3.367298583984375,0.2150421142578125,-0.1024932861328125,0.11187744140625
1772717421041330700,3.38733056640625,0.2433929443359375,0.0457763671875,0.010345458984375
1772717421061363200,3.40736328125,0.1718597412109375,0.165985107421875,-0.0341644287109375
1772717421081396200,3.427396240234375,0.054595947265625,0.2071533203125,-0.04864501953125
1772717421101429200,3.44742919921875,-0.0549163818359375,0.1782684326171875,-0.0529327392578125
1772717421121461200,3.467461181640625,-0.140411376953125,0.0729217529296875,-0.0735321044921875
1772717421141494300,3.487494384765625,-0.2683868408203125,-0.1795501708984375,-0.1641693115234375
1772717421161527000,3.507527099609375,-0.56219482421875,-0.270355224609375,-0.293426513671875
1772717421181560300,3.527560302734375,-1.4635162353515625,-0.5247344970703125,-0.3883514404296875
1772717421201592300,3.54759228515625,-2.1124725341796875,-0.454803466796875,-0.5970458984375
1772717421221625000,3.567625,-2.19329833984375,-0.7149200439453125,-0.1092681884765625
1772717421241658000,3.587658203125,-1.5750274658203125,-0.7017364501953125,0.07916259765625
1772717421261690000,3.607690185546875,-1.1178741455078125,-0.6109161376953125,0.1403045654296875
1772717421281723100,3.62772314453125,-0.9990081787109375,-0.6277618408203125,0.3710784912109375
1772717421301756200,3.647756103515625,-0.7767486572265625,-0.9649200439453125,0.529998779296875
1772717421321789200,3.6677890625,-1.0027008056640625,-0.6196136474609375,0.369781494140625
1772717421341821200,3.6878212890625,-1.556610107421875,-0.322235107421875,0.246490478515625
1772717421361854000,3.70785400390625,-1.639373779296875,-0.1451263427734375,0.1119537353515625
1772717421381887200,3.72788720703125,-1.17877197265625,-0.078369140625,0.028076171875
1772717421401920000,3.747919921875,-0.7060699462890625,0.020904541015625,-0.151397705078125
1772717421421952300,3.7679521484375,-0.604827880859375,0.2566375732421875,-0.2450714111328125
1772717421441985000,3.787985107421875,-0.951416015625,0.3081207275390625,0.0632476806640625
1772717421462018300,3.808018310546875,-0.9723663330078125,0.262451171875,0.2315216064453125
1772717421482050300,3.82805029296875,-0.797515869140625,0.101837158203125,0.1521759033203125
1772717421502083000,3.8480830078125,-0.5347900390625,-0.0551300048828125,0.0576629638671875
1772717421522116000,3.8681162109375,-0.338714599609375,-0.0999908447265625,0.05804443359375
1772717421542149000,3.888149169921875,-0.3681488037109375,-0.1393585205078125,0.08636474609375
1772717421562181000,3.90818115234375,-0.6140594482421875,-0.108001708984375,0.1097412109375
1772717421582214100,3.928214111328125,-0.726226806640625,-0.08221435546875,0.00506591796875
1772717421602247200,3.9482470703125,-0.5083160400390625,-0.1923065185546875,-0.232421875
1772717421622280200,3.9682802734375,-0.7559814453125,-0.441375732421875,-0.158905029296875
1772717421642312000,3.98831201171875,-1.1568145751953125,-0.5054168701171875,0.024505615234375
1772717421662342100,4.008342041015625,-1.9932708740234375,-0.248382568359375,0.191650390625
1772717421682375200,4.028375244140625,-2.461273193359375,-0.05169677734375,0.3661956787109375
1772717421702407200,4.0484072265625,-2.1613006591796875,-0.0981597900390625,0.12310791015625
1772717421722440200,4.068440185546875,-1.6508941650390625,-0.3386688232421875,-0.0812225341796875
1772717421742473200,4.08847314453125,-1.5300445556640625,-0.387542724609375,0.1874237060546875
1772717421762506200,4.10850634765625,-1.5939178466796875,-0.43902587890625,0.340118408203125
1772717421782538200,4.128538330078125,-1.3560638427734375,-0.5298004150390625,0.32476806640625
1772717421802571000,4.148571044921875,-1.1169586181640625,-0.5807037353515625,0.1836090087890625
1772717421822604300,4.168604248046875,-0.7809600830078125,-0.53338623046875,-0.1249542236328125
1772717421842636000,4.188635986328125,-0.601348876953125,-0.3734893798828125,-0.24151611328125
1772717421862669300,4.20866943359375,-0.5133209228515625,-0.1737060546875,-0.2012481689453125
1772717421882702000,4.2287021484375,-0.48193359375,-0.0682830810546875,-0.1312103271484375
1772717421902735400,4.2487353515625,-0.5127410888671875,0.0435028076171875,-0.1207275390625
1772717421922767000,4.26876708984375,-0.3477020263671875,0.1703033447265625,-0.1937713623046875
1772717421942800100,4.288800048828125,-0.1348114013671875,0.1608734130859375,-0.200927734375
1772717421962833200,4.308833251953125,-0.0494232177734375,0.1170196533203125,-0.1083984375
1772717421982865200,4.328865234375,-0.08489990234375,0.089935302734375,0.005828857421875
1772717422002898200,4.348898193359375,-0.1881103515625,0.027099609375,0.062591552734375
1772717422022931200,4.36893115234375,-0.3803253173828125,-0.023773193359375,0.0204010009765625
1772717422042964200,4.388964111328125,-0.4413299560546875,-0.078155517578125,-0.090179443359375
1772717422062997000,4.4089970703125,-0.5524444580078125,-0.0296783447265625,-0.123046875
1772717422083031800,4.42903173828125,-0.88128662109375,-0.04107666015625,-0.0334930419921875
1772717422103064800,4.44906494140625,-1.17120361328125,-0.116119384765625,-0.053314208984375
1772717422123097900,4.469097900390625,-1.245819091796875,-0.13336181640625,-0.43359375
1772717422143129900,4.4891298828125,-1.63751220703125,-0.084075927734375,-0.664337158203125
1772717422163162600,4.50916259765625,-2.5568695068359375,0.033538818359375,-0.4661102294921875
1772717422183196000,4.52919580078125,-2.9365081787109375,0.2833404541015625,-0.4646453857421875
1772717422203228700,4.549228759765625,-2.07568359375,-0.1967620849609375,-0.7641143798828125
1772717422223261000,4.569260986328125,-1.377166748046875,-0.5648651123046875,-0.5261383056640625
1772717422243293700,4.589293701171875,-1.8706207275390625,-0.654388427734375,-0.018096923828125
1772717422263327000,4.609326904296875,-1.9564208984375,-0.72625732421875,-0.146331787109375
1772717422283358700,4.629358642578125,-1.67462158203125,-0.658843994140625,-0.1595001220703125
1772717422303392000,4.64939208984375,-1.0875091552734375,-0.575958251953125,-0.0682220458984375
1772717422323424800,4.6694248046875,-0.6338958740234375,-0.3914642333984375,0.015899658203125
1772717422343458000,4.6894580078125,-0.52850341796875,-0.148040771484375,0.099945068359375
1772717422363489800,4.70948974609375,-0.6365203857421875,0.017822265625,0.16912841796875
1772717422383522800,4.729522705078125,-0.5615386962890625,0.13360595703125,0.0873565673828125
1772717422403555800,4.749555908203125,-0.37200927734375,0.1283416748046875,0.0320587158203125
1772717422423588900,4.7695888671875,-0.1846771240234375,0.038299560546875,-0.0032196044921875
1772717422443620900,4.789620849609375,-0.0886383056640625,-0.03497314453125,-0.1000823974609375
1772717422463654000,4.80965380859375,-0.180633544921875,-0.0240631103515625,-0.136138916015625
1772717422483687000,4.82968701171875,-0.4689483642578125,0.014129638671875,-0.1208648681640625
1772717422503719000,4.849718994140625,-0.71148681640625,0.09332275390625,-0.08697509765625
1772717422523751700,4.869751708984375,-0.6251678466796875,0.1031646728515625,-0.069000244140625
1772717422543785000,4.889784912109375,-0.383514404296875,0.0635833740234375,-0.067138671875
1772717422563817700,4.909817626953125,-0.2212371826171875,0.027557373046875,-0.0342254638671875
1772717422583850000,4.92985009765625,-0.32861328125,-0.0283203125,-0.034271240234375
1772717422603882800,4.9498828125,-0.430419921875,-0.1072998046875,0.00347900390625
1772717422623916000,4.969916015625,-0.624969482421875,-0.3200836181640625,0.057861328125
1772717422643947800,4.98994775390625,-1.2794647216796875,-0.6591949462890625,-0.1517791748046875
1772717422663980800,5.009980712890625,-1.82769775390625,-0.558013916015625,-0.4290924072265625
1772717422684013800,5.030013916015625,-2.220703125,-0.581817626953125,-0.2261810302734375
1772717422704046800,5.050046875,-2.805999755859375,-0.3135833740234375,-0.249237060546875
1772717422724078800,5.070078857421875,-1.95733642578125,-0.3649139404296875,-0.673858642578125
1772717422744111900,5.09011181640625,-1.52301025390625,-0.864776611328125,-0.4806976318359375
1772717422764145000,5.110144775390625,-1.7393646240234375,-0.795928955078125,-0.224700927734375
1772717422784177000,5.130177001953125,-2.0690155029296875,-0.7103271484375,-0.3001556396484375
1772717422804209700,5.150209716796875,-1.9629364013671875,-0.6861419677734375,-0.322967529296875
1772717422824243000,5.170242919921875,-1.37176513671875,-0.56341552734375,-0.1840667724609375
1772717422844275700,5.190275634765625,-0.8298187255859375,-0.386322021484375,-0.0046234130859375
1772717422864308000,5.210307861328125,-0.4692840576171875,-0.212615966796875,0.07366943359375
1772717422884340700,5.2303408203125,-0.2786102294921875,0.000396728515625,0.0472259521484375
1772717422904373800,5.250373779296875,-0.1946258544921875,0.19696044921875,-0.020477294921875
1772717422924405800,5.27040576171875,-0.231201171875,0.11798095703125,0.076934814453125
1772717422944439000,5.29043896484375,-0.2584686279296875,0.0478515625,0.1296234130859375
1772717422964471800,5.310471923828125,-0.09295654296875,-0.019012451171875,0.02423095703125
1772717422984504800,5.3305048828125,0.0627593994140625,-0.0712738037109375,-0.061798095703125
1772717423004536800,5.350536865234375,-0.0334625244140625,-0.0713653564453125,-0.060882568359375
1772717423024569900,5.37056982421875,-0.308929443359375,-0.0305633544921875,-0.05426025390625
1772717423044603000,5.390602783203125,-0.4812469482421875,0.04595947265625,-0.0161895751953125
1772717423064634600,5.410634521484375,-0.491058349609375,0.116912841796875,-0.0496978759765625
1772717423084667600,5.430667724609375,-0.359619140625,0.1164703369140625,-0.1196746826171875
1772717423104700700,5.45070068359375,-0.384918212890625,-0.062835693359375,-0.0968017578125
1772717423124732700,5.470732666015625,-0.4569091796875,-0.35064697265625,-0.006317138671875
1772717423144765700,5.490765625,-0.6880340576171875,-0.4415130615234375,-0.0864410400390625
1772717423164798700,5.510798828125,-1.1038665771484375,-0.28582763671875,-0.42022705078125
1772717423184831700,5.530831787109375,-1.6131591796875,-0.603912353515625,-0.16558837890625
1772717423204863500,5.550863525390625,-1.87646484375,-0.4815216064453125,-0.1710662841796875
1772717423224896800,5.570896728515625,-1.1749267578125,-0.6220703125,-0.6903533935546875
1772717423244929500,5.590929443359375,-1.3047637939453125,-0.3928985595703125,-0.658966064453125
1772717423264962600,5.610962646484375,-2.2377471923828125,-0.0895233154296875,0.1767425537109375
1772717423284994600,5.63099462890625,-2.6229095458984375,-0.225555419921875,0.0864715576171875
1772717423305027800,5.65102783203125,-2.06219482421875,-0.3759613037109375,-0.274261474609375
1772717423325060600,5.671060546875,-1.5885162353515625,-0.377105712890625,-0.1283111572265625
1772717423345092900,5.6910927734375,-1.2327880859375,-0.2723846435546875,0.1467437744140625
1772717423365125600,5.711125732421875,-0.9361572265625,-0.20489501953125,0.279632568359375
1772717423385158700,5.73115869140625,-0.715728759765625,-0.216094970703125,0.2899169921875
1772717423405190700,5.751190673828125,-0.6720123291015625,-0.2254791259765625,0.1696319580078125
1772717423425223700,5.7712236328125,-0.6378021240234375,-0.2888641357421875,0.0783538818359375
1772717423445256700,5.791256591796875,-0.4930877685546875,-0.3301239013671875,0.0051727294921875
1772717423465289500,5.81128955078125,-0.4515228271484375,-0.3486785888671875,-0.0262908935546875
1772717423485321700,5.83132177734375,-0.532257080078125,-0.3211517333984375,-0.0016937255859375
1772717423505354800,5.851354736328125,-0.660369873046875,-0.2595062255859375,0.0395660400390625
1772717423525387800,5.8713876953125,-0.68963623046875,-0.2531585693359375,0.0308685302734375
1772717423545419800,5.891419677734375,-0.611907958984375,-0.29742431640625,-0.0864410400390625
1772717423565452500,5.91145263671875,-0.6304931640625,-0.2990875244140625,-0.2116241455078125
1772717423585485800,5.93148583984375,-0.684051513671875,-0.227264404296875,-0.1885223388671875
1772717423605518600,5.9515185546875,-0.6892242431640625,-0.1257476806640625,-0.0596466064453125
1772717423625550800,5.97155078125,-0.6030120849609375,-0.067657470703125,-0.0807342529296875
1772717423645583600,5.99158349609375,-0.69091796875,-0.0615234375,-0.2332000732421875
1772717423665616600,6.01161669921875,-1.070953369140625,-0.018768310546875,-0.1901092529296875
1772717423685648600,6.031648681640625,-1.2816925048828125,0.0323486328125,-0.0066986083984375
1772717423705681700,6.051681640625,-1.6778106689453125,-0.046630859375,0.007537841796875
1772717423725714700,6.071714599609375,-2.4041595458984375,-0.09161376953125,-0.192718505859375
1772717423745747500,6.09174755859375,-2.646484375,-0.3456878662109375,-0.3430633544921875
1772717423765779700,6.11177978515625,-2.8252410888671875,-0.4767303466796875,-0.224639892578125
1772717423785812700,6.131812744140625,-1.790496826171875,-0.6424102783203125,-0.5652618408203125
1772717423805845800,6.151845703125,-1.0888824462890625,-0.9976654052734375,-0.4241790771484375
1772717423825877800,6.171877685546875,-0.7015533447265625,-1.0315093994140625,-0.349945068359375
1772717423845910500,6.19191064453125,-0.6611328125,-0.79595947265625,-0.2901611328125
1772717423865943600,6.211943603515625,-0.852569580078125,-0.4234619140625,-0.1279296875
1772717423885975600,6.2319755859375,-0.89776611328125,-0.063995361328125,0.033905029296875
1772717423906008800,6.2520087890625,-0.69989013671875,0.0551910400390625,0.0287628173828125
1772717423926041600,6.27204150390625,-0.4332122802734375,-0.0243377685546875,-0.088775634765625
1772717423946074600,6.29207470703125,-0.2198486328125,0.2004852294921875,0.0043182373046875
1772717423966106600,6.312106689453125,-0.3247528076171875,0.0701904296875,0.1591796875
1772717423986139600,6.3321396484375,-0.2415771484375,0.0080108642578125,0.0973052978515625
1772717424006172700,6.352172607421875,-0.2046356201171875,-0.063873291015625,0.07958984375
1772717424026204700,6.37220458984375,-0.209625244140625,-0.1273040771484375,0.15948486328125
1772717424046237700,6.39223779296875,-0.2032318115234375,-0.086669921875,-0.0825042724609375
1772717424066270200,6.412270263671875,-0.237884521484375,-0.0311431884765625,-0.109954833984375
1772717424086302000,6.432302001953125,-0.2928619384765625,-0.00872802734375,-0.0727691650390625
1772717424106335200,6.452335205078125,-0.390899658203125,0.00250244140625,0.006683349609375
1772717424126368000,6.472367919921875,-0.48388671875,-0.0413665771484375,-0.0331878662109375
1772717424146401300,6.4924013671875,-0.4807281494140625,-0.0152740478515625,-0.0369110107421875
1772717424166433000,6.51243310546875,-0.5749053955078125,-0.4365997314453125,0.0752716064453125
1772717424186466300,6.53246630859375,-0.597900390625,-1.1043701171875,0.1007843017578125
1772717424206499000,6.5524990234375,-1.080413818359375,-1.301300048828125,-0.337066650390625
1772717424226531300,6.57253125,-1.8838653564453125,-0.869903564453125,-0.124481201171875
1772717424246564000,6.592564208984375,-2.033538818359375,-0.859405517578125,0.3698272705078125
1772717424266597400,6.612597412109375,-1.7112274169921875,-0.8733673095703125,0.6721649169921875
1772717424286630100,6.632630126953125,-1.7764434814453125,-0.975738525390625,0.36578369140625
1772717424306662100,6.652662109375,-1.636322021484375,-0.9605560302734375,0.0450439453125
1772717424326695200,6.672695068359375,-1.4263763427734375,-1.15484619140625,0.024810791015625
1772717424346728200,6.692728271484375,-1.25299072265625,-1.12744140625,0.0157470703125
1772717424366760200,6.71276025390625,-1.2022247314453125,-0.852569580078125,0.0898590087890625
1772717424386793200,6.732793212890625,-1.13177490234375,-0.6801300048828125,0.18023681640625
1772717424406826200,6.752826171875,-1.0143890380859375,-0.714202880859375,-0.1553802490234375
1772717424426858200,6.772858154296875,-0.830596923828125,-0.6802215576171875,-0.4322509765625
1772717424446891000,6.79289111328125,-0.6158599853515625,-0.4554443359375,-0.3524017333984375
1772717424466924300,6.81292431640625,-0.633941650390625,-0.178192138671875,-0.1090545654296875
1772717424486957000,6.83295703125,-0.753814697265625,-0.1179046630859375,0.1657257080078125
1772717424506989300,6.8529892578125,-0.542877197265625,-0.1405181884765625,0.18096923828125
1772717424527022000,6.87302197265625,-0.236053466796875,-0.160003662109375,0.1175079345703125
1772717424547055400,6.893055419921875,-0.030242919921875,-0.2058868408203125,-0.027252197265625
1772717424567087000,6.913087158203125,-0.079498291015625,-0.1483306884765625,0.0019073486328125
1772717424587120000,6.9331201171875,-0.3410186767578125,-0.031005859375,0.1126861572265625
1772717424607153200,6.953153076171875,-0.519683837890625,0.0308074951171875,0.1869659423828125
1772717424627185200,6.97318505859375,-0.4708404541015625,0.1122894287109375,0.1015472412109375
1772717424647218200,6.99321826171875,-0.3282470703125,0.03448486328125,-0.0474700927734375
1772717424667251200,7.013251220703125,-0.201934814453125,-0.025787353515625,-0.1029205322265625
1772717424687284200,7.0332841796875,-0.1746368408203125,0.0071258544921875,-0.0668182373046875
1772717424707316200,7.053316162109375,-0.2184600830078125,0.0572052001953125,0.001708984375
1772717424727349000,7.073348876953125,-0.3155670166015625,0.05950927734375,0.15911865234375
1772717424747382300,7.09338232421875,-0.335052490234375,-0.10797119140625,0.3232574462890625
1772717424767414000,7.1134140625,-0.15582275390625,-0.2520599365234375,0.1318511962890625
1772717424787447300,7.133447265625,-0.434478759765625,-0.352783203125,-0.09698486328125
1772717424807480000,7.15347998046875,-1.5422821044921875,-0.6337127685546875,0.054534912109375
1772717424827512300,7.17351220703125,-1.59796142578125,-0.3552703857421875,-0.16485595703125
1772717424847545000,7.193545166015625,-1.01416015625,-0.47113037109375,-0.1869049072265625
1772717424867578400,7.213578369140625,-0.9928436279296875,-0.1900177001953125,0.119720458984375
1772717424887610000,7.233610107421875,-1.854522705078125,-0.235015869140625,0.512054443359375
1772717424907643100,7.25364306640625,-3.0737152099609375,-0.488983154296875,-0.1692352294921875
1772717424927676200,7.27367626953125,-3.991943359375,-0.8998260498046875,-0.8585052490234375
1772717424947709200,7.293709228515625,-3.9281005859375,-1.0072021484375,-0.0762481689453125
1772717424967741200,7.3137412109375,-3.6149749755859375,-0.76617431640625,0.3481292724609375
1772717424987774200,7.333774169921875,-2.8940582275390625,-0.5486907958984375,0.0238494873046875
1772717425007807200,7.35380712890625,-2.0933837890625,-0.2524261474609375,-0.061065673828125
1772717425027839200,7.373839111328125,-1.3415374755859375,-0.0720977783203125,-0.064727783203125
1772717425047872000,7.3938720703125,-0.94903564453125,0.079132080078125,-0.09625244140625
1772717425067906000,7.413906005859375,-0.77947998046875,0.25616455078125,-0.061248779296875
1772717425087938000,7.43393798828125,-0.588043212890625,0.2260284423828125,0.0803375244140625
1772717425107971000,7.45397119140625,-0.4352264404296875,0.1591033935546875,0.0383758544921875
1772717425128004000,7.474004150390625,-0.312835693359375,0.0840301513671875,-0.0785675048828125
1772717425148036900,7.494036865234375,-0.1786346435546875,0.005584716796875,-0.111297607421875
1772717425168069000,7.514069091796875,-0.076080322265625,-0.201141357421875,-0.07275390625
1772717425188102000,7.534101806640625,-0.066864013671875,-0.3309783935546875,0.03106689453125
1772717425208135200,7.55413525390625,0.009124755859375,-0.213287353515625,0.08514404296875
1772717425228167200,7.574167236328125,0.043731689453125,-0.0675048828125,0.0740814208984375
1772717425248200200,7.5942001953125,0.0212554931640625,-0.0640411376953125,0.078155517578125
1772717425268233000,7.61423291015625,-0.022674560546875,-0.0814666748046875,0.114288330078125
1772717425288265000,7.634264892578125,-0.052154541015625,-0.0411224365234375,0.1993865966796875
1772717425308298000,7.654298095703125,-0.07061767578125,-0.06298828125,0.1559295654296875
1772717425328331000,7.6743310546875,-0.202362060546875,-0.2107696533203125,0.2779083251953125
1772717425348363300,7.69436328125,-0.209381103515625,-0.2428741455078125,0.2255706787109375
1772717425368396000,7.71439599609375,-0.2098541259765625,-0.2135772705078125,0.09783935546875
1772717425388429000,7.734428955078125,-0.2735137939453125,-0.2694244384765625,0.041778564453125
1772717425408461000,7.7544609375,-0.1896514892578125,-0.2393035888671875,0.046051025390625
1772717425428494000,7.774494140625,-0.1078948974609375,-0.29498291015625,0.0917205810546875
1772717425448527000,7.794527099609375,-0.2384033203125,-0.3597869873046875,0.07720947265625
1772717425468560000,7.814559814453125,-0.60601806640625,-0.3830413818359375,0.0455322265625
1772717425488592100,7.834592041015625,-0.8244171142578125,-0.2634429931640625,0.0740814208984375
1772717425508625200,7.854625244140625,-1.031219482421875,-0.122467041015625,0.121795654296875
1772717425528658200,7.874658203125,-1.5117645263671875,-0.21746826171875,0.12548828125
1772717425548690200,7.894690185546875,-2.03594970703125,-0.31597900390625,-0.0388641357421875
1772717425568723000,7.914722900390625,-2.4312744140625,-0.3780059814453125,-0.190673828125
1772717425588756000,7.934755859375,-3.0711822509765625,-0.3723297119140625,-0.0247039794921875
1772717425608788000,7.9547880859375,-2.960174560546875,-0.437652587890625,0.1377716064453125
1772717425628821200,7.9748212890625,-2.48492431640625,-0.5435943603515625,0.0692138671875
1772717425648852200,7.994852294921875,-2.1376190185546875,-0.5642852783203125,0.0227508544921875
1772717425668884000,8.014884033203124,-1.744110107421875,-0.5689544677734375,0.0834808349609375
1772717425688917200,8.034917236328125,-1.5312652587890625,-0.506500244140625,0.04547119140625
1772717425708950000,8.054949951171874,-1.472900390625,-0.400634765625,-0.0027313232421875
1772717425728982000,8.07498193359375,-1.477874755859375,-0.4641265869140625,0.1068878173828125
1772717425749015000,8.09501513671875,-1.2743682861328125,-0.48406982421875,-0.0334625244140625
1772717425769048000,8.115048095703125,-1.0233154296875,-0.4285888671875,-0.1549835205078125
1772717425789081000,8.1350810546875,-0.746673583984375,-0.3084259033203125,-0.13958740234375
1772717425809113000,8.155113037109375,-0.4849395751953125,-0.20074462890625,-0.0305023193359375
1772717425829146000,8.17514599609375,-0.29840087890625,-0.139129638671875,0.0773162841796875
1772717425849179100,8.19517919921875,-0.1653900146484375,-0.111602783203125,0.172149658203125
1772717425869211000,8.2152109375,-0.1230621337890625,-0.1453399658203125,0.154876708984375
1772717425889244200,8.235244140625,-0.0614471435546875,-0.1594390869140625,0.0917205810546875
1772717425909277000,8.25527685546875,-0.054779052734375,-0.1652984619140625,0.12689208984375
1772717425929309200,8.27530908203125,-0.030853271484375,-0.1993560791015625,0.1028594970703125
1772717425949342000,8.295342041015624,-0.046356201171875,-0.34063720703125,-0.038543701171875
1772717425969375200,8.315375244140625,-0.0627288818359375,-0.2453765869140625,0.05047607421875
1772717425989407000,8.335406982421874,-0.20391845703125,-0.329986572265625,0.2521209716796875
1772717426009440300,8.355440185546875,-0.15869140625,-0.2601165771484375,0.177459716796875
1772717426029473000,8.37547314453125,-0.1657257080078125,-0.3724822998046875,0.1750335693359375
1772717426049505000,8.395505126953125,-0.2783966064453125,-0.4696807861328125,0.0677642822265625
1772717426069539600,8.41553955078125,-0.4830474853515625,-0.429473876953125,-0.027191162109375
1772717426089572400,8.435572265625,-0.690887451171875,-0.43402099609375,0.047515869140625
1772717426109605600,8.455605712890625,-0.98272705078125,-0.6198883056640625,0.2354888916015625
1772717426129637400,8.475637451171876,-1.2364044189453125,-0.566680908203125,-0.009735107421875
1772717426149670700,8.495670654296875,-1.4478302001953125,-0.535369873046875,-0.1748046875
1772717426169703400,8.515703369140626,-1.5204010009765625,-0.4796295166015625,-0.0154876708984375
1772717426189735700,8.535735595703125,-1.6812744140625,-0.448089599609375,0.1383819580078125
1772717426209768400,8.5557685546875,-1.6493988037109375,-0.3859710693359375,0.1439056396484375
1772717426229801500,8.575801513671875,-1.4278106689453125,-0.3970489501953125,0.1092376708984375
1772717426249833500,8.59583349609375,-1.259521484375,-0.4116058349609375,0.0377197265625
1772717426269866500,8.615866455078125,-1.0453643798828125,-0.386932373046875,-0.008209228515625
1772717426289899500,8.6358994140625,-0.790496826171875,-0.3898773193359375,0.092987060546875
1772717426309931500,8.655931640625,-0.747039794921875,-0.4083709716796875,0.235260009765625
1772717426329964500,8.675964599609374,-1.154388427734375,-0.2650604248046875,-0.0300140380859375
