time,seconds_elapsed,z,y,x
1772789682846597400,0.356597412109375,-0.025626182556152344,-0.002231597900390625,0.007308870553970337
1772789682866697700,0.37669775390625,-0.029234886169433594,-0.0042198896408081055,0.02037408947944641
1772789682886798000,0.396798095703125,-0.013684272766113281,-0.02960905432701111,0.0102902352809906
1772789682906898200,0.416898193359375,-0.012495994567871094,-0.02210777997970581,0.01912015676498413
1772789682926998500,0.43699853515625,-0.025078773498535156,0.00015717744827270508,0.032953351736068726
1772789682947099000,0.457098876953125,-0.02749919891357422,0.005622893571853638,-0.01036098599433899
1772789682967199200,0.47719921875,-0.013745307922363281,0.02025744318962097,-0.01966986060142517
1772789682987299300,0.49729931640625,-0.028146743774414062,0.03025764226913452,-0.019396662712097168
1772789683007399700,0.517399658203125,-0.02817249298095703,0.006825625896453857,-0.00974932312965393
1772789683027500000,0.5375,-0.03238487243652344,0.02160853147506714,-0.004883617162704468
1772789683047600400,0.557600341796875,-0.01866912841796875,0.04166415333747864,-0.018725574016571045
1772789683067700700,0.57770068359375,-0.037278175354003906,0.028072386980056763,-0.02323773503303528
1772789683087800800,0.59780078125,-0.023566246032714844,0.0009711086750030518,-0.0036394596099853516
1772789683107901200,0.617901123046875,-0.03318595886230469,-0.007821440696716309,0.0012111365795135498
1772789683128001500,0.63800146484375,-0.02366352081298828,-0.006775021553039551,0.0015925168991088867
1772789683148102000,0.658101806640625,-0.014135360717773438,0.012773126363754272,-0.017280220985412598
1772789683168202000,0.678201904296875,-0.04231834411621094,-0.01938137412071228,0.011482596397399902
1772789683188301000,0.698301025390625,-0.019016265869140625,-0.061551809310913086,-0.0025066137313842773
1772789683208400000,0.71839990234375,-0.009479522705078125,-0.022544801235198975,-0.04039040207862854
1772789683228498700,0.738498779296875,-0.03287982940673828,-0.002804487943649292,-0.03979599475860596
1772789683248597800,0.75859765625,-0.042484283447265625,0.0026177167892456055,-0.016041606664657593
1772789683268696800,0.77869677734375,-0.019161224365234375,-0.006544202566146851,0.013185381889343262
1772789683288795600,0.798795654296875,-0.033565521240234375,0.02685832977294922,-0.010439127683639526
1772789683308894700,0.818894775390625,-0.02401447296142578,0.06095650792121887,0.008896440267562866
1772789683328993500,0.83899365234375,-0.02404022216796875,0.07109424471855164,0.023285746574401855
1772789683349092600,0.859092529296875,-0.014516830444335938,0.0485701858997345,-0.01015925407409668
1772789683369191400,0.87919140625,-0.019341468811035156,0.030344784259796143,-0.0295698344707489
1772789683389290500,0.89929052734375,-0.03373908996582031,0.030858367681503296,0.008824437856674194
1772789683409389300,0.919389404296875,-0.014620780944824219,0.01715943217277527,-0.009875237941741943
1772789683429488400,0.93948828125,-0.024216651916503906,0.022465497255325317,-0.005355209112167358
1772789683449587200,0.959587158203125,-0.010469436645507812,0.01813662052154541,-0.005750507116317749
1772789683469686300,0.979686279296875,-0.019464492797851562,0.0231325626373291,-0.0008714795112609863
1772789683489785000,0.99978515625,-0.010519981384277344,0.0286005437374115,0.004213869571685791
1772789683509884200,1.01988427734375,-0.06681251525878906,0.04007768630981445,0.008286237716674805
1772789683529983000,1.03998291015625,-0.06227588653564453,0.0027857422828674316,-0.007949203252792358
1772789683550082000,1.06008203125,0.1648387908935547,-0.025401562452316284,-0.02810552716255188
1772789683570180900,1.080180908203125,-0.19947528839111328,0.020990997552871704,0.0430169403553009
1772789683590280000,1.100280029296875,0.013064384460449219,0.015322625637054443,-0.05907928943634033
1772789683610378800,1.120378662109375,-0.14762306213378906,0.0032987594604492188,0.06139436364173889
1772789683630477800,1.140477783203125,0.08417320251464844,-0.008547037839889526,-0.08173897862434387
1772789683650576600,1.16057666015625,0.2402791976928711,-0.01770111918449402,-0.11514556407928467
1772789683670675700,1.18067578125,-0.03165626525878906,0.41939428448677063,0.37050262093544006
1772789683690775000,1.200775146484375,-0.5550937652587891,0.23849165439605713,0.11147356033325195
1772789683710874000,1.2208740234375,0.5141677856445312,0.4526868462562561,-0.034668177366256714
1772789683730973400,1.240973388671875,-0.3514375686645508,0.5769219994544983,-0.12474355101585388
1772789683751072800,1.26107275390625,1.1720819473266602,-0.05959129333496094,-1.0455433130264282
1772789683771172000,1.281172119140625,-0.4534616470336914,-0.9371112585067749,1.2462987899780273
1772789683791271400,1.301271484375,-0.18309497833251953,-0.7340771555900574,-0.21737873554229736
1772789683811370800,1.321370849609375,-0.26506900787353516,0.14655041694641113,0.17180687189102173
1772789683831469800,1.3414697265625,0.9914026260375977,-0.4346897602081299,1.337406873703003
1772789683851569200,1.361569091796875,0.38731861114501953,-0.964978039264679,2.480733871459961
1772789683871668500,1.38166845703125,0.855839729309082,-1.6610076427459717,3.507523536682129
1772789683891767800,1.401767822265625,1.9503583908081055,-1.7477052211761475,5.221531867980957
1772789683911867000,1.421866943359375,2.4146480560302734,-2.5512919425964355,5.258867263793945
1772789683931966200,1.44196630859375,0.7024135589599609,-1.419344186782837,3.2402150630950928
1772789683952065500,1.4620654296875,-1.0195837020874023,-0.7203348278999329,3.333266496658325
1772789683972164900,1.482164794921875,-0.9055662155151367,-1.6907910108566284,4.229494571685791
1772789683992264200,1.50226416015625,-1.211104393005371,-1.9320104122161865,3.1393985748291016
1772789684012363300,1.52236328125,-2.149162769317627,-1.2798560857772827,2.545954704284668
1772789684032462600,1.542462646484375,-1.622415542602539,-1.2272144556045532,2.3538527488708496
1772789684052562000,1.56256201171875,-0.9957685470581055,-1.1852155923843384,1.1324880123138428
1772789684072661200,1.5826611328125,-1.1550073623657227,-0.8574478030204773,1.1740436553955078
1772789684092760600,1.602760498046875,-1.4740839004516602,-1.0488535165786743,0.8276320099830627
1772789684112859600,1.622859619140625,-1.4125299453735352,-0.7014703154563904,-0.14493721723556519
1772789684132959000,1.642958984375,0.3167076110839844,-0.17277675867080688,-1.1443367004394531
1772789684153058300,1.663058349609375,2.4751367568969727,-0.008881449699401855,-1.950132966041565
1772789684173158000,1.683157958984375,2.2276926040649414,-0.0168381929397583,-2.902543306350708
1772789684193257700,1.7032578125,-0.08656597137451172,0.5089075565338135,-3.467233180999756
1772789684213357800,1.72335791015625,-0.4059944152832031,0.40523600578308105,-3.321193218231201
1772789684233458000,1.7434580078125,0.1654987335205078,0.3354344367980957,-2.8402345180511475
1772789684253558000,1.76355810546875,-0.06741142272949219,0.6293238401412964,-3.4126248359680176
1772789684273657900,1.783657958984375,-0.5523309707641602,0.8406976461410522,-4.869105339050293
1772789684293758000,1.803758056640625,-1.1328306198120117,0.3793271780014038,-4.507906913757324
1772789684313858000,1.823858154296875,-1.3465518951416016,0.9435491561889648,-3.5754876136779785
1772789684333958100,1.843958251953125,0.025295257568359375,1.1130294799804688,-3.9570183753967285
1772789684354058200,1.864058349609375,0.5846738815307617,1.2870911359786987,-4.790785312652588
1772789684374158000,1.884157958984375,-0.05550670623779297,0.5630013942718506,-3.539947032928467
1772789684394258200,1.904258056640625,-0.7073507308959961,-0.6495293378829956,-1.133291482925415
1772789684414358300,1.924358154296875,-0.4782743453979492,-0.945789635181427,-0.1798071265220642
1772789684434458400,1.944458251953125,0.2171306610107422,-0.22123759984970093,0.21523773670196533
1772789684454558200,1.96455810546875,0.5636062622070312,0.20328748226165771,0.3740733861923218
1772789684474658300,1.984658203125,0.7892446517944336,-0.2663249969482422,0.1547955870628357
1772789684494758400,2.00475830078125,0.26131343841552734,-0.20809698104858398,0.2268277406692505
1772789684514858500,2.0248583984375,0.46274471282958984,0.022333264350891113,0.15885934233665466
1772789684534958300,2.044958251953125,0.8723478317260742,0.499284029006958,-0.2541453242301941
1772789684555058400,2.065058349609375,0.9384317398071289,0.40552008152008057,-0.23212844133377075
1772789684575158500,2.085158447265625,0.2863731384277344,-0.3222888112068176,0.05562523007392883
1772789684595258600,2.105258544921875,-0.26980113983154297,-0.12153398990631104,0.2255134880542755
1772789684615358700,2.125358642578125,0.011167526245117188,0.41492795944213867,0.05991131067276001
1772789684635458600,2.14545849609375,0.3417024612426758,0.1004323959350586,0.045393019914627075
1772789684655558700,2.16555859375,0.36334705352783203,0.008828282356262207,0.15573972463607788
1772789684675658200,2.185658203125,0.29473018646240234,0.31914639472961426,-0.0704004168510437
1772789684695757000,2.205757080078125,-0.6065778732299805,-0.2332782745361328,-0.2079256772994995
1772789684715856000,2.22585595703125,0.39837169647216797,-0.15914946794509888,0.008207008242607117
1772789684735954700,2.24595458984375,-0.3273134231567383,-0.02519392967224121,-0.15559633076190948
1772789684756053500,2.266053466796875,-0.1566925048828125,0.2715733051300049,0.06237331032752991
1772789684776152300,2.28615234375,0.4754905700683594,0.0016681551933288574,0.008524447679519653
1772789684796251100,2.306251220703125,-0.2567768096923828,0.02873075008392334,-0.10322235524654388
1772789684816350000,2.326349853515625,-0.2005167007446289,0.1350231170654297,0.048109546303749084
1772789684836448800,2.34644873046875,0.3098945617675781,-0.029056966304779053,-0.042460620403289795
1772789684856547800,2.3665478515625,-0.19078922271728516,0.06671953201293945,-0.010694414377212524
1772789684876646700,2.386646728515625,-0.0016927719116210938,0.04856365919113159,-0.027043417096138
1772789684896745500,2.406745361328125,-0.0022106170654296875,0.04337078332901001,-0.02485036849975586
1772789684916844300,2.42684423828125,-0.049080848693847656,0.04459637403488159,-0.003451019525527954
1772789684936943000,2.446943115234375,0.012032508850097656,0.030187547206878662,-0.05300401151180267
1772789684957042000,2.4670419921875,-0.07308292388916016,0.04993391036987305,-0.013549402356147766
1772789684977140700,2.487140625,0.007153511047363281,0.05010223388671875,-0.023494035005569458
1772789684997239600,2.507239501953125,0.0023059844970703125,0.045794129371643066,-0.003758549690246582
1772789685017338400,2.52733837890625,-0.021080970764160156,0.022130608558654785,-0.032483264803886414
1772789685037437200,2.547437255859375,-0.058846473693847656,0.04162156581878662,-0.017861872911453247
1772789685057536000,2.567535888671875,-0.021169662475585938,0.0372660756111145,-0.007762625813484192
1772789685077635000,2.587635009765625,-0.02118396759033203,0.03738725185394287,-0.02685721218585968
1772789685097733600,2.607733642578125,-0.02600383758544922,0.03292936086654663,-0.027048930525779724
1772789685117832700,2.627832763671875,-0.03560066223144531,0.03310835361480713,-0.02731892466545105
1772789685137931500,2.647931640625,-0.035622596740722656,0.05722165107727051,-0.012607201933860779
1772789685158030300,2.6680302734375,-0.030831336975097656,0.03388172388076782,-0.012696221470832825
1772789685178130200,2.688130126953125,-0.011701583862304688,0.03895008563995361,-0.017070606350898743
1772789685198230500,2.70823046875,0.025992393493652344,0.04885786771774292,-0.036722347140312195
1772789685218331000,2.728330810546875,-0.0027875900268554688,0.049175798892974854,-0.022225499153137207
1772789685238431500,2.748431396484375,-0.0076503753662109375,0.05459517240524292,-0.02169962227344513
1772789685258532000,2.768531982421875,-0.021457672119140625,0.054906606674194336,-0.026367828249931335
1772789685278632400,2.788632568359375,-0.02630615234375,0.04585510492324829,-0.030838578939437866
1772789685298732800,2.80873291015625,-0.026353836059570312,0.03191828727722168,-0.040232107043266296
1772789685318833400,2.82883349609375,-0.03597831726074219,0.04672372341156006,-0.025941714644432068
1772789685359034400,2.869034423828125,0.001682281494140625,0.04257309436798096,-0.02084954082965851
1772789685379135000,2.889135009765625,-0.04085350036621094,0.05709552764892578,-0.01595577597618103
1772789685399235300,2.9092353515625,-0.03129386901855469,0.06148034334182739,-0.010431408882141113
1772789685419336000,2.9293359375,-0.01694202423095703,0.06640785932540894,-0.033914610743522644
1772789685439436300,2.949436279296875,-0.026556015014648438,0.05234217643737793,-0.03865770995616913
1772789685459537000,2.969536865234375,-0.040976524353027344,0.04801774024963379,-0.03377154469490051
1772789685479637200,2.98963720703125,-0.03146076202392578,0.02530825138092041,-0.028942227363586426
1772789685499737900,3.00973779296875,-0.04588127136230469,0.053915977478027344,-0.0335959792137146
1772789685519838200,3.029838134765625,-0.02675914764404297,0.03512871265411377,-0.03334878385066986
1772789685560039200,3.0700390625,-0.03638648986816406,0.04033893346786499,-0.023558661341667175
1772789685580139800,3.090139892578125,-0.036421775817871094,0.04065394401550293,-0.008953198790550232
1772789685600240000,3.110240234375,-0.03166007995605469,0.05113804340362549,-0.01441657543182373
1772789685620340700,3.1303408203125,-0.013133049011230469,0.05628395080566406,-0.023820847272872925
1772789685640441000,3.150441162109375,-0.01794147491455078,0.03728592395782471,-0.029189273715019226
1772789685660541700,3.170541748046875,-0.01318359375,0.028035223484039307,-0.014799833297729492
1772789685680641800,3.190641845703125,-0.022806167602539062,0.04755884408950806,-0.009778112173080444
1772789685700741600,3.21074169921875,-0.03660106658935547,0.03335624933242798,-0.028628244996070862
1772789685720841500,3.230841552734375,-0.041428565979003906,0.024755477905273438,-0.014338657259941101
1772789685740941300,3.25094140625,-0.01809215545654297,0.03450512886047363,-0.02379952371120453
1772789685761041200,3.271041259765625,-0.027673721313476562,0.04892396926879883,-0.004901424050331116
1772789685781141000,3.29114111328125,-0.022918701171875,0.04444277286529541,-0.02860930562019348
1772789685801240800,3.31124072265625,-0.017530441284179688,0.06303679943084717,-0.028030529618263245
1772789685821340700,3.331340576171875,-0.04147911071777344,0.043820738792419434,-0.0137253999710083
1772789685841440500,3.3514404296875,-0.04150581359863281,0.039295732975006104,-0.02325962483882904
1772789685861540400,3.371540283203125,-0.03674793243408203,0.034825026988983154,-0.023243114352226257
1772789685881640200,3.39164013671875,-0.04156017303466797,0.039826810359954834,-0.004042893648147583
1772789685901740000,3.411739990234375,-0.027199745178222656,0.025524914264678955,-0.027615264058113098
1772789685921840000,3.431840087890625,-0.013436317443847656,0.04000586271286011,-0.02286490797996521
1772789685962039800,3.472039794921875,-0.022437095642089844,0.040094733238220215,-0.016974493861198425
1772789685982139600,3.4921396484375,-0.036830902099609375,0.02589350938796997,-0.021483629941940308
1772789686002239500,3.512239501953125,-0.03206920623779297,0.054881930351257324,-0.0073398202657699585
1772789686022339300,3.53233935546875,-0.041667938232421875,0.04065901041030884,-0.031136974692344666
1772789686042439200,3.552439208984375,-0.017726898193359375,0.026408731937408447,-0.03585287928581238
1772789686062539000,3.5725390625,-0.027329444885253906,0.03136509656906128,-0.016412675380706787
1772789686082638800,3.592638916015625,-0.041724205017089844,0.06029254198074341,-0.016141951084136963
1772789686102738700,3.61273876953125,-0.03213310241699219,0.04580485820770264,-0.024937257170677185
1772789686122838500,3.632838623046875,-0.036945343017578125,0.050735533237457275,-0.01970881223678589
1772789686142938400,3.6529384765625,-0.027326583862304688,0.050356149673461914,-0.024380311369895935
1772789686163038200,3.6730380859375,-0.03209209442138672,0.05491805076599121,-0.024626106023788452
1772789686183138300,3.69313818359375,-0.03687000274658203,0.04038721323013306,-0.01963268220424652
1772789686203238400,3.71323828125,0.0009002685546875,0.03513443470001221,-0.015075922012329102
1772789686223338800,3.7333388671875,-0.036830902099609375,0.030349791049957275,-0.0054346174001693726
1772789686243438800,3.75343896484375,-0.051212310791015625,0.011268019676208496,-0.015007883310317993
1772789686263539000,3.7735390625,-0.036833763122558594,0.04474163055419922,-0.02451646327972412
1772789686283639300,3.793639404296875,-0.04162311553955078,0.03994518518447876,-0.0005710721015930176
1772789686303739400,3.813739501953125,-0.03683280944824219,0.030316472053527832,-0.02423308789730072
1772789686323839500,3.833839599609375,-0.013467788696289062,0.06376737356185913,-0.019421443343162537
1772789686343939600,3.853939697265625,-0.04161357879638672,0.04460495710372925,-0.014737486839294434
1772789686364039700,3.874039794921875,-0.0368194580078125,0.04459273815155029,-0.01010015606880188
1772789686384140000,3.89414013671875,-0.02722930908203125,0.0445173978805542,-0.019717305898666382
1772789686404240100,3.914240234375,-0.022439002990722656,0.05408906936645508,-0.014818280935287476
1772789686424340200,3.93434033203125,-0.0038480758666992188,0.05380779504776001,-0.03384757041931152
1772789686444440600,3.954440673828125,-0.022411346435546875,0.06335502862930298,-0.028933778405189514
1772789686484640800,3.994640869140625,-0.027184486389160156,0.039244234561920166,-0.014616772532463074
1772789686504741000,4.0147412109375,-0.02716827392578125,0.03424447774887085,-0.019177615642547607
1772789686524841200,4.03484130859375,-0.03194713592529297,0.04371076822280884,-0.019171983003616333
1772789686544941300,4.05494140625,-0.0367584228515625,0.04390585422515869,-0.01915590465068817
1772789686565041400,4.07504150390625,-0.022380828857421875,0.043853163719177246,0.000002175569534301758
1772789686585141500,4.0951416015625,-0.0038309097290039062,0.0439983606338501,0.00005544722080230713
1772789686625342000,4.135342041015625,-0.03197479248046875,0.03916311264038086,-0.024408772587776184
1772789686645442000,4.155442138671875,-0.022993087768554688,0.053507864475250244,-0.019276991486549377
1772789686665542400,4.17554248046875,-0.013415336608886719,0.04396599531173706,-0.024043947458267212
1772789686685641500,4.195641357421875,-0.013408660888671875,0.04868799448013306,-0.02881978452205658
1772789686705740500,4.215740478515625,-0.027777671813964844,0.0629691481590271,-0.018871158361434937
1772789686725840000,4.23583984375,-0.02299976348876953,0.04389530420303345,-0.02348199486732483
1772789686745939000,4.25593896484375,-0.036769866943359375,0.03909415006637573,-0.023615315556526184
1772789686766038000,4.2760380859375,-0.008629798889160156,0.04870718717575073,-0.028208523988723755
1772789686786137300,4.296137451171875,-0.01822185516357422,0.04878830909729004,-0.008822575211524963
1772789686806236400,4.316236328125,-0.03258705139160156,0.03430759906768799,-0.02301567792892456
1772789686826335700,4.336335693359375,-0.0229949951171875,0.015607476234436035,-0.02759896218776703
1772789686846434800,4.356434814453125,-0.03255271911621094,0.039290547370910645,-0.027365610003471375
1772789686866534000,4.376533935546875,-0.022971153259277344,0.04824936389923096,-0.031952694058418274
1772789686886633200,4.39663330078125,-0.018171310424804688,0.03436857461929321,-0.02224363386631012
1772789686906732300,4.416732177734375,-0.01817798614501953,0.03920179605484009,-0.012491226196289062
1772789686926831400,4.436831298828125,-0.03254890441894531,0.06729406118392944,-0.016995519399642944
1772789686946930700,4.4569306640625,-0.02296733856201172,0.03913581371307373,-0.026542842388153076
1772789686967029800,4.47702978515625,-0.03732490539550781,0.024616897106170654,-0.02174536883831024
1772789686987129000,4.497129150390625,-0.027744293212890625,0.04376208782196045,-0.021514222025871277
1772789687007228200,4.517228271484375,-0.013381004333496094,0.03368502855300903,-0.020951151847839355
1772789687027327200,4.5373271484375,-0.022367477416992188,0.04325217008590698,-0.020689740777015686
1772789687047426600,4.557426513671875,-0.01756000518798828,0.05742925405502319,-0.025186046957969666
1772789687067525600,4.577525634765625,-0.031935691833496094,0.03825408220291138,-0.024954602122306824
1772789687087624700,4.597624755859375,-0.04153728485107422,0.05758166313171387,-0.024104595184326172
1772789687107724000,4.61772412109375,-0.0223846435546875,0.024108171463012695,-0.014202892780303955
1772789687127823000,4.637822998046875,-0.02238941192626953,0.038521766662597656,-0.01892237365245819
1772789687168021500,4.678021484375,-0.008054733276367188,0.019666016101837158,-0.013637572526931763
1772789687208220000,4.718219970703125,-0.036823272705078125,0.048523783683776855,-0.01881687343120575
1772789687248418600,4.75841845703125,-0.018240928649902344,0.029170989990234375,-0.018681615591049194
1772789687268518000,4.778517822265625,-0.013446807861328125,0.038685381412506104,-0.02794720232486725
1772789687288617000,4.798616943359375,-0.03682708740234375,0.03893303871154785,-0.02325502038002014
1772789687328815600,4.838815673828125,-0.01826190948486328,0.029945552349090576,-0.023222461342811584
1772789687348915000,4.8589150390625,-0.023065567016601562,0.0444110631942749,-0.008632570505142212
1772789687369014300,4.87901416015625,-0.023046493530273438,0.03944593667984009,-0.008722513914108276
1772789687389113300,4.89911328125,-0.013455390930175781,0.029799461364746094,-0.00892069935798645
1772789687409212700,4.919212646484375,-0.018222808837890625,0.05350714921951294,-0.018430516123771667
1772789687429312000,4.93931201171875,0.00092315673828125,0.048897504806518555,-0.0046062171459198
1772789687449411300,4.959411376953125,-0.018256187438964844,0.039458394050598145,-0.028540238738059998
1772789687469510400,4.979510498046875,-0.0182647705078125,0.03471016883850098,-0.018671393394470215
1772789687489609700,4.999609619140625,-0.04221057891845703,0.04421108961105347,-0.01386280357837677
1772789687509709000,5.019708984375,-0.013455390930175781,0.029733657836914062,-0.013797789812088013
1772789687529808400,5.039808349609375,-0.018280982971191406,0.039611101150512695,-0.03259913623332977
1772789687549907700,5.05990771484375,-0.03262615203857422,0.048908531665802,-0.013418972492218018
1772789687590106000,5.100106201171875,-0.023067474365234375,0.019778668880462646,-0.012129485607147217
1772789687610205400,5.120205322265625,-0.01827716827392578,0.04850471019744873,-0.02148270606994629
1772789687630304800,5.1403046875,-0.032039642333984375,0.03878593444824219,-0.021346330642700195
1772789687650403800,5.16040380859375,-0.027252197265625,0.02443230152130127,-0.01639258861541748
1772789687690603500,5.200603515625,-0.017663955688476562,0.04821431636810303,-0.02037067711353302
1772789687730803700,5.2408037109375,-0.01763629913330078,0.05266755819320679,-0.028937190771102905
1772789687750903800,5.26090380859375,-0.027204513549804688,0.04773646593093872,-0.019275084137916565
1772789687771004000,5.28100390625,-0.008031845092773438,0.03743600845336914,-0.019090205430984497
1772789687791104000,5.30110400390625,-0.03675079345703125,0.03775370121002197,-0.020211368799209595
1772789687811204000,5.3212041015625,-0.03194141387939453,0.027959346771240234,-0.019973009824752808
1772789687831304400,5.341304443359375,0.005782127380371094,0.013614654541015625,-0.04321163892745972
1772789687851404500,5.361404541015625,-0.0038080215454101562,0.03766012191772461,-0.010323047637939453
1772789687871504600,5.381504638671875,-0.02294635772705078,0.03259962797164917,-0.014951780438423157
1772789687891604700,5.401604736328125,-0.008586883544921875,0.03753453493118286,-0.024625912308692932
1772789687911704800,5.421704833984375,-0.008563041687011719,0.051657676696777344,-0.010187357664108276
1772789687931805200,5.44180517578125,-0.013375282287597656,0.02791285514831543,-0.014920324087142944
1772789687951905300,5.4619052734375,-0.008545875549316406,0.046679675579071045,-0.024474218487739563
1772789687972005400,5.48200537109375,-0.027698516845703125,0.041808247566223145,-0.015079617500305176
1772789687992105500,5.50210546875,-0.02232837677001953,0.0275498628616333,-0.01866990327835083
1772789688012205600,5.52220556640625,-0.018136978149414062,0.02754795551300049,-0.01864151656627655
1772789688032305700,5.5423056640625,-0.008581161499023438,0.023013055324554443,-0.01855453848838806
1772789688052406000,5.562406005859375,-0.022359848022460938,0.03741985559463501,-0.02327236533164978
1772789688072506000,5.582506103515625,-0.01336669921875,0.032514333724975586,-0.013514220714569092
1772789688092606200,5.602606201171875,-0.013379096984863281,0.03260761499404907,-0.008550554513931274
1772789688112706300,5.622706298828125,-0.03674030303955078,0.04215836524963379,-0.017536789178848267
1772789688132806400,5.642806396484375,-0.013352394104003906,0.0466153621673584,-0.0030283182859420776
1772789688152906500,5.662906494140625,0.005808830261230469,0.032274842262268066,-0.017524108290672302
1772789688173006600,5.683006591796875,0.005806922912597656,0.03710228204727173,-0.007984146475791931
1772789688193106200,5.703106201171875,-0.013356208801269531,0.046647071838378906,-0.017974987626075745
1772789688213206000,5.7232060546875,-0.008555412292480469,0.017761826515197754,-0.017639070749282837
1772789688253405400,5.763405517578125,-0.02289867401123047,0.041423261165618896,-0.01769918203353882
1772789688273505300,5.78350537109375,-0.018102645874023438,0.03177666664123535,-0.007992386817932129
1772789688293605000,5.803605224609375,-0.013312339782714844,0.031763315200805664,-0.00780487060546875
1772789688313704700,5.82370458984375,-0.02288341522216797,0.022627830505371094,-0.013512298464775085
1772789688333804500,5.843804443359375,0.000476837158203125,0.027962565422058105,-0.033701092004776
1772789688353904400,5.863904296875,0.0046749114990234375,0.03801959753036499,-0.024909481406211853
1772789688374004000,5.88400390625,0.004076957702636719,0.03381669521331787,-0.030850589275360107
1772789688394103800,5.904103759765625,0.008241653442382812,0.029925227165222168,-0.0226728618144989
1772789688414203600,5.92420361328125,-0.034264564514160156,0.03520578145980835,-0.024119272828102112
1772789688434303200,5.94430322265625,-0.020491600036621094,0.031023502349853516,-0.015665024518966675
1772789688454403000,5.964403076171875,-0.016284942626953125,0.05065286159515381,-0.026541978120803833
1772789688474503000,5.9845029296875,-0.007275581359863281,0.041397273540496826,-0.01810331642627716
1772789688494602500,6.0046025390625,-0.01804637908935547,0.02633678913116455,-0.016305580735206604
1772789688514702300,6.024702392578125,-0.008478164672851562,0.012111067771911621,-0.006768867373466492
1772789688534802200,6.04480224609375,0.010702133178710938,0.040693819522857666,-0.016382664442062378
1772789688554901800,6.06490185546875,-0.02702045440673828,0.03580129146575928,-0.01605817675590515
1772789688575001600,6.085001708984375,0.0011234283447265625,0.02145141363143921,-0.0064406245946884155
1772789688595101200,6.10510107421875,-0.013238906860351562,0.016540348529815674,-0.01597195863723755
1772789688615201000,6.125200927734375,-0.01803112030029297,0.030923843383789062,-0.006324082612991333
1772789688635300900,6.14530078125,-0.02701568603515625,0.030923187732696533,-0.006132990121841431
1772789688655400700,6.165400634765625,-0.0036458969116210938,0.03077477216720581,-0.015747874975204468
1772789688675500500,6.18550048828125,-0.008416175842285156,0.030630886554718018,-0.011403307318687439
1772789688695600600,6.2056005859375,-0.017383575439453125,0.04009586572647095,-0.006871700286865234
1772789688735800800,6.24580078125,-0.008405685424804688,0.030521392822265625,-0.016213566064834595
1772789688755901000,6.26590087890625,0.0011768341064453125,0.04014468193054199,-0.011063605546951294
1772789688776001000,6.2860009765625,0.02032756805419922,0.04023987054824829,-0.006085455417633057
1772789688816201200,6.326201171875,-0.022184371948242188,0.04976999759674072,-0.006290540099143982
1772789688836301300,6.34630126953125,-0.008408546447753906,0.04018014669418335,-0.0063208043575286865
1772789688876501500,6.38650146484375,-0.008382797241210938,0.035087525844573975,-0.006052494049072266
1772789688896601600,6.4066015625,-0.022134780883789062,0.039109885692596436,-0.00636465847492218
1772789688916701700,6.42670166015625,-0.026903152465820312,0.04367053508758545,-0.0206717848777771
1772789688936801800,6.4468017578125,-0.02690410614013672,0.043697893619537354,-0.016006603837013245
1772789688956902000,6.46690185546875,0.0012445449829101562,0.038900673389434814,-0.01605360209941864
1772789688977002000,6.487001953125,-0.012500762939453125,0.0434114933013916,-0.025113090872764587
1772789688997102000,6.50710205078125,-0.026871681213378906,0.03860527276992798,-0.015553385019302368
1772789689017202200,6.5272021484375,-0.0029163360595703125,0.029033005237579346,-0.010908499360084534
1772789689037302300,6.54730224609375,0.020450592041015625,0.019330620765686035,0.0034786462783813477
1772789689057402400,6.56740234375,0.0018796920776367188,0.03375685214996338,-0.020341724157333374
1772789689077502500,6.58750244140625,-0.017289161682128906,0.03380852937698364,-0.015604153275489807
1772789689097602600,6.6076025390625,-0.01250457763671875,0.038697659969329834,-0.011595740914344788
1772789689117702700,6.62770263671875,-0.007702827453613281,0.0433574914932251,-0.02588292956352234
1772789689137802800,6.647802734375,-0.007689476013183594,0.04323852062225342,-0.016427963972091675
1772789689178002700,6.688002685546875,-0.0034999847412109375,0.034281134605407715,-0.016390442848205566
1772789689198102000,6.70810205078125,0.001285552978515625,0.03916323184967041,-0.021443724632263184
1772789689218201300,6.728201416015625,-0.0034780502319335938,0.02932870388031006,-0.02162480354309082
1772789689238301000,6.748301025390625,0.01570415496826172,0.0291898250579834,-0.01706312596797943
1772789689278499600,6.78849951171875,-0.022035598754882812,0.024509668350219727,-0.007579639554023743
1772789689318698500,6.828698486328125,-0.012475967407226562,0.024174928665161133,-0.01201695203781128
1772789689338798000,6.848798095703125,0.001873016357421875,0.033965110778808594,-0.011851802468299866
1772789689358897400,6.8688974609375,-0.012507438659667969,0.029232501983642578,-0.016468435525894165
1772789689399096300,6.909096435546875,-0.0076923370361328125,0.0385817289352417,-0.016044795513153076
1772789689419195600,6.929195556640625,0.00189208984375,0.0193936824798584,-0.011189252138137817
1772789689439295200,6.949295166015625,-0.0028982162475585938,0.014641761779785156,-0.021119818091392517
1772789689459394600,6.96939453125,-0.0076904296875,0.028423666954040527,-0.02587328851222992
1772789689479494000,6.989493896484375,-0.02145862579345703,0.028373777866363525,-0.011628523468971252
1772789689499593200,7.00959326171875,-0.012477874755859375,0.033810436725616455,-0.007478877902030945
1772789689519692800,7.02969287109375,-0.0029163360595703125,0.005283772945404053,-0.012458741664886475
1772789689539792100,7.049792236328125,-0.012505531311035156,0.029297709465026855,-0.017686977982521057
1772789689559891700,7.0698916015625,-0.007723808288574219,0.02935349941253662,-0.012712985277175903
1772789689579991000,7.089990966796875,0.010843276977539062,0.03892350196838379,-0.022305458784103394
1772789689600090400,7.11009033203125,-0.007723808288574219,0.03412675857543945,-0.022160083055496216
1772789689620190000,7.13018994140625,-0.017319679260253906,0.015101313591003418,-0.03169938921928406
1772789689640289300,7.150289306640625,-0.0029554367065429688,0.02957916259765625,-0.02225622534751892
1772789689680488200,7.19048828125,-0.012541770935058594,0.039203107357025146,-0.003091275691986084
1772789689720687000,7.23068701171875,-0.017343521118164062,0.02498173713684082,-0.012459620833396912
1772789689740786400,7.250786376953125,0.0018377304077148438,0.020003676414489746,-0.017091602087020874
1772789689760886000,7.270885986328125,-0.0029573440551757812,0.029645860195159912,-0.022029414772987366
1772789689780985300,7.2909853515625,-0.017333030700683594,0.034428179264068604,-0.01700960099697113
1772789689801084700,7.311084716796875,-0.022089004516601562,0.03888678550720215,-0.012313365936279297
1772789689821184300,7.331184326171875,-0.017286300659179688,0.03881514072418213,0.0017363131046295166
1772789689861383200,7.371383056640625,-0.02685832977294922,0.024380087852478027,-0.017727121710777283
1772789689901582000,7.41158203125,0.021059036254882812,0.02848917245864868,-0.012265756726264954
1772789689921681400,7.431681396484375,-0.0029048919677734375,0.028599560260772705,-0.012406602501869202
1772789689941781000,7.451781005859375,0.0018787384033203125,0.009534835815429688,-0.026883795857429504
1772789689961880300,7.47188037109375,0.0066852569580078125,0.03811150789260864,-0.02145656943321228
1772789689981979600,7.491979736328125,-0.012472152709960938,0.033264756202697754,-0.021572425961494446
1772789690002079200,7.512079345703125,0.006695747375488281,0.018871605396270752,-0.016964226961135864
1772789690022178600,7.532178466796875,-0.0028810501098632812,0.028406858444213867,-0.03130604326725006
1772789690042278100,7.552278076171875,0.0019073486328125,0.0284157395362854,-0.002450883388519287
1772789690062377500,7.57237744140625,-0.0029010772705078125,0.014183521270751953,-0.011730700731277466
1772789690082477000,7.59247705078125,-0.007079124450683594,0.028456509113311768,-0.007274433970451355
1772789690102576400,7.612576416015625,-0.007662773132324219,0.06187260150909424,-0.01290808618068695
1772789690122676000,7.632676025390625,-0.007649421691894531,0.03361469507217407,-0.022665604948997498
1772789690142775300,7.652775390625,-0.026813507080078125,0.04321789741516113,-0.013778641819953918
1772789690162874600,7.67287451171875,-0.0028467178344726562,0.03352320194244385,-0.03715252876281738
1772789690182975200,7.692975341796875,-0.017229080200195312,0.03360915184020996,-0.008989214897155762
1772789690203075800,7.713075927734375,-0.035780906677246094,0.04306274652481079,-0.023347988724708557
1772789690223176200,7.73317626953125,-0.007653236389160156,0.028860032558441162,-0.023228958249092102
1772789690243277000,7.753277099609375,-0.012441635131835938,0.043214499950408936,-0.028000012040138245
1772789690263377400,7.77337744140625,-0.026796340942382812,0.04781770706176758,-0.013592511415481567
1772789690303578600,7.81357861328125,0.0019483566284179688,0.04717612266540527,-0.016779810190200806
1772789690323679200,7.83367919921875,0.006747245788574219,0.032705843448638916,-0.021475687623023987
1772789690343779800,7.85377978515625,-0.016605377197265625,0.032660603523254395,-0.011805400252342224
1772789690363880400,7.87388037109375,0.0019578933715820312,0.027840256690979004,-0.03058767318725586
1772789690383981000,7.89398095703125,-0.0028028488159179688,0.032322049140930176,-0.016172364354133606
1772789690404081700,7.91408154296875,-0.011777877807617188,0.032232463359832764,-0.0065619200468063354
1772789690424182300,7.934182373046875,-0.011781692504882812,0.022677361965179443,-0.016024678945541382
1772789690444283000,7.954282958984375,-0.0069904327392578125,0.027431905269622803,-0.01579076051712036
1772789690464383500,7.974383544921875,0.0020122528076171875,0.03201931715011597,-0.020529940724372864
1772789690484484000,7.994484130859375,-0.0027570724487304688,0.04615694284439087,-0.015547037124633789
1772789690504584700,8.014584716796875,-0.021303176879882812,0.02679222822189331,-0.010699793696403503
1772789690544786000,8.054785888671875,-0.0075168609619140625,0.050647616386413574,-0.010825365781784058
1772789690564886500,8.074886474609375,0.016447067260742188,0.03611946105957031,-0.019954100251197815
1772789690584987100,8.094987060546876,0.0021038055419921875,0.026246964931488037,-0.015108093619346619
1772789690605087700,8.115087646484374,-0.03563213348388672,0.031090617179870605,-0.010252922773361206
1772789690625188400,8.135188232421875,-0.007447242736816406,0.04985547065734863,-0.010151728987693787
1772789690645289000,8.1552890625,0.0021228790283203125,0.035640835762023926,-0.0008084326982498169
1772789690665389300,8.175389404296874,-0.026030540466308594,0.026125431060791016,-0.000822901725769043
1772789690685489200,8.1954892578125,-0.011656761169433594,0.03092026710510254,-0.015260204672813416
1772789690705589000,8.215589111328125,-0.0026454925537109375,0.030615508556365967,-0.015131592750549316
1772789690725688800,8.235688720703125,-0.011620521545410156,0.04012936353683472,-0.010374471545219421
1772789690745788400,8.255788330078126,-0.0074138641357421875,0.006447970867156982,-0.0008172094821929932
1772789690765888300,8.27588818359375,-0.006793022155761719,0.02059328556060791,-0.015140146017074585
1772789690785988000,8.295988037109375,-0.0163726806640625,0.030130445957183838,-0.0005783885717391968
1772789690806088000,8.316087890625,-0.02114582061767578,0.034753620624542236,-0.005481317639350891
1772789690826187500,8.3361875,-0.021124839782714844,0.034542977809906006,-0.029406532645225525
1772789690866387200,8.37638720703125,0.0022573471069335938,0.03904426097869873,-0.010011538863182068
1772789690886486800,8.39648681640625,0.0022592544555664062,0.03420448303222656,-0.004979372024536133
1772789690906586600,8.416586669921875,-0.01629352569580078,0.029269754886627197,-0.009587734937667847
1772789690946786300,8.456786376953126,0.0023031234741210938,0.04811716079711914,-0.009573295712471008
1772789690966886000,8.476885986328124,-0.006683349609375,0.033745765686035156,-0.00936901569366455
1772789690986985700,8.49698583984375,-0.011449813842773438,0.01914536952972412,0.00018584728240966797
1772789691007085600,8.51708544921875,0.007132530212402344,0.014191746711730957,-0.013712599873542786
1772789691027185200,8.53718505859375,0.016701698303222656,0.02385467290878296,-0.01816830039024353
1772789691047285000,8.557284912109376,0.002346038818359375,0.04284566640853882,-0.013330668210983276
1772789691067384800,8.577384765625,-0.016218185424804688,-0.00030165910720825195,-0.008379608392715454
1772789691087484700,8.597484619140625,-0.007241249084472656,0.00933760404586792,-0.028759241104125977
1772789691107584300,8.617584228515625,-0.012020111083984375,0.03796517848968506,-0.009599283337593079
1772789691127684000,8.63768408203125,-0.01681041717529297,0.04750639200210571,-0.023661240935325623
1772789691147784000,8.657783935546876,-0.0024175643920898438,0.01859337091445923,-0.019118204712867737
1772789691167883500,8.677883544921874,0.016778945922851562,0.03742873668670654,-0.004748865962028503
1772789691187982600,8.697982666015625,0.0024118423461914062,0.037377119064331055,-0.009559303522109985
1772789691208081700,8.71808154296875,0.0072193145751953125,0.032382428646087646,-0.014092296361923218
1772789691228180700,8.7381806640625,-0.011943817138671875,0.023421108722686768,-0.009425878524780273
1772789691268379000,8.77837890625,-0.00235748291015625,0.02813035249710083,-0.013975933194160461
1772789691288477700,8.798477783203126,0.0024433135986328125,0.03700894117355347,-0.008538380265235901
1772789691328675800,8.83867578125,-0.0065212249755859375,0.008035242557525635,-0.021947577595710754
1772789691348775000,8.85877490234375,-0.011305809020996094,0.017537355422973633,-0.021779656410217285
1772789691368874000,8.8788740234375,-0.025682449340820312,0.036150336265563965,0.002094864845275879
1772789691388973000,8.89897314453125,0.00308990478515625,0.02154076099395752,-0.0029282420873641968
1772789691409072000,8.919072021484375,0.0031118392944335938,0.04048812389373779,-0.02211405336856842
1772789691429171200,8.939171142578125,-0.011242866516113281,0.02592015266418457,-0.012403562664985657
1772789691449270000,8.95927001953125,-0.006472587585449219,0.02130645513534546,-0.017011791467666626
1772789691469369000,8.979369140625,0.007893562316894531,-0.007391035556793213,-0.012066751718521118
1772789691509567200,9.019567138671874,-0.016065597534179688,0.03637498617172241,-0.003134503960609436
1772789691529666300,9.039666259765625,-0.0016679763793945312,0.04571843147277832,-0.007922083139419556
1772789691549765400,9.059765380859375,0.0025634765625,0.026153564453125,-0.0030766576528549194
1772789691569864400,9.079864501953125,0.016936302185058594,0.021344244480133057,-0.007718116044998169
1772789691589963300,9.09996337890625,-0.0016107559204101562,0.03072577714920044,-0.030880317091941833
1772789691610062300,9.120062255859375,-0.015954017639160156,0.030416131019592285,-0.021761879324913025
1772789691630161400,9.140161376953126,0.0026025772094726562,0.02085798978805542,-0.016480743885040283
1772789691650260500,9.160260498046876,0.007390022277832031,0.006506145000457764,-0.0211908221244812
1772789691670359800,9.18035986328125,-0.006354331970214844,0.015813827514648438,-0.021358966827392578
1772789691690459600,9.200459716796875,-0.011156082153320312,0.03447753190994263,-0.0158424973487854
1772789691710559700,9.220559814453125,0.012205123901367188,0.0152587890625,-0.020735055208206177
1772789691730659800,9.240659912109376,0.008006095886230469,0.029692888259887695,-0.006247386336326599
1772789691750759700,9.260759765625,-0.0015811920166015625,0.015364110469818115,-0.001380324363708496
1772789691770859800,9.28085986328125,-0.00634765625,0.015090703964233398,-0.020291432738304138
1772789691790959600,9.300959716796875,-0.0063343048095703125,0.010143458843231201,-0.01531730592250824
1772789691811059700,9.321059814453125,0.017015457153320312,0.03414654731750488,-0.0008622258901596069
1772789691851259600,9.361259765625,-0.01589202880859375,0.024271368980407715,-0.010477706789970398
1772789691871359700,9.38135986328125,-0.02065277099609375,0.023970723152160645,-0.0008828490972518921
1772789691891459800,9.4014599609375,0.007504463195800781,0.019662678241729736,-0.019962862133979797
1772789691911559700,9.4215595703125,0.002719879150390625,0.019587814807891846,-0.024635478854179382
1772789691951760000,9.461759765625,-0.011036872863769531,0.019432127475738525,-0.006172403693199158
1772789691971859700,9.481859619140625,-0.015799522399902344,0.01437842845916748,-0.020039349794387817
1772789691991959800,9.501959716796875,-0.006217002868652344,0.019131779670715332,-0.010837078094482422
1772789692012059600,9.5220595703125,0.002750396728515625,0.0192488431930542,-0.015365645289421082
1772789692032159700,9.54215966796875,-0.0062351226806640625,0.01926600933074951,-0.01531316339969635
1772789692052259800,9.562259765625,-0.011015892028808594,0.023898720741271973,0.004321768879890442
1772789692072359700,9.582359619140625,-0.015811920166015625,0.028727233409881592,-0.014745146036148071
1772789692092459800,9.602459716796876,-0.010985374450683594,0.01824718713760376,-0.009702906012535095
1772789692112559600,9.6225595703125,-0.0061817169189453125,0.022886157035827637,-0.004209160804748535
1772789692152759800,9.662759765625,0.008175849914550781,0.023042798042297363,-0.004209607839584351
1772789692172859600,9.682859619140626,-0.0013990402221679688,0.027771592140197754,0.005328059196472168
1772789692192959700,9.702959716796874,-0.01096343994140625,0.013220012187957764,0.0005520135164260864
1772789692213059800,9.723059814453125,-0.01574230194091797,0.022697746753692627,0.00044971704483032227
1772789692253260000,9.763260009765625,-0.0013256072998046875,0.012631416320800781,-0.027855470776557922
1772789692273360100,9.783360107421874,-0.006131172180175781,0.012763679027557373,-0.01339772343635559
1772789692293460200,9.803460205078125,-0.010939598083496094,0.012948691844940186,-0.008652359247207642
1772789692313560300,9.823560302734375,0.0034236907958984375,-0.0013604164123535156,-0.01797713339328766
1772789692353760500,9.863760498046876,-0.010956764221191406,0.032213449478149414,-0.017697378993034363
1772789692373860600,9.883860595703124,-0.0013570785522460938,0.027204394340515137,-0.012645110487937927
1772789692393960700,9.903960693359375,-0.02050018310546875,0.026986420154571533,-0.012472502887248993
1772789692434161000,9.944160888671876,0.0034732818603515625,0.017193377017974854,-0.021847814321517944
1772789692454260700,9.9642607421875,-0.020473480224609375,0.031494319438934326,-0.0028033852577209473
1772789692474360800,9.98436083984375,-0.010882377624511719,0.04098552465438843,-0.021896421909332275
1772789692494461000,10.0044609375,0.017854690551757812,0.04105871915817261,-0.021826550364494324
1772789692514561000,10.02456103515625,0.01309967041015625,0.021539151668548584,0.0021792203187942505
1772789692534661000,10.0446611328125,-0.024614334106445312,0.01182854175567627,0.0020475834608078003
1772789692554761200,10.06476123046875,-0.019838333129882812,0.021570026874542236,0.0019322484731674194
1772789692574861300,10.084861328125,0.0035181045532226562,0.026414215564727783,-0.00330391526222229
1772789692594961400,10.10496142578125,-0.0012598037719726562,0.035863399505615234,-0.0033010542392730713
1772789692615061500,10.1250615234375,-0.001239776611328125,0.03089749813079834,-0.012447506189346313
1772789692635161600,10.14516162109375,-0.00604248046875,0.011870324611663818,-0.007867291569709778
1772789692655261700,10.16526171875,-0.015011787414550781,0.011741220951080322,-0.007848113775253296
1772789692695460900,10.2054609375,0.008336067199707031,0.00703197717666626,-0.003768220543861389
1772789692715560200,10.225560302734374,-0.0012426376342773438,0.01658111810684204,-0.02771112322807312
1772789692735659500,10.245659423828124,-0.006022453308105469,0.006885111331939697,-0.013258367776870728
1772789692755758800,10.2657587890625,-0.001239776611328125,0.002149522304534912,-0.003464341163635254
1772789692775858400,10.2858583984375,-0.010828018188476562,0.01181483268737793,-0.0035815387964248657
1772789692795957800,10.305957763671875,-0.0060253143310546875,0.03563857078552246,-0.008326128125190735
1772789692836156400,10.346156494140626,-0.006031990051269531,0.04048985242843628,-0.003528118133544922
1772789692856256000,10.366256103515624,-0.015605926513671875,0.021277785301208496,-0.01807171106338501
1772789692876355300,10.386355224609375,0.0035486221313476562,0.026119112968444824,0.0013862550258636475
1772789692896454700,10.40645458984375,0.022729873657226562,0.020540297031402588,-0.012287288904190063
1772789692936653600,10.446653564453126,0.017972946166992188,0.034610092639923096,0.0066862404346466064
1772789692976852200,10.486852294921874,-0.010109901428222656,0.019652903079986572,-0.0032274872064590454
1772789692996951600,10.50695166015625,0.008469581604003906,0.024292409420013428,-0.0025441497564315796
1772789693017051100,10.527051025390625,0.0036649703979492188,-0.009107768535614014,-0.002589687705039978
1772789693037150500,10.547150390625,-0.010099411010742188,0.024321794509887695,0.0023462921380996704
1772789693057249800,10.567249755859375,0.008487701416015625,0.009726345539093018,-0.026389941573143005
1772789693077349000,10.58734912109375,-0.005279541015625,0.004879891872406006,-0.021716833114624023
1772789693097448700,10.60744873046875,-0.001079559326171875,0.01438140869140625,-0.003143981099128723
1772789693117548000,10.627548095703125,-0.005858421325683594,0.019079983234405518,-0.012964949011802673
1772789693137647400,10.6476474609375,-0.010039329528808594,0.023768603801727295,-0.008133232593536377
1772789693157747000,10.667746826171875,0.008522987365722656,0.014214932918548584,-0.013006091117858887
1772789693177846000,10.687845947265625,-0.005843162536621094,0.009357631206512451,-0.0034369677305221558
1772789693218044200,10.728044189453126,-0.005805015563964844,0.018608450889587402,-0.008507966995239258
1772789693238143200,10.748143310546874,0.0037946701049804688,0.023190796375274658,-0.008256688714027405
1772789693258242300,10.7682421875,-0.0009813308715820312,0.018260419368743896,0.0012431591749191284
1772789693278341400,10.78834130859375,-0.005761146545410156,0.0037873387336730957,-0.008369386196136475
1772789693298440400,10.8084404296875,-0.005179405212402344,-0.0008375644683837891,-0.003031224012374878
1772789693318539500,10.82853955078125,-0.024362564086914062,0.02332305908203125,-0.0030401796102523804
1772789693338638600,10.848638671875,-0.005202293395996094,0.028159141540527344,-0.012781903147697449
1772789693358737700,10.868737548828125,-0.01955699920654297,0.013595104217529297,0.011319488286972046
1772789693378836700,10.888836669921876,-0.024347305297851562,0.03273206949234009,-0.002904444932937622
1772789693398936000,10.90893603515625,-0.014800071716308594,0.02829134464263916,-0.012611135840415955
1772789693419035000,10.929034912109374,-0.005198478698730469,0.03289824724197388,-0.017442256212234497
1772789693439134000,10.949134033203125,-0.00039005279541015625,0.02316451072692871,0.011091694235801697
1772789693459233300,10.9692333984375,-0.005156517028808594,-0.005815625190734863,-0.003308594226837158
1772789693499431400,11.009431396484375,-0.005749702453613281,0.027691304683685303,0.005438894033432007
1772789693519530500,11.029530517578126,-0.005747795104980469,0.032461464405059814,-0.004101678729057312
1772789693539629600,11.049629638671876,-0.009940147399902344,0.01327204704284668,0.0009784996509552002
1772789693559728600,11.069728759765624,-0.01053619384765625,0.004286468029022217,0.010355234146118164
1772789693579827700,11.08982763671875,-0.010531425476074219,0.018620789051055908,0.0006923526525497437
1772789693599926800,11.1099267578125,-0.024285316467285156,0.023198187351226807,0.0056191980838775635
1772789693620025900,11.13002587890625,-0.010497093200683594,0.013482749462127686,0.0008258074522018433
1772789693640125000,11.150125,-0.010478973388671875,0.013300836086273193,0.005679503083229065
1772789693660224000,11.17022412109375,0.00872039794921875,0.0225222110748291,-0.01344938576221466
1772789693680322800,11.19032275390625,0.003930091857910156,0.0033596158027648926,-0.00451226532459259
1772789693700421400,11.21042138671875,-0.02901172637939453,0.007584929466247559,0.0015236586332321167
1772789693720519700,11.230519775390626,-0.019414901733398438,0.007469594478607178,-0.0035556405782699585
1772789693740618500,11.250618408203126,-0.009824752807617188,0.007402300834655762,-0.013199180364608765
1772789693760717000,11.270717041015626,-0.00025844573974609375,-0.01639789342880249,-0.003712266683578491
1772789693780815400,11.2908154296875,-0.019430160522460938,0.007611751556396484,0.0012369602918624878
1772789693800914000,11.310913818359374,0.004511833190917969,0.0029509663581848145,0.0012971162796020508
1772789693821012700,11.3310126953125,0.004504203796386719,-0.006591081619262695,-0.012880399823188782
1772789693841111000,11.351111083984375,0.004521369934082031,0.012422442436218262,-0.0033212751150131226
1772789693861209600,11.371209716796875,0.009308815002441406,0.01724374294281006,0.0020846128463745117
1772789693901406700,11.41140673828125,-0.014618873596191406,0.03134793043136597,-0.0033477693796157837
1772789693921505300,11.43150537109375,-0.005023002624511719,0.012066483497619629,-0.003521248698234558
1772789693941603800,11.451603759765625,-0.005003929138183594,0.026242733001708984,-0.008249253034591675
1772789693961702400,11.471702392578125,-0.004998207092285156,0.011822879314422607,-0.0034809410572052
1772789693981801000,11.491801025390625,-0.005002021789550781,0.01663917303085327,-0.0034296363592147827
1772789694001899500,11.5118994140625,-0.019367218017578125,0.02617722749710083,-0.00841858983039856
1772789694021998000,11.531998046875,-0.00020503997802734375,0.011803805828094482,-0.008308380842208862
1772789694042096600,11.5520966796875,0.013553619384765625,0.02151787281036377,-0.008124634623527527
1772789694062195200,11.5721953125,0.01833343505859375,0.00726318359375,0.0013500005006790161
1772789694082293800,11.592293701171876,-0.00023365020751953125,0.02643805742263794,-0.017709881067276
1772789694102392300,11.612392333984374,0.009341239929199219,0.007285594940185547,-0.012520134449005127
1772789694122491000,11.632490966796874,-0.000244140625,0.02167898416519165,-0.007578164339065552
1772789694142589400,11.65258935546875,-0.014598846435546875,0.011939465999603271,-0.02210746705532074
1772789694182787000,11.692787109375,0.013529777526855469,0.02166879177093506,-0.007456913590431213
1772789694202886100,11.71288623046875,-0.019399642944335938,0.007193326950073242,-0.021757259964942932
1772789694222985200,11.732985107421875,-0.014606475830078125,-0.011961042881011963,-0.012310519814491272
1772789694243084500,11.75308447265625,0.00457763671875,-0.0026078224182128906,-0.016916707158088684
1772789694283282700,11.79328271484375,0.0045909881591796875,0.016415894031524658,-0.007247030735015869
1772789694303381800,11.8133818359375,0.013577461242675781,0.02118980884552002,-0.006796777248382568
1772789694323481000,11.833481201171875,-0.004978179931640625,0.021050572395324707,-0.0016254931688308716
1772789694343580200,11.853580078125,-0.014567375183105469,0.011510074138641357,-0.001375928521156311
1772789694363679200,11.87367919921875,-0.014536857604980469,0.03459024429321289,-0.020689114928245544
1772789694403877600,11.913877685546876,-0.009734153747558594,0.011180877685546875,0.0027256906032562256
1772789694423976700,11.933976806640626,-0.014513015747070312,0.01106351613998413,0.002687022089958191
1772789694444075800,11.95407568359375,0.009432792663574219,0.02012777328491211,-0.0068135857582092285
1772789694464175000,11.974175048828124,-0.004929542541503906,-0.003340423107147217,-0.006775394082069397
1772789694484274200,11.994274169921875,-0.01929950714111328,-0.008147716522216797,-0.011619627475738525
1772789694504373200,12.014373291015625,0.004067420959472656,0.01091998815536499,-0.003247663378715515
1772789694544571600,12.054571533203125,0.008858680725097656,0.006072998046875,-0.00778806209564209
1772789694584769800,12.094769775390626,-0.0006885528564453125,0.015338599681854248,-0.012656867504119873
1772789694604869000,12.114869140625,-0.0054683685302734375,0.01522129774093628,-0.01268094778060913
1772789694624968200,12.13496826171875,-0.009649276733398438,0.01993262767791748,-0.003189772367477417
1772789694645067300,12.1550673828125,0.01372528076171875,0.02931290864944458,-0.007906943559646606
1772789694665166300,12.175166259765625,-0.0006704330444335938,0.0013458728790283203,-0.01717674732208252
1772789694685267000,12.195266845703125,-0.00547027587890625,0.0014197230339050293,-0.012290403246879578
1772789694705367300,12.2153671875,-0.00009441375732421875,0.005131542682647705,-0.020411550998687744
1772789694725468000,12.235468017578125,0.014276504516601562,0.014753758907318115,-0.006297498941421509
1772789694745568500,12.255568603515625,-0.004886627197265625,0.005184829235076904,0.003119423985481262
1772789694765669000,12.275669189453126,-0.004881858825683594,0.0051427483558654785,-0.0016459226608276367
1772789694785769500,12.29576953125,-0.009655952453613281,0.004999101161956787,-0.02097390592098236
1772789694805870000,12.3158701171875,-0.009652137756347656,0.004956364631652832,-0.020352065563201904
1772789694846071000,12.356071044921874,0.019095420837402344,0.009688198566436768,-0.0008585900068283081
1772789694866171600,12.376171630859375,-0.009632110595703125,0.019087791442871094,-0.015185937285423279
1772789694886272300,12.396272216796875,-0.00005245208740234375,0.019121408462524414,-0.0111619234085083
1772789694906372900,12.416372802734376,0.004740715026855469,0.004757225513458252,-0.01609775424003601
1772789694926473200,12.43647314453125,0.004742622375488281,0.02388530969619751,-0.0015998035669326782
1772789694946573800,12.45657373046875,-0.000057220458984375,0.019176900386810303,-0.025544092059135437
1772789694966674400,12.47667431640625,-0.009653091430664062,0.009747326374053955,-0.011271417140960693
1772789694986774800,12.49677490234375,0.004746437072753906,0.023876488208770752,-0.006660684943199158
1772789695006875400,12.51687548828125,0.009549140930175781,0.009404540061950684,-0.01157696545124054
1772789695026976000,12.53697607421875,-0.004825592041015625,0.01424020528793335,-0.002172902226448059
1772789695047076600,12.55707666015625,-0.000019073486328125,-0.009273171424865723,-0.01654849946498871
1772789695067177000,12.577177001953125,0.004734039306640625,-0.009505987167358398,-0.006885141134262085
1772789695087277600,12.597277587890625,-0.004853248596191406,0.014485716819763184,-0.002009943127632141
1772789695107378200,12.617378173828126,-0.023392677307128906,0.023815274238586426,-0.0020412951707839966
1772789695127478500,12.637478515625,-0.014380455017089844,0.009180068969726562,-0.01179555058479309
1772789695147579100,12.6575791015625,0.000003814697265625,0.03302502632141113,-0.011675789952278137
1772789695167679700,12.6776796875,0.0000152587890625,0.013754308223724365,0.002528861165046692
1772789695187779800,12.69777978515625,0.00481414794921875,0.013688445091247559,-0.021410509943962097
1772789695207880200,12.717880126953125,-0.014339447021484375,0.027958214282989502,-0.01667429506778717
1772789695227980500,12.73798046875,-0.009523391723632812,0.037317872047424316,-0.00719866156578064
1772789695248081000,12.758080810546875,-0.00473785400390625,-0.000985264778137207,-0.0070288777351379395
1772789695288281300,12.79828125,-0.0185089111328125,-0.0010167360305786133,-0.011244788765907288
1772789695308381700,12.818381591796875,0.004832267761230469,-0.005660653114318848,-0.02076031267642975
1772789695328482000,12.83848193359375,-0.004736900329589844,-0.0009979009628295898,-0.0016391128301620483
1772789695348582400,12.85858251953125,-0.00891876220703125,0.02287578582763672,-0.006475463509559631
1772789695368682500,12.8786826171875,0.014434814453125,0.01333528757095337,-0.0018721669912338257
1772789695388782800,12.898782958984375,0.0000553131103515625,0.022989869117736816,-0.006760120391845703
1772789695408883200,12.91888330078125,0.00487518310546875,0.013140320777893066,-0.006892696022987366
1772789695428983600,12.938983642578124,0.00008487701416015625,0.013132095336914062,-0.006863459944725037
1772789695449083600,12.959083740234375,-0.013693809509277344,0.02755880355834961,-0.00156344473361969
1772789695469184000,12.97918408203125,0.0000743865966796875,0.022240281105041504,-0.011203557252883911
1772789695489284400,12.999284423828126,0.014433860778808594,0.01335841417312622,-0.016397371888160706
1772789695509384700,13.019384765625,0.0000362396240234375,-0.0007742643356323242,-0.006807699799537659
1772789695529484800,13.03948486328125,0.023984909057617188,0.01842784881591797,-0.0162460058927536
1772789695549585200,13.059585205078125,-0.00954437255859375,0.018403232097625732,-0.002170950174331665
1772789695569685500,13.079685546875,-0.009541511535644531,0.023157894611358643,-0.002750203013420105
1772789695589785900,13.099785888671875,0.00482177734375,0.013671517372131348,-0.01173052191734314
1772789695609886200,13.11988623046875,-0.004750251770019531,0.008775413036346436,-0.016484856605529785
1772789695629986300,13.139986328125,-0.018514633178710938,-0.0057190656661987305,-0.021626383066177368
1772789695650086700,13.160086669921874,0.000026702880859375,0.008916378021240234,-0.007512837648391724
1772789695670186800,13.180186767578125,0.00005435943603515625,0.027778446674346924,0.0023360848426818848
1772789695690285800,13.200285888671875,0.009634971618652344,0.013391077518463135,-0.0070820152759552
1772789695710385000,13.220385009765625,-0.037659645080566406,0.02282482385635376,0.0024002492427825928
1772789695750583300,13.260583251953125,0.0048503875732421875,0.013341128826141357,0.002488180994987488
1772789695770682400,13.280682373046876,-0.009518623352050781,-0.001056671142578125,-0.00243552029132843
1772789695790781400,13.300781494140624,0.00006198883056640625,-0.005804300308227539,-0.0026769638061523438
1772789695810880800,13.320880859375,0.009627342224121094,-0.0008706450462341309,-0.007331326603889465
1772789695830979800,13.340979736328125,0.009633064270019531,-0.000949859619140625,-0.012008130550384521
1772789695851079000,13.361078857421875,-0.01912212371826172,0.008687853813171387,-0.006863251328468323
1772789695871178200,13.38117822265625,-0.009523391723632812,0.03246647119522095,-0.021081969141960144
1772789695891277300,13.40127734375,0.009659767150878906,0.017866015434265137,-0.010692164301872253
1772789695911376400,13.42137646484375,-0.013686180114746094,0.008229672908782959,-0.0013755857944488525
1772789695931475500,13.441475341796876,-0.0046863555908203125,-0.0015294551849365234,-0.010878682136535645
1772789695951574800,13.46157470703125,0.014475822448730469,0.003275930881500244,0.008245736360549927
1772789695991773000,13.50177294921875,-0.023217201232910156,0.012537837028503418,-0.02011871337890625
1772789696011872300,13.521872314453125,-0.004046440124511719,0.017253637313842773,-0.005691260099411011
1772789696031971300,13.541971435546875,-0.013630867004394531,0.012505292892456055,0.0037879347801208496
1772789696052070400,13.5620703125,-0.004055976867675781,0.026389241218566895,-0.010939374566078186
1772789696072169500,13.58216943359375,-0.004052162170410156,0.012007355690002441,-0.011183306574821472
1772789696092268800,13.602268798828124,-0.008833885192871094,0.0071707963943481445,-0.011406674981117249
1772789696112367900,13.622367919921874,0.0055408477783203125,-0.012035250663757324,0.003069669008255005
1772789696132467000,13.642467041015625,0.009732246398925781,0.011919140815734863,-0.011270582675933838
1772789696152566300,13.662566162109375,0.009746551513671875,0.016588926315307617,-0.006636172533035278
1772789696172665000,13.6826650390625,0.005562782287597656,-0.0026450753211975098,-0.011471763253211975
1772789696192764000,13.702763916015625,-0.013594627380371094,-0.0026687979698181152,-0.011772006750106812
1772789696212862500,13.722862548828125,0.005574226379394531,0.026034832000732422,-0.0022127777338027954
1772789696232961000,13.7429609375,-0.018401145935058594,0.00708317756652832,-0.01613454520702362
1772789696253059800,13.763059814453126,0.0055675506591796875,0.021320581436157227,-0.011278793215751648
1772789696293257200,13.80325732421875,-0.013606071472167969,0.007675766944885254,-0.012810751795768738
1772789696313355800,13.823355712890624,0.009756088256835938,-0.0019837021827697754,0.006480157375335693
1772789696353553400,13.863553466796875,0.024102210998535156,0.017384886741638184,-0.002690225839614868
1772789696373652000,13.88365185546875,-0.004641532897949219,0.012583136558532715,-0.017133966088294983
1772789696393750500,13.90375048828125,-0.013613700866699219,0.007640957832336426,-0.021514564752578735
1772789696413849300,13.923849365234375,0.00018024444580078125,0.012261033058166504,-0.007290855050086975
1772789696454046700,13.964046630859375,0.0049877166748046875,0.0025119781494140625,-0.012042567133903503
1772789696474145300,13.984145263671875,0.009784698486328125,0.012036442756652832,-0.016904622316360474
1772789696494244000,14.004244140625,-0.0039844512939453125,0.006605744361877441,-0.006718948483467102
1772789696514342700,14.0243427734375,0.01458740234375,-0.007823407649993896,-0.011632040143013
1772789696534441500,14.04444140625,0.0008172988891601562,0.0017341375350952148,-0.016459882259368896
1772789696574638800,14.084638916015624,-0.003966331481933594,0.0064694881439208984,-0.011232629418373108
1772789696594737400,14.1047373046875,-0.008774757385253906,0.0066307783126831055,-0.011168420314788818
1772789696614836200,14.124836181640624,-0.027932167053222656,0.020912766456604004,-0.006124168634414673
1772789696634934800,14.144934814453125,-0.0135498046875,0.03038156032562256,-0.015577778220176697
1772789696655033600,14.16503369140625,-0.003989219665527344,0.01141977310180664,-0.005998015403747559
1772789696675133000,14.1851328125,-0.00878143310546875,-0.012476682662963867,-0.01110677421092987
1772789696695233300,14.2052333984375,-0.01836872100830078,0.00257265567779541,-0.011907413601875305
1772789696735434000,14.24543408203125,-0.013578414916992188,-0.007008969783782959,-0.012491166591644287
1772789696775634700,14.285634765625,0.024160385131835938,0.012058615684509277,-0.012507572770118713
1772789696795735000,14.305735107421874,0.009784698486328125,-0.0022796988487243652,-0.01737886667251587
1772789696815835400,14.32583544921875,-0.00457763671875,0.01675856113433838,-0.0028131604194641113
1772789696835935700,14.345935791015625,-0.008785247802734375,-0.0022169947624206543,-0.012609496712684631
1772789696856036000,14.3660361328125,-0.008790016174316406,-0.02139568328857422,-0.012100130319595337
1772789696896236800,14.40623681640625,0.0049991607666015625,0.016748547554016113,0.007361188530921936
1772789696916337200,14.426337158203125,-0.013566017150878906,0.001794576644897461,-0.006581023335456848
1772789696956537900,14.466537841796875,-0.013566017150878906,0.006584525108337402,-0.01616130769252777
1772789696976638200,14.48663818359375,-0.008755683898925781,0.015984535217285156,-0.011420086026191711
1772789696996738600,14.506738525390626,-0.003963470458984375,0.0015860795974731445,-0.011418476700782776
1772789697016839000,14.5268388671875,0.0008115768432617188,0.006534457206726074,-0.0017863363027572632
1772789697036939300,14.546939208984375,0.005593299865722656,0.016211390495300293,-0.0017638206481933594
1772789697057039600,14.56703955078125,-0.018362045288085938,0.016182303428649902,-0.015959978103637695
1772789697077140000,14.587139892578126,-0.01836681365966797,-0.0029535889625549316,-0.001445487141609192
1772789697097240300,14.607240234375,0.010367393493652344,0.001965761184692383,0.0032557249069213867
1772789697117340700,14.627340576171875,-0.004025459289550781,0.01234745979309082,-0.0015599727630615234
1772789697157541400,14.667541259765626,0.00015544891357421875,0.012443304061889648,-0.02062976360321045
1772789697177641000,14.687640869140624,0.00015926361083984375,0.021990537643432617,-0.016410812735557556
1772789697197740300,14.707740234375,-0.013608932495117188,0.012346863746643066,-0.006850376725196838
1772789697217839400,14.72783935546875,-0.004590034484863281,0.0071974992752075195,-0.011550456285476685
1772789697237938700,14.747938720703125,0.0002002716064453125,0.0024260282516479492,-0.0020908862352371216
1772789697258038000,14.7680380859375,-0.008770942687988281,0.021504640579223633,-0.0023332983255386353
1772789697278137000,14.78813720703125,-0.008742332458496094,0.01165318489074707,-0.0071806758642196655
1772789697298236400,14.808236328125,0.00499725341796875,-0.011973142623901367,-0.01670457422733307
1772789697318335700,14.828335693359374,-0.003985404968261719,0.006592750549316406,-0.025744587182998657
1772789697338434800,14.848434814453125,-0.008749961853027344,0.011116981506347656,-0.011218905448913574
1772789697358534100,14.8685341796875,0.0008172988891601562,0.0016598701477050781,-0.01537276804447174
1772789697398732500,14.908732666015625,-0.013545989990234375,0.006374359130859375,-0.010636582970619202
1772789697418832000,14.928831787109376,0.005629539489746094,0.015828847885131836,-0.010548725724220276
1772789697438931000,14.948930908203126,0.0008325576782226562,0.011077523231506348,-0.015228629112243652
1772789697459030300,14.9690302734375,-0.013533592224121094,0.015787124633789062,-0.01990126073360443
1772789697479129600,14.989129638671875,-0.0039501190185546875,0.00620722770690918,-0.0008961856365203857
1772789697519328000,15.029327880859375,0.01941967010498047,0.006062746047973633,-0.020552396774291992
1772789697559526400,15.0695263671875,0.014615058898925781,0.0014139413833618164,-0.020005270838737488
1772789697579625700,15.089625732421876,0.0008516311645507812,-0.0035008788108825684,-0.006088942289352417
1772789697599724800,15.109724853515624,0.0008497238159179688,-0.003468930721282959,-0.0013722479343414307
1772789697619824000,15.12982421875,-0.008721351623535156,-0.01315009593963623,-0.015155866742134094
1772789697639923500,15.14992333984375,0.0008440017700195312,-0.008217275142669678,-0.015066742897033691
1772789697660022500,15.1700224609375,-0.013529777526855469,-0.008230865001678467,-0.0011377036571502686
1772789697680121600,15.19012158203125,-0.01830291748046875,0.005982875823974609,-0.006016150116920471
1772789697720320300,15.2303203125,0.0009031295776367188,0.024775028228759766,-0.0009636878967285156
1772789697740419300,15.25041943359375,0.005702018737792969,0.015119075775146484,-0.0008969157934188843
1772789697760518700,15.2705185546875,0.010484695434570312,0.019980311393737793,-0.010484665632247925
1772789697780618000,15.290617919921875,-0.008660316467285156,0.010229706764221191,-0.005724221467971802
1772789697800717000,15.310717041015625,-0.023032188415527344,-0.008945763111114502,-0.005787119269371033
1772789697820816400,15.33081640625,-0.008654594421386719,-0.009003818035125732,-0.020004794001579285
1772789697861014800,15.371014892578126,-0.023015975952148438,0.010027050971984863,-0.010332271456718445
1772789697881114000,15.391114013671874,-0.008654594421386719,0.0005120038986206055,-0.00032560527324676514
1772789697901213400,15.41121337890625,-0.008640289306640625,0.03392040729522705,-0.0051536113023757935
1772789697921312500,15.4313125,0.000942230224609375,0.0051305294036865234,-0.005510881543159485
1772789697961511200,15.47151123046875,-0.008600234985351562,0.00954735279083252,-0.010394811630249023
1772789697981610200,15.4916103515625,-0.0037975311279296875,-0.0001741647720336914,-0.02458369731903076
1772789698001709600,15.51170947265625,0.009982109069824219,0.00935065746307373,-0.005444943904876709
1772789698021808600,15.53180859375,-0.008573532104492188,-0.00509411096572876,-0.010275155305862427
1772789698041908000,15.551907958984375,-0.0037946701049804688,0.009382247924804688,-0.0007063150405883789
1772789698062007300,15.57200732421875,0.0009918212890625,0.004644870758056641,-0.005476042628288269
1772789698082106400,15.5921064453125,-0.008582115173339844,-0.009788334369659424,-0.019955098628997803
1772789698102205700,15.612205810546875,-0.008570671081542969,0.0044863224029541016,-0.0105162113904953
1772789698122305000,15.632304931640626,0.0057830810546875,0.019038796424865723,-0.005672156810760498
1772789698142404000,15.652404052734376,0.0009832382202148438,-0.004830539226531982,-0.00566081702709198
1772789698162503400,15.67250341796875,0.014787673950195312,0.004452705383300781,-0.0056183189153671265
1772789698182602500,15.6926025390625,0.014760017395019531,-0.00010800361633300781,-0.005376905202865601
1772789698202701300,15.712701416015625,0.014760971069335938,0.00952136516571045,-0.0058132559061050415
1772789698222800400,15.73280029296875,-0.013376235961914062,-0.004979193210601807,-0.01992151141166687
1772789698242899500,15.7528994140625,0.0052032470703125,0.004455685615539551,-0.005490809679031372
1772789698262998500,15.77299853515625,-0.00379180908203125,-0.0002117156982421875,-0.010361984372138977
1772789698283097300,15.793097412109375,0.0010204315185546875,-0.0003974437713623047,-0.020065397024154663
1772789698303196400,15.813196533203126,-0.0037641525268554688,0.013902425765991211,-0.0008926987648010254
1772789698323295500,15.83329541015625,-0.0037479400634765625,0.0041686296463012695,-0.005755141377449036
1772789698343394600,15.85339453125,-0.0037755966186523438,0.023600220680236816,-0.010474726557731628
1772789698363493400,15.873493408203124,-0.0037841796875,-0.0002816915512084961,-0.015238761901855469
1772789698383592400,15.893592529296875,0.019598960876464844,0.004260420799255371,-0.005686253309249878
1772789698403691500,15.91369140625,0.0010251998901367188,0.018708109855651855,-0.010411188006401062
1772789698443889400,15.953889404296875,-0.013337135314941406,0.004221200942993164,-0.010331615805625916
1772789698463988500,15.973988525390626,-0.022902488708496094,0.01362144947052002,-0.014326885342597961
1772789698484087600,15.994087646484376,0.0010557174682617188,0.01838207244873047,-0.01912131905555725
1772789698504186600,16.0141865234375,0.0010576248168945312,0.00879824161529541,-0.019297271966934204
1772789698524285400,16.034285400390626,-0.02770519256591797,-0.0054435133934021,-0.0046556442975997925
1772789698544384500,16.054384521484376,-0.0037641525268554688,0.0090789794921875,-0.00957578420639038
1772789698564483600,16.074483642578127,0.005805015563964844,0.004401803016662598,-0.019056856632232666
1772789698584582700,16.094582763671873,0.0058078765869140625,-0.01003044843673706,-0.028323352336883545
1772789698604681500,16.114681396484375,-0.027130126953125,0.009120583534240723,-0.018700212240219116
1772789698624780500,16.134780517578125,-0.018136024475097656,0.009003996849060059,-0.013911724090576172
1772789698644879600,16.154879638671876,0.0010280609130859375,0.018609166145324707,-0.009272098541259766
1772789698685078800,16.195078857421876,-0.0038022994995117188,0.018957138061523438,-0.004165902733802795
1772789698725279200,16.235279296875,0.024351119995117188,0.009312868118286133,0.0005957633256912231
1772789698745379300,16.25537939453125,-0.0037813186645507812,0.009145617485046387,-0.00881502777338028
1772789698765479400,16.2754794921875,-0.0037994384765625,-0.0002620220184326172,0.005606032907962799
1772789698785579800,16.295579833984377,-0.003795623779296875,0.009260058403015137,0.001022137701511383
1772789698805679900,16.315679931640624,-0.008593559265136719,0.014082551002502441,-0.002858661115169525
1772789698825780200,16.3357802734375,-0.017584800720214844,0.014164924621582031,-0.0028716325759887695
1772789698845880300,16.35588037109375,-0.013375282287597656,0.01338803768157959,0.0019666850566864014
1772789698865980700,16.375980712890627,-0.008571624755859375,0.008487224578857422,-0.0029305443167686462
1772789698886080800,16.396080810546874,0.001026153564453125,-0.005457937717437744,-0.012413688004016876
1772789698906181000,16.41618115234375,-0.0037584304809570312,-0.0013533830642700195,-0.002615019679069519
1772789698926281200,16.43628125,-0.008556365966796875,-0.005454838275909424,0.006230957806110382
1772789698946381300,16.45638134765625,0.0010318756103515625,-0.005529463291168213,-0.003288745880126953
1772789698966481700,16.476481689453124,-0.008554458618164062,-0.000662684440612793,0.0012852251529693604
1772789699006682000,16.51668212890625,0.0010662078857421875,-0.005808651447296143,-0.009133055806159973
1772789699026782200,16.5367822265625,-0.008522987365722656,0.01821291446685791,-0.013786092400550842
1772789699046882600,16.556882568359374,0.005878448486328125,0.017927885055541992,-0.008968636393547058
1772789699087082800,16.597082763671875,-0.008479118347167969,0.008165478706359863,-0.013519242405891418
1772789699127283200,16.637283203125,-0.008471488952636719,0.007499575614929199,0.002006158232688904
1772789699147383600,16.657383544921874,-0.017462730407714844,0.007565736770629883,-0.007479071617126465
1772789699167483600,16.677483642578125,-0.008486747741699219,0.021964550018310547,-0.011977672576904297
1772789699187582500,16.69758251953125,-0.012677192687988281,0.0171586275100708,-0.011943243443965912
1772789699207681000,16.717680908203125,-0.0036802291870117188,-0.006947934627532959,0.0025069713592529297
1772789699227779800,16.73777978515625,0.015472412109375,0.017104744911193848,-0.01172678917646408
1772789699247878700,16.757878662109373,-0.0036687850952148438,0.01688563823699951,0.002629503607749939
1772789699267977500,16.7779775390625,-0.01744365692138672,0.02169954776763916,-0.002305261790752411
1772789699288076300,16.798076171875,-0.012656211853027344,0.007393240928649902,0.0023075416684150696
1772789699308175000,16.818175048828124,0.02027416229248047,-0.006916821002960205,-0.020951807498931885
1772789699328274000,16.83827392578125,0.0011157989501953125,-0.006410419940948486,-0.0069049447774887085
1772789699348372700,16.858372802734376,-0.03183174133300781,-0.0063210129737854,0.002656698226928711
1772789699368471300,16.87847119140625,-0.0036954879760742188,0.012349724769592285,-0.011736944317817688
1772789699388570000,16.898570068359376,0.010656356811523438,-0.001223444938659668,-0.016493625938892365
1772789699408669000,16.9186689453125,0.010641098022460938,-0.010684311389923096,0.002870336174964905
1772789699428767700,16.938767822265625,0.025032997131347656,0.0029169321060180664,-0.01158057153224945
1772789699448866600,16.958866455078127,-0.017488479614257812,-0.0012930631637573242,-0.01611395925283432
1772789699468965400,16.97896533203125,-0.03189563751220703,0.008009076118469238,0.0031900331377983093
1772789699489064200,16.999064208984375,0.0010366439819335938,0.022411346435546875,0.017757341265678406
1772789699529261600,17.039261474609376,0.005837440490722656,-0.0010544061660766602,-0.006673343479633331
1772789699549360400,17.0593603515625,-0.018123626708984375,0.008588433265686035,-0.016274601221084595
1772789699569459200,17.079459228515624,-0.0037565231323242188,-0.01051098108291626,-0.01633482426404953
1772789699589558000,17.09955810546875,0.010639190673828125,0.0036851167678833008,-0.007068939507007599
1772789699609656800,17.11965673828125,0.015439033508300781,0.0036139488220214844,-0.0023979246616363525
1772789699629755600,17.139755615234375,0.0058441162109375,0.013356208801269531,-0.0074517130851745605
1772789699649854200,17.159854248046877,-0.013329505920410156,0.018234729766845703,-0.012267634272575378
1772789699669953000,17.179953125,-0.02710437774658203,0.0038781166076660156,-0.016997091472148895
1772789699690051800,17.2000517578125,-0.013319969177246094,0.0037436485290527344,-0.007187753915786743
1772789699710150700,17.220150634765623,0.010639190673828125,-0.0010579824447631836,-0.0026980265974998474
1772789699730249500,17.24024951171875,-0.003139495849609375,0.0031614303588867188,0.0034337714314460754
1772789699750348000,17.26034814453125,-0.007925033569335938,-0.006471812725067139,-0.02052547037601471
1772789699770446800,17.28044677734375,-0.0222930908203125,-0.0017499923706054688,-0.010761462152004242
1772789699790545700,17.300545654296876,0.010655403137207031,0.017302989959716797,0.0036394894123077393
1772789699810644500,17.32064453125,0.010678291320800781,0.017086029052734375,-0.001146361231803894
1772789699830743300,17.340743408203124,-0.0030698776245117188,0.012035965919494629,-0.0053220391273498535
1772789699850842000,17.360842041015626,-0.007869720458984375,0.01149284839630127,-0.005056105554103851
1772789699891039500,17.40103955078125,-0.0031003952026367188,-0.017061710357666016,0.009431876242160797
1772789699911138300,17.42113818359375,0.0065059661865234375,0.01626110076904297,-0.009875349700450897
1772789699931237000,17.441237060546875,-0.013254165649414062,0.01745295524597168,-0.011802859604358673
1772789699951336000,17.4613359375,-0.0036678314208984375,0.012603044509887695,0.0025979653000831604
1772789699971434500,17.4814345703125,-0.01804065704345703,0.007776975631713867,-0.006637856364250183
1772789700011632000,17.521632080078124,-0.008500099182128906,-0.010978519916534424,-0.01140853762626648
1772789700031731000,17.54173095703125,0.0010957717895507812,0.008045554161071777,-0.0066217780113220215
1772789700051829800,17.561829833984376,0.0011043548583984375,0.0031775236129760742,-0.00670323520898819
1772789700071928300,17.58192822265625,-0.0036973953247070312,-0.0015230178833007812,-0.011400677263736725
1772789700092027100,17.602027099609376,0.010080337524414062,0.022410154342651367,-0.012133963406085968
1772789700112126000,17.6221259765625,-0.0037126541137695312,0.008256316184997559,-0.002837233245372772
1772789700132224800,17.642224853515625,0.0016574859619140625,-0.0017278194427490234,0.003804124891757965
1772789700152323600,17.662323486328123,0.0016469955444335938,0.003140091896057129,-0.009861648082733154
1772789700172422700,17.682422607421874,-0.0079345703125,-0.0016633272171020508,-0.00018408149480819702
1772789700192522800,17.702522705078124,-0.0031604766845703125,-0.011672556400299072,-0.005006439983844757
1772789700212622800,17.722622802734374,0.011218070983886719,0.007404923439025879,-0.019161731004714966
1772789700232723000,17.742722900390625,0.00164794921875,0.01687037944793701,-0.009535260498523712
1772789700252822800,17.76282275390625,-0.007940292358398438,-0.002250075340270996,-0.004652462899684906
1772789700272923000,17.7829228515625,0.011223793029785156,-0.0022552013397216797,0.005608230829238892
1772789700293023000,17.80302294921875,-0.007941246032714844,0.007342934608459473,0.000742793083190918
1772789700313123000,17.823123046875,0.011219024658203125,0.012195587158203125,-0.009000875055789948
1772789700333223200,17.84322314453125,0.02021312713623047,-0.005859553813934326,-0.010924436151981354
1772789700353323300,17.8633232421875,0.015420913696289062,-0.005863487720489502,-0.0012402236461639404
1772789700373423400,17.88342333984375,-0.0037126541137695312,0.012987494468688965,-0.006467118859291077
1772789700413623300,17.923623291015623,-0.008511543273925781,0.013072013854980469,0.007849283516407013
1772789700433723400,17.943723388671874,-0.01807689666748047,-0.006251275539398193,-0.01139424741268158
1772789700453823500,17.963823486328124,-0.013299942016601562,-0.0060974955558776855,-0.01146814227104187
1772789700473923600,17.983923583984375,0.014880180358886719,0.012757420539855957,0.0027972087264060974
1772789700494023700,18.004023681640625,0.001110076904296875,-0.001676321029663086,-0.0066266730427742004
1772789700514123800,18.024123779296875,-0.0036745071411132812,0.007826447486877441,-0.006474792957305908
1772789700534223600,18.0442236328125,0.005913734436035156,0.026943325996398926,0.003056563436985016
1772789700554323700,18.06432373046875,-0.0036725997924804688,0.01257169246673584,-0.0014756694436073303
1772789700574423800,18.084423828125,0.0011157989501953125,0.007797718048095703,-0.010991774499416351
1772789700594524000,18.10452392578125,0.0010995864868164062,-0.006416022777557373,-0.006184659898281097
1772789700614624000,18.1246240234375,0.01485443115234375,0.01291966438293457,-0.0018945187330245972
1772789700634723800,18.144723876953126,0.0058746337890625,0.0033075809478759766,-0.006683506071567535
1772789700654824200,18.16482421875,-0.0037107467651367188,-0.0014318227767944336,-0.011679120361804962
1772789700695024400,18.2050244140625,0.0011014938354492188,-0.0016258955001831055,-0.006964392960071564
1772789700715124700,18.225124755859376,0.0011014938354492188,0.016928672790527344,0.003963731229305267
1772789700735225000,18.24522509765625,-0.007875442504882812,-0.002309441566467285,-0.005646988749504089
1772789700775425800,18.28542578125,-0.01744556427001953,0.011965274810791016,0.003829576075077057
1772789700795526100,18.305526123046874,0.0058994293212890625,0.026450037956237793,-0.005084246397018433
1772789700815626500,18.32562646484375,0.015484809875488281,0.002478957176208496,-0.0004105567932128906
1772789700835726800,18.345726806640624,-0.0030651092529296875,0.007133007049560547,-0.010156750679016113
1772789700855827000,18.365826904296874,0.0059032440185546875,-0.007127225399017334,0.0044970884919166565
1772789700875927300,18.38592724609375,0.010701179504394531,0.0023834705352783203,0.014088332653045654
1772789700896027600,18.406027587890627,-0.022218704223632812,-0.00256955623626709,0.004384055733680725
1772789700916128000,18.4261279296875,-0.007852554321289062,0.011858344078063965,-0.009871408343315125
1772789700936228400,18.446228271484376,0.0017404556274414062,0.006914019584655762,0.004829101264476776
1772789700956328700,18.46632861328125,-0.007830619812011719,0.006814837455749512,-0.000025779008865356445
1772789700976429000,18.486428955078125,-0.0030164718627929688,0.006624579429626465,0.0003113970160484314
1772789700996529200,18.506529052734376,-0.01738739013671875,0.005981326103210449,0.0053151920437812805
1772789701016629500,18.52662939453125,0.0017910003662109375,0.015438556671142578,0.0052238330245018005
1772789701036729900,18.546729736328125,0.006575584411621094,0.0011504888534545898,0.00020406395196914673
1772789701076930600,18.5869306640625,-0.0173492431640625,0.020017504692077637,-0.0045516714453697205
1772789701097031000,18.607031005859376,-0.007729530334472656,-0.0043288469314575195,0.00041288137435913086
1772789701117131300,18.62713134765625,-0.012501716613769531,0.0008717775344848633,-0.00008231401443481445
1772789701137231600,18.647231689453125,-0.007718086242675781,0.015279173851013184,-0.009393580257892609
1772789701157331700,18.667331787109376,0.00606536865234375,-0.003996372222900391,-0.00438448041677475
1772789701177431600,18.687431640625,-0.0028924942016601562,0.0005491971969604492,0.00041272491216659546
1772789701197531100,18.70753125,0.001308441162109375,0.0005326271057128906,0.00945688784122467
1772789701217630700,18.727630615234375,0.0013132095336914062,0.0052765607833862305,0.004052795469760895
1772789701237730000,18.74772998046875,0.02047252655029297,-0.009037315845489502,-0.0008616223931312561
1772789701277929200,18.78792919921875,-0.02684307098388672,0.014966726303100586,0.008691251277923584
1772789701298028500,18.808028564453124,-0.0034704208374023438,-0.004368901252746582,-0.0008421018719673157
1772789701318128000,18.828128173828127,-0.0034542083740234375,0.00029027462005615234,0.003770112991333008
1772789701338227700,18.848227783203125,0.01093292236328125,0.009719371795654297,0.013454660773277283
1772789701358327000,18.8683271484375,0.010954856872558594,0.01906907558441162,0.004059262573719025
1772789701378426600,18.888426513671874,0.010941505432128906,-0.014348983764648438,-0.010268054902553558
1772789701398526200,18.908526123046876,0.010935783386230469,0.00005984306335449219,-0.005316004157066345
1772789701418625500,18.92862548828125,0.0013523101806640625,0.009636282920837402,0.009274914860725403
1772789701438725000,18.94872509765625,-0.0034284591674804688,-0.008973538875579834,0.004022315144538879
1772789701458824700,18.96882470703125,0.0013437271118164062,-0.003993511199951172,-0.0008357837796211243
1772789701478924000,18.988924072265625,0.001373291015625,0.023859858512878418,0.00886177271604538
1772789701499023600,19.009023681640624,-0.008202552795410156,0.010023355484008789,-0.0013219267129898071
1772789701519123200,19.029123291015626,-0.012408256530761719,-0.0006265640258789062,0.0005096867680549622
1772789701559322000,19.069322021484375,-0.01718425750732422,0.018338918685913086,-0.018272921442985535
1772789701579421400,19.08942138671875,0.0019884109497070312,0.018263697624206543,0.005597434937953949
1772789701599521000,19.10952099609375,-0.002796173095703125,-0.0009237527847290039,0.005257710814476013
1772789701619620600,19.12962060546875,-0.0027933120727539062,0.0038814544677734375,0.0007961839437484741
1772789701639720000,19.149719970703124,0.0020036697387695312,-0.01053464412689209,0.0006396248936653137
1772789701679918800,19.1899189453125,-0.007549285888671875,0.017962336540222168,0.005144767463207245
1772789701720117200,19.2301171875,0.020607948303222656,-0.0054999589920043945,0.004000224173069
1772789701740216600,19.250216552734376,-0.012331962585449219,-0.000737309455871582,0.00923418253660202
1772789701760316000,19.27031591796875,-0.007552146911621094,0.008948087692260742,0.008604966104030609
1772789701780415200,19.290415283203124,0.011018753051757812,-0.010263383388519287,-0.010633759200572968
1772789701800514300,19.310514404296875,0.015825271606445312,0.013529181480407715,-0.010515935719013214
1772789701820613600,19.330613525390625,0.015857696533203125,-0.010732114315032959,-0.0009782016277313232
1772789701840713000,19.350712890625,-0.008100509643554688,-0.010677516460418701,-0.01548110693693161
1772789701880911400,19.390911376953124,-0.01711559295654297,0.0039604902267456055,-0.000819668173789978
1772789701901010700,19.4110107421875,-0.008119583129882812,-0.009918510913848877,-0.010485567152500153
1772789701921109800,19.43110986328125,0.0020732879638671875,-0.010668814182281494,0.014325909316539764
1772789701941209000,19.451208984375,-0.012310028076171875,-0.0057871341705322266,0.004776366055011749
1772789701961308400,19.471308349609377,-0.012291908264160156,-0.0011706352233886719,0.0006094202399253845
1772789701981407500,19.491407470703123,0.0068492889404296875,0.008029699325561523,0.010239705443382263
1772789702021606100,19.531606201171876,-0.012337684631347656,-0.006103634834289551,0.010050840675830841
1772789702041705200,19.551705322265626,-0.0027570724487304688,-0.006061553955078125,0.0002012103796005249
1772789702061804500,19.571804443359376,-0.002750396728515625,0.0034856796264648438,0.009577177464962006
1772789702081903900,19.59190380859375,-0.012327194213867188,0.008221745491027832,-0.004720322787761688
1772789702102003200,19.612003173828125,-0.017096519470214844,0.012791872024536133,-0.004630938172340393
1772789702122102300,19.632102294921875,-0.012299537658691406,-0.01061636209487915,-0.0004961863160133362
1772789702142201600,19.65220166015625,0.020628929138183594,-0.0009472370147705078,0.008504576981067657
1772789702162301000,19.672301025390624,0.0014505386352539062,0.008742213249206543,-0.0008251070976257324
1772789702182399200,19.692399169921874,-0.007523536682128906,-0.0009154081344604492,-0.010509617626667023
1772789702202497500,19.71249755859375,-0.007525444030761719,0.003889799118041992,-0.0104450061917305
1772789702222595800,19.732595947265626,0.015827178955078125,-0.010473549365997314,-0.0293913334608078
1772789702242694400,19.7526943359375,0.0014581680297851562,-0.015297293663024902,-0.005448661744594574
1772789702262792700,19.772792724609374,-0.0033311843872070312,0.01821446418762207,-0.005444638431072235
1772789702282891000,19.79289111328125,0.006253242492675781,0.018192768096923828,-0.005393698811531067
1772789702302989300,19.8129892578125,0.0014562606811523438,0.0038884878158569336,-0.0007671862840652466
1772789702323087600,19.833087646484376,-0.0027475357055664062,-0.0007700920104980469,-0.00033414363861083984
1772789702343186000,19.85318603515625,0.0014438629150390625,-0.005570888519287109,-0.0193503275513649
1772789702363284200,19.8732841796875,-0.012341499328613281,0.008906245231628418,-0.019266344606876373
1772789702383382800,19.8933828125,-0.0027675628662109375,0.008958697319030762,-0.009506911039352417
1772789702403481000,19.913481201171876,-0.007548332214355469,-0.0007479190826416016,-0.014157108962535858
1772789702443677700,19.953677734375,-0.0075550079345703125,-0.015064358711242676,-0.00446850061416626
1772789702463776000,19.97377587890625,0.010985374450683594,-0.0004496574401855469,-0.00448308140039444
1772789702483874300,19.993874267578125,-0.021936416625976562,-0.005417346954345703,-0.004299551248550415
1772789702503972600,20.01397265625,0.015793800354003906,-0.01980644464492798,0.0005151629447937012
1772789702524071000,20.03407080078125,0.006237030029296875,0.00868070125579834,0.0006749406456947327
1772789702544169200,20.054169189453123,0.006256103515625,-0.005857944488525391,-0.009090729057788849
1772789702564267800,20.074267822265625,0.006262779235839844,0.0036907196044921875,0.005042634904384613
1772789702584366000,20.094365966796875,0.0020799636840820312,0.003605484962463379,-0.009383462369441986
1772789702604464400,20.11446435546875,-0.007489204406738281,0.013072371482849121,0.004901021718978882
1772789702624562700,20.134562744140624,-0.007473945617675781,0.003351569175720215,0.014409087598323822
1772789702644661000,20.154660888671874,-0.007473945617675781,-0.0062408447265625,-0.009478442370891571
1772789702664759300,20.17475927734375,0.002105712890625,-0.0014185905456542969,-0.014292620122432709
1772789702684857600,20.194857666015626,-0.01227569580078125,-0.01094585657119751,0.005048662424087524
1772789702704956200,20.2149560546875,-0.007480621337890625,0.008218884468078613,0.004767850041389465
1772789702725054500,20.235054443359374,-0.002689361572265625,-0.0061304569244384766,-0.00022736191749572754
1772789702745152800,20.25515283203125,-0.007491111755371094,0.017884016036987305,-0.004687882959842682
1772789702765251300,20.275251220703126,-0.0027074813842773438,-0.005991339683532715,0.004799790680408478
1772789702785349600,20.295349609375,-0.0027303695678710938,-0.005759835243225098,-0.000039264559745788574
1772789702805448000,20.315447998046874,0.0014410018920898438,0.008809447288513184,-0.004792653024196625
1772789702825546500,20.33554638671875,0.011034965515136719,0.003916382789611816,-0.00012302398681640625
1772789702845644800,20.355644775390626,0.006275177001953125,0.0036020278930664062,-0.000014193356037139893
1772789702865743000,20.3757431640625,-0.012305259704589844,0.008532881736755371,-0.009540200233459473
1772789702885841700,20.395841552734375,-0.0075054168701171875,0.01803267002105713,-0.000009588897228240967
1772789702926038300,20.436038330078127,-0.007498741149902344,-0.005960583686828613,-0.0001619085669517517
1772789702946136800,20.45613671875,-0.02187633514404297,-0.0011119842529296875,0.009281836450099945
1772789702966235100,20.476235107421875,-0.007494926452636719,0.013193726539611816,0.009141616523265839
1772789703006432000,20.516431884765623,0.0020427703857421875,-0.0007288455963134766,0.000012822449207305908
1772789703026530300,20.5365302734375,0.0020360946655273438,-0.010222136974334717,-0.00974641740322113
1772789703046628600,20.556628662109375,-0.007555961608886719,-0.014909982681274414,0.014087691903114319
1772789703066727000,20.576726806640625,-0.007573127746582031,-0.005201458930969238,-0.00471506267786026
1772789703086825500,20.596825439453124,0.006787300109863281,-0.0008740425109863281,-0.009562306106090546
1772789703106923800,20.616923828125,-0.017154693603515625,-0.005816936492919922,0.004948906600475311
1772789703127022000,20.63702197265625,0.015787124633789062,-0.014795780181884766,0.008832663297653198
1772789703147120600,20.65712060546875,0.006787300109863281,-0.009863078594207764,0.013844579458236694
1772789703167219000,20.677218994140624,-0.007563591003417969,-0.005297183990478516,0.009075544774532318
1772789703207419100,20.717419189453125,0.01580524444580078,-0.010227859020233154,0.004420019686222076
1772789703247619300,20.757619384765626,0.0020294189453125,-0.0006394386291503906,-0.009821966290473938
1772789703267719400,20.777719482421876,-0.012364387512207031,-0.014805912971496582,-0.019435405731201172
1772789703287819500,20.797819580078126,-0.012366294860839844,0.004351496696472168,-0.004904665052890778
1772789703307919600,20.817919677734373,0.001979827880859375,0.00460970401763916,0.019088774919509888
1772789703328019700,20.838019775390624,-0.01720905303955078,0.009637951850891113,-0.000024713575839996338
1772789703348119800,20.858119873046874,-0.012411117553710938,0.004788398742675781,0.004677511751651764
1772789703368220000,20.878219970703125,-0.0028181076049804688,-0.0049288272857666016,0.004865832626819611
1772789703388320000,20.898320068359375,0.010983467102050781,0.009171724319458008,-0.004678741097450256
1772789703408420000,20.918420166015625,-0.0027751922607421875,0.013828277587890625,-0.00472983717918396
1772789703428520200,20.938520263671876,-0.017137527465820312,-0.0006405115127563477,-0.009580180048942566
1772789703448620300,20.958620361328126,-0.007540702819824219,0.00398862361907959,0.009659133851528168
1772789703468720400,20.978720458984377,0.011051177978515625,0.01333630084991455,-0.00008559972047805786
1772789703488820500,20.998820556640624,-0.012310028076171875,0.008579611778259277,-0.004672497510910034
1772789703529020700,21.039020751953124,0.006859779357910156,-0.02022653818130493,-0.0094551220536232
1772789703549120800,21.059120849609375,-0.017083168029785156,-0.025135040283203125,0.004877343773841858
1772789703589321000,21.099321044921876,0.011081695556640625,-0.0013856887817382812,-0.018845491111278534
1772789703609421000,21.119421142578126,-0.0026912689208984375,0.01779007911682129,0.019305631518363953
1772789703649621200,21.159621337890623,-0.007485389709472656,0.017818570137023926,0.014550663530826569
1772789703669721300,21.179721435546874,-0.0027055740356445312,0.036499738693237305,0.00966278463602066
1772789703689821400,21.199821533203124,0.002109527587890625,0.01290881633758545,0.009779691696166992
1772789703709921300,21.21992138671875,-0.007495880126953125,-0.02518641948699951,-0.004680640995502472
1772789703730021400,21.240021484375,0.0020771026611328125,0.007806062698364258,-0.0038195252418518066
1772789703750121500,21.26012158203125,0.0020608901977539062,-0.024946093559265137,-0.008817441761493683
1772789703790321400,21.3003212890625,0.011638641357421875,-0.011165142059326172,-0.013370893895626068
1772789703810421500,21.32042138671875,-0.0027189254760742188,-0.0017260313034057617,0.005706846714019775
1772789703830521600,21.340521484375,-0.002719879150390625,0.003080129623413086,0.005727715790271759
1772789703850621700,21.36062158203125,-0.0075016021728515625,-0.0018171072006225586,0.001070179045200348
1772789703870721800,21.3807216796875,-0.002685546875,0.021876931190490723,0.0012058764696121216
1772789703890821600,21.400821533203125,-0.0026721954345703125,0.04088270664215088,-0.008156195282936096
1772789703931021800,21.441021728515626,-0.01702117919921875,-0.0018925666809082031,-0.018159575760364532
1772789703951122000,21.461121826171876,0.002132415771484375,-0.02095109224319458,-0.013392038643360138
1772789703971221800,21.4812216796875,-0.0026445388793945312,-0.001928091049194336,-0.0085531547665596
1772789703991321900,21.50132177734375,-0.026569366455078125,0.0025969743728637695,0.0008513405919075012
1772789704011422000,21.521421875,-0.026563644409179688,-0.0022416114807128906,-0.013573557138442993
1772789704031522000,21.54152197265625,0.0021829605102539062,-0.026215553283691406,0.0008728280663490295
1772789704051622000,21.561621826171876,0.006361961364746094,-0.016471385955810547,0.005370154976844788
1772789704071722000,21.581721923828123,0.002170562744140625,-0.016469120979309082,0.00530155748128891
1772789704091822000,21.601822021484374,0.006342887878417969,-0.016289710998535156,0.0006810426712036133
1772789704132022000,21.64202197265625,0.020691871643066406,0.016861915588378906,-0.017784491181373596
1772789704152122000,21.6621220703125,0.00214385986328125,0.01189279556274414,0.0062808990478515625
1772789704172222000,21.682221923828124,-0.012219429016113281,0.02137160301208496,-0.012833833694458008
1772789704192321000,21.702321044921874,0.00215911865234375,0.006938934326171875,-0.0032188668847084045
1772789704212420000,21.722420166015624,0.0069599151611328125,0.011659622192382812,0.011576972901821136
1772789704232519200,21.742519287109374,-0.002643585205078125,-0.021701574325561523,0.002221442759037018
1772789704252618200,21.7626181640625,0.006936073303222656,0.007088661193847656,-0.007513202726840973
1772789704272717300,21.78271728515625,-0.002635955810546875,-0.002579927444458008,-0.00757233053445816
1772789704292816400,21.80281640625,0.006937980651855469,0.0023211240768432617,-0.0030512213706970215
1772789704312915500,21.82291552734375,0.011742591857910156,-0.012215852737426758,-0.007607415318489075
1772789704333014500,21.8430146484375,0.0021562576293945312,-0.012172102928161621,0.0013597682118415833
1772789704353113600,21.863113525390624,0.0069370269775390625,0.021472811698913574,0.0012920796871185303
1772789704373212700,21.883212646484374,0.002105712890625,0.002677440643310547,-0.017682500183582306
1772789704393311700,21.903311767578124,0.00206756591796875,0.007822751998901367,0.006445534527301788
1772789704413410800,21.923410888671874,-0.0027494430541992188,-0.024882078170776367,-0.003071628510951996
1772789704433510000,21.943510009765625,0.015791893005371094,-0.019866645336151123,0.006595298647880554
1772789704453609000,21.96360888671875,-0.0027799606323242188,-0.001238703727722168,0.011352688074111938
1772789704473708000,21.9837080078125,-0.021928787231445312,0.012994885444641113,-0.0030658170580863953
1772789704493807000,22.00380712890625,0.011569023132324219,-0.0009976625442504883,0.006491437554359436
1772789704513906200,22.02390625,0.006786346435546875,0.008512616157531738,-0.007846035063266754
1772789704534005200,22.044005126953124,-0.0027971267700195312,-0.0010683536529541016,0.011377684772014618
1772789704554104300,22.064104248046874,-0.012394905090332031,-0.020076513290405273,0.0113382488489151
1772789704574203400,22.084203369140624,-0.012406349182128906,-0.005573749542236328,0.0016181021928787231
1772789704614401800,22.12440185546875,-0.012394905090332031,-0.0008714199066162109,-0.003397725522518158
1772789704654599700,22.164599609375,0.02530193328857422,-0.005364656448364258,0.0014710426330566406
1772789704674698800,22.18469873046875,0.0067386627197265625,-0.014954149723052979,-0.008116178214550018
1772789704714896000,22.224895751953124,0.006730079650878906,0.004252910614013672,0.006597675383090973
1772789704755092700,22.2650927734375,-0.002872467041015625,-0.0003540515899658203,0.0018545836210250854
1772789704775191300,22.28519140625,-0.02682209014892578,0.013971090316772461,0.001888282597064972
1772789704795289900,22.305289794921876,0.001926422119140625,0.009157299995422363,0.006673537194728851
1772789704835487000,22.345487060546876,-0.02200031280517578,0.008892178535461426,-0.003009684383869171
1772789704855585500,22.36558544921875,0.011551856994628906,0.003937721252441406,-0.002872936427593231
1772789704875684000,22.38568408203125,-0.002773284912109375,0.013065695762634277,0.006609514355659485
1772789704895782700,22.40578271484375,-0.0027856826782226562,0.008354783058166504,-0.007400080561637878
1772789704915881200,22.425881103515625,0.011600494384765625,0.008233070373535156,-0.012299470603466034
1772789704935979500,22.4459794921875,-0.0027637481689453125,-0.001448988914489746,0.011802226305007935
1772789704956078000,22.466078125,-0.012331008911132812,0.017609477043151855,0.00681731104850769
1772789704976176600,22.4861767578125,-0.01714324951171875,0.003432035446166992,0.002043887972831726
1772789704996275200,22.506275146484374,-0.002773284912109375,-0.015685737133026123,-0.002940066158771515
1772789705016373800,22.526373779296875,-0.0075511932373046875,-0.0014522075653076172,0.01156366616487503
1772789705036472300,22.546472412109374,-0.00275421142578125,0.0032759904861450195,0.002062566578388214
1772789705056571000,22.56657080078125,-0.007542610168457031,0.012807846069335938,0.002190105617046356
1772789705076669400,22.58666943359375,-0.0027494430541992188,0.012826323509216309,0.01626337319612503
1772789705096767700,22.606767822265624,-0.0123291015625,0.008009672164916992,0.006795525550842285
1772789705116866300,22.6268662109375,-0.021902084350585938,0.007875561714172363,-0.002531088888645172
1772789705136964900,22.64696484375,0.0020475387573242188,-0.01543736457824707,0.016833916306495667
1772789705157063400,22.6670634765625,0.011606216430664062,-0.020013630390167236,0.01199708878993988
1772789705177162800,22.687162841796876,-0.0075664520263671875,-0.010351359844207764,-0.011848315596580505
1772789705197262600,22.7072626953125,-0.0075473785400390625,-0.006349802017211914,-0.01658490300178528
1772789705217362400,22.727362548828125,-0.021956443786621094,-0.0054280757904052734,-0.002078518271446228
1772789705257562400,22.767562255859374,-0.007610321044921875,0.00379180908203125,0.007814183831214905
1772789705277662200,22.787662109375,-0.007603645324707031,-0.000493168830871582,0.012811675667762756
1772789705297762000,22.807761962890623,-0.002819061279296875,0.00855708122253418,-0.0015793442726135254
1772789705317862000,22.82786181640625,-0.012414932250976562,-0.01047515869140625,0.0038752183318138123
1772789705337961700,22.847961669921876,-0.011811256408691406,-0.00572359561920166,-0.000988505780696869
1772789705358061800,22.868061767578126,0.011530876159667969,0.008786439895629883,0.0037063807249069214
1772789705378161700,22.88816162109375,-0.011800765991210938,-0.010612010955810547,-0.005778111517429352
1772789705398261500,22.908261474609375,0.00678253173828125,-0.010789871215820312,0.01338796317577362
1772789705418361300,22.928361328125,0.011568069458007812,0.00840616226196289,-0.009910345077514648
1772789705438461200,22.948461181640624,0.0019636154174804688,-0.0009613037109375,-0.00021029263734817505
1772789705458561300,22.968561279296875,-0.021381378173828125,0.003111600875854492,0.009477756917476654
1772789705478661000,22.9886611328125,-0.011798858642578125,0.0031006336212158203,0.00952640175819397
1772789705498761000,23.008760986328124,0.00678253173828125,0.022104740142822266,-0.00005694478750228882
1772789705518860800,23.02886083984375,-0.011775970458984375,0.01303112506866455,-0.01956993341445923
1772789705538960600,23.048960693359376,-0.00278472900390625,-0.015773355960845947,0.00895441323518753
1772789705559060700,23.069060791015627,-0.007573127746582031,-0.006226301193237305,0.004164405167102814
1772789705579160600,23.08916064453125,0.006781578063964844,0.00350344181060791,-0.0002721846103668213
1772789705599260400,23.109260498046876,0.02594280242919922,-0.015605270862579346,-0.010141201317310333
1772789705619360300,23.1293603515625,-0.011798858642578125,-0.005904197692871094,-0.00048758089542388916
1772789705639460000,23.149460205078125,0.006772041320800781,0.008397221565246582,0.004460819065570831
1772789705659560200,23.169560302734375,0.006777763366699219,-0.01083993911743164,-0.0001849830150604248
1772789705679659800,23.18965966796875,-0.0069980621337890625,-0.006031632423400879,-0.005053170025348663
1772789705699759400,23.20975927734375,-0.02613544464111328,0.0033228397369384766,0.013958871364593506
1772789705719859000,23.22985888671875,0.011593818664550781,0.008094072341918945,0.018238820135593414
1772789705739958800,23.249958740234376,0.0020170211791992188,0.012848258018493652,0.008573703467845917
1772789705760058400,23.270058349609375,-0.035709381103515625,0.017632246017456055,0.013140983879566193
1772789705780158000,23.290157958984373,-0.012370109558105469,0.0034563541412353516,0.00814170390367508
1772789705800257500,23.310257568359376,0.020587921142578125,-0.006309866905212402,-0.0015680566430091858
1772789705820357000,23.330357177734374,-0.0027723312377929688,-0.006291627883911133,-0.010996125638484955
1772789705840456700,23.350456787109376,0.00200653076171875,-0.0013409852981567383,-0.011289693415164948
1772789705860556500,23.370556640625,-0.002788543701171875,-0.006114602088928223,-0.006352655589580536
1772789705880656100,23.39065625,0.011610984802246094,0.012822389602661133,0.0029207542538642883
1772789705920855300,23.430855224609374,-0.007541656494140625,-0.011250615119934082,0.008401013910770416
1772789705940955000,23.450954833984376,0.0068187713623046875,-0.006335854530334473,0.003686681389808655
1772789705961054500,23.471054443359375,-0.007572174072265625,0.008219599723815918,0.01789197325706482
1772789706001254000,23.51125390625,0.021193504333496094,0.003283858299255371,0.022391341626644135
1772789706021353500,23.531353515625,-0.016523361206054688,-0.01599353551864624,0.01267610490322113
1772789706041453000,23.551453125,-0.01653766632080078,0.008089900016784668,0.008000843226909637
1772789706061552600,23.571552734375,-0.007548332214355469,0.0032378435134887695,-0.006393276154994965
1772789706081652200,23.59165234375,0.0020275115966796875,-0.01586669683456421,-0.011134572327136993
1772789706121851600,23.6318515625,0.006810188293457031,-0.0013922452926635742,0.017383888363838196
1772789706162050800,23.67205078125,-0.01235198974609375,0.008198857307434082,0.002820640802383423
1772789706202248400,23.71224853515625,-0.007525444030761719,-0.0017403364181518555,-0.0018817037343978882
1772789706222347300,23.73234716796875,-0.0212860107421875,-0.0018453598022460938,-0.011663272976875305
1772789706242446000,23.752446044921875,-0.007506370544433594,0.012489795684814453,0.007357321679592133
1772789706262544600,23.772544677734373,-0.011685371398925781,-0.00203859806060791,0.012361668050289154
1772789706282643500,23.7926435546875,-0.00270843505859375,0.002795696258544922,0.002910427749156952
1772789706302742300,23.8127421875,0.0020837783813476562,-0.001984238624572754,-0.002009935677051544
1772789706322841000,23.832841064453124,0.0068721771240234375,0.00765836238861084,-0.016712568700313568
1772789706363038500,23.87303857421875,0.0020694732666015625,-0.006608843803405762,0.00254841148853302
1772789706383137300,23.89313720703125,-0.012298583984375,0.012528777122497559,0.011937052011489868
1772789706403236000,23.913236083984376,-0.0027246475219726562,-0.006554961204528809,0.007139801979064941
1772789706423335000,23.9333349609375,-0.0027399063110351562,-0.0016481876373291016,0.002585984766483307
1772789706443433500,23.95343359375,-0.00751495361328125,-0.006570100784301758,-0.011994808912277222
1772789706463532300,23.9735322265625,0.0068531036376953125,-0.001711726188659668,0.002297714352607727
1772789706483631000,23.993631103515625,0.02601146697998047,-0.01124417781829834,0.006979331374168396
1772789706503730000,24.01372998046875,0.006840705871582031,-0.011147856712341309,0.006812103092670441
1772789706523828500,24.033828369140625,-0.017096519470214844,-0.0065402984619140625,0.006349235773086548
1772789706543927300,24.05392724609375,0.0020513534545898438,0.003147125244140625,0.001943245530128479
1772789706564026000,24.074026123046874,-0.012312889099121094,0.012646675109863281,-0.007592745125293732
1772789706584125000,24.094125,0.0020656585693359375,-0.0017632246017456055,0.011349506676197052
1772789706604223500,24.114223388671874,0.006846427917480469,-0.02020663022994995,0.0016152113676071167
1772789706624322300,24.134322265625,0.002044677734375,0.003855466842651367,0.0016030818223953247
1772789706644421000,24.154421142578126,0.0068225860595703125,-0.0008177757263183594,0.010633386671543121
1772789706664520000,24.17452001953125,-0.0075359344482421875,-0.005741119384765625,0.010512933135032654
1772789706684618800,24.19461865234375,-0.007538795471191406,0.003838777542114258,-0.00358012318611145
1772789706704717600,24.214717529296873,-0.007552146911621094,0.008770108222961426,0.0011169910430908203
1772789706724816400,24.23481640625,-0.002777099609375,-0.0012416839599609375,0.006403692066669464
1772789706744915200,24.254915283203125,0.0067901611328125,0.022869586944580078,0.0015236660838127136
1772789706785112800,24.29511279296875,-0.0027751922607421875,-0.006052970886230469,0.011220172047615051
1772789706805211600,24.315211669921876,-0.007587432861328125,-0.02503412961959839,-0.007751345634460449
1772789706845409300,24.3554091796875,-0.007572174072265625,0.013151168823242188,-0.007856674492359161
1772789706865508000,24.375508056640626,0.0019979476928710938,0.013283491134643555,0.006443671882152557
1772789706885607000,24.39560693359375,-0.0028181076049804688,-0.0008680820465087891,0.011315524578094482
1772789706905706000,24.4157060546875,-0.007626533508300781,-0.005481362342834473,0.011266730725765228
1772789706925804800,24.4358046875,-0.002838134765625,0.01310586929321289,0.012568898499011993
1772789706945903600,24.455903564453124,-0.007035255432128906,0.01318204402923584,0.002674408257007599
1772789706966002400,24.47600244140625,0.0067653656005859375,0.003357529640197754,0.007396772503852844
1772789706986101200,24.496101318359376,0.0019550323486328125,0.003550410270690918,0.0073711201548576355
1772789707006200000,24.516199951171874,-0.02141857147216797,0.008492588996887207,-0.00205366313457489
1772789707046397700,24.556397705078126,0.01629924774169922,-0.005792975425720215,-0.0019342005252838135
1772789707086595300,24.59659521484375,-0.0022859573364257812,-0.015179932117462158,-0.0013082101941108704
1772789707106694100,24.616694091796877,0.0024995803833007812,0.0040357112884521484,-0.0012645348906517029
1772789707126793000,24.63679296875,-0.0028972625732421875,0.009458661079406738,0.0019698143005371094
1772789707146892000,24.65689208984375,-0.002910614013671875,0.019206523895263672,-0.003122463822364807
1772789707166990800,24.676990966796875,-0.0028982162475585938,0.004742145538330078,0.011003755033016205
1772789707187091000,24.697091064453126,0.006687164306640625,-0.01921558380126953,0.006021358072757721
1772789707207191000,24.71719091796875,-0.012469291687011719,-0.00013446807861328125,0.001288391649723053
1772789707227291000,24.737290771484375,0.0019083023071289062,-0.004965782165527344,-0.008320212364196777
1772789707247391000,24.757390869140625,-0.007674217224121094,0.038118600845336914,0.01115640252828598
1772789707287591200,24.797591064453126,-0.017233848571777344,-0.0004538297653198242,0.006570592522621155
1772789707327791400,24.837791259765623,-0.016620635986328125,-0.0053626298904418945,0.007000386714935303
1772789707367991600,24.877991455078124,-0.007038116455078125,0.00420069694519043,0.002325303852558136
1772789707388091600,24.898091552734375,-0.02142810821533203,-0.0004298686981201172,0.007722608745098114
1772789707408191700,24.918191650390625,0.006732940673828125,0.003658294677734375,-0.0020375847816467285
1772789707448392000,24.958391845703126,-0.007076263427734375,-0.014566957950592041,0.002704918384552002
1772789707468492000,24.978491943359376,-0.007075309753417969,0.003942966461181641,-0.0017539188265800476
1772789707488592100,24.998592041015623,-0.01181793212890625,-0.0012553930282592773,-0.0021521523594856262
1772789707508692200,25.018692138671874,-0.01181793212890625,-0.010852575302124023,-0.011609107255935669
1772789707528792300,25.038792236328124,-0.011808395385742188,-0.0007644891738891602,0.002105124294757843
1772789707548892400,25.058892333984375,0.021135330200195312,-0.0007989406585693359,0.0019628480076789856
1772789707568992500,25.078992431640625,-0.0027828216552734375,-0.005925655364990234,0.0017880573868751526
1772789707589092600,25.099092529296875,0.0115966796875,-0.0012235641479492188,0.025903627276420593
1772789707609192700,25.119192626953126,-0.011769294738769531,0.008494973182678223,0.016055509448051453
1772789707649392600,25.159392578125,0.006752967834472656,-0.005434393882751465,-0.017651960253715515
1772789707689592800,25.1995927734375,-0.02141571044921875,0.00434267520904541,0.01587750017642975
1772789707729793000,25.23979296875,0.025838851928710938,-0.00955510139465332,-0.002726808190345764
1772789707749893000,25.25989306640625,0.0018901824951171875,0.0048171281814575195,-0.012692674994468689
1772789707769993200,25.2799931640625,-0.02628040313720703,0.005051016807556152,0.006423339247703552
1772789707790093300,25.30009326171875,0.016205787658691406,-0.009003400802612305,0.006451472640037537
1772789707810193400,25.320193359375,0.0066127777099609375,0.005507826805114746,0.006243281066417694
1772789707830293500,25.34029345703125,-0.016826629638671875,-0.0033130645751953125,-0.002955399453639984
1772789707870493400,25.380493408203126,-0.03603076934814453,-0.02687978744506836,-0.002993546426296234
1772789707890593500,25.400593505859376,0.0256195068359375,-0.021712958812713623,-0.003424309194087982
1772789707910693600,25.420693603515623,0.011246681213378906,-0.002577543258666992,0.011217840015888214
1772789707930793700,25.440793701171874,0.00226593017578125,-0.008018732070922852,0.007323205471038818
1772789707950893800,25.460893798828124,-0.007308006286621094,0.006280183792114258,0.016769148409366608
1772789707970994000,25.480993896484375,-0.016862869262695312,0.0012328624725341797,-0.002369999885559082
1772789707991094000,25.501093994140625,-0.026439666748046875,0.010686635971069336,-0.001679256558418274
1772789708011194000,25.521194091796875,-0.01204681396484375,0.010457992553710938,0.003978818655014038
1772789708051394000,25.56139404296875,-0.007164955139160156,0.043134212493896484,0.018101803958415985
1772789708071494100,25.581494140625,-0.0119171142578125,0.02839338779449463,0.00845889002084732
1772789708091594200,25.60159423828125,-0.02147960662841797,0.018624305725097656,0.022843077778816223
1772789708131794400,25.64179443359375,-0.026190757751464844,-0.006175041198730469,-0.025042667984962463
1772789708151894500,25.66189453125,0.0019855499267578125,-0.016039669513702393,0.0084853395819664
1772789708171994400,25.681994384765623,-0.002117156982421875,-0.0026140213012695312,0.013873554766178131
1772789708192093400,25.702093505859374,-0.011649131774902344,0.01606929302215576,0.004393227398395538
1772789708212192500,25.722192626953124,-0.0020322799682617188,0.0013124942779541016,-0.004903621971607208
1772789708252390700,25.762390625,-0.035492897033691406,0.0004786252975463867,-0.004076898097991943
1772789708272489700,25.78248974609375,0.0022592544555664062,-0.018897593021392822,0.010272867977619171
1772789708292588800,25.8025888671875,0.01663684844970703,-0.019019782543182373,0.006111033260822296
1772789708312687900,25.82268798828125,-0.021062850952148438,-0.009796857833862305,-0.026832222938537598
1772789708332787200,25.842787109375,-0.025823593139648438,-0.010044217109680176,0.00156499445438385
1772789708352886300,25.86288623046875,-0.0018768310546875,0.004344582557678223,0.026091627776622772
1772789708372985300,25.8829853515625,0.02626800537109375,0.008998990058898926,-0.00556076318025589
1772789708393084400,25.90308447265625,0.03106403350830078,-0.015026211738586426,-0.019683420658111572
1772789708413183500,25.92318359375,-0.030622482299804688,-0.01506030559539795,0.0048517584800720215
1772789708433282600,25.943282470703124,-0.02582263946533203,-0.02485334873199463,-0.008407816290855408
1772789708453381600,25.963381591796875,0.011900901794433594,-0.0009578466415405273,-0.0027164220809936523
1772789708473480700,25.983480712890625,-0.011426925659179688,0.013057470321655273,0.02683604508638382
1772789708493579800,26.003579833984375,-0.020981788635253906,0.03189396858215332,0.037004970014095306
1772789708533778200,26.043778076171876,0.02167224884033203,0.08799922466278076,0.00318782776594162
1772789708553877200,26.063877197265626,-0.011782646179199219,0.049486517906188965,0.003115721046924591
1772789708573976300,26.083976318359376,-0.039836883544921875,0.0389862060546875,-0.010987676680088043
1772789708594075400,26.104075439453126,0.021927833557128906,0.004593372344970703,-0.006114952266216278
1772789708614174500,26.124174560546876,-0.0018892288208007812,0.0223233699798584,0.009243592619895935
1772789708634273500,26.1442734375,0.003025054931640625,-0.012444376945495605,0.004991084337234497
1772789708654372600,26.16437255859375,0.00327301025390625,0.013804793357849121,-0.008194997906684875
1772789708694570200,26.2045703125,0.04594707489013672,0.0025844573974609375,0.0029379352927207947
1772789708714668800,26.224668701171876,0.0035982131958007812,-0.037518858909606934,-0.013587214052677155
1772789708754866200,26.2648662109375,-0.009888648986816406,-0.02195894718170166,0.02273346483707428
1772789708774964700,26.28496484375,0.037613868713378906,0.01906907558441162,-0.003278568387031555
1772789708795063300,26.305063232421876,0.028158187866210938,-0.011060714721679688,-0.015597909688949585
1772789708815162000,26.325162109375,0.00011539459228515625,-0.05523747205734253,-0.005236297845840454
1772789708835260700,26.3452607421875,-0.04239177703857422,-0.041088640689849854,0.01986544579267502
1772789708855359200,26.365359130859375,-0.009270668029785156,-0.02868950366973877,-0.02056952565908432
1772789708875458000,26.3854580078125,0.0382080078125,0.007889628410339355,-0.028181880712509155
1772789708895556600,26.405556640625,0.033499717712402344,-0.01690983772277832,-0.0034817755222320557
1772789708915655200,26.4256552734375,-0.008917808532714844,-0.046797096729278564,-0.010907500982284546
1772789708935754000,26.44575390625,-0.027840614318847656,-0.020627498626708984,0.002985738217830658
1772789708955852500,26.4658525390625,0.005843162536621094,0.006366372108459473,-0.001649998128414154
1772789708975951000,26.485951171875,0.07176971435546875,-0.008705973625183105,-0.01789802312850952
1772789708996050000,26.5060498046875,0.0059375762939453125,-0.01409900188446045,-0.014999009668827057
1772789709036247000,26.5462470703125,-0.0034608840942382812,0.0030264854431152344,0.01362115889787674
1772789709056345900,26.566345947265624,0.03899860382080078,-0.010901689529418945,-0.003492593765258789
1772789709096543000,26.60654296875,-0.0362396240234375,0.03413283824920654,0.014744788408279419
1772789709116641800,26.626641845703126,0.02968120574951172,0.04380941390991211,0.015385709702968597
1772789709136740400,26.646740234375,0.020215988159179688,0.03302967548370361,-0.01128825917840004
1772789709156839000,26.6668388671875,-0.03173542022705078,0.05550670623779297,-0.00033774226903915405
