time,seconds_elapsed,z,y,x
1772789682746095900,0.256095947265625,9.76696491241455,0.459931880235672,0.3138076961040497
1772789682766196200,0.2761962890625,9.78732681274414,0.45753639936447144,0.3084178566932678
1772789682786296600,0.296296630859375,9.783733367919922,0.4551409184932709,0.3078189790248871
1772789682806396700,0.316396728515625,9.771157264709473,0.4437623918056488,0.31201109290122986
1772789682826497000,0.3364970703125,9.786128997802734,0.44615787267684937,0.306621253490448
1772789682846597400,0.356597412109375,9.76876163482666,0.44915223121643066,0.32039526104927063
1772789682866697700,0.37669775390625,9.765168190002441,0.4467567503452301,0.3335703909397125
1772789682886798000,0.396798095703125,9.780738830566406,0.42100536823272705,0.32338958978652954
1772789682906898200,0.416898193359375,9.781936645507812,0.42819178104400635,0.33237263560295105
1772789682926998500,0.43699853515625,9.769360542297363,0.45034995675086975,0.3461466431617737
1772789682947099000,0.457098876953125,9.76696491241455,0.4551409184932709,0.30302804708480835
1772789682967199200,0.47719921875,9.780738830566406,0.46951380372047424,0.2934461236000061
1772789682987299300,0.49729931640625,9.766366004943848,0.4790956974029541,0.2934461236000061
1772789683007399700,0.517399658203125,9.766366004943848,0.4551409184932709,0.30302804708480835
1772789683027500000,0.5375,9.762173652648926,0.46951380372047424,0.3078189790248871
1772789683047600400,0.557600341796875,9.775947570800781,0.48867762088775635,0.2934461236000061
1772789683067700700,0.57770068359375,9.757383346557617,0.47430476546287537,0.288655161857605
1772789683087800800,0.59780078125,9.771157264709473,0.44615787267684937,0.3078189790248871
1772789683107901200,0.617901123046875,9.761574745178223,0.4365759789943695,0.3126099407672882
1772789683128001500,0.63800146484375,9.771157264709473,0.4365759789943695,0.3126099407672882
1772789683148102000,0.658101806640625,9.780738830566406,0.4551409184932709,0.2934461236000061
1772789683168202000,0.678201904296875,9.752592086791992,0.42220309376716614,0.32219186425209045
1772789683188301000,0.698301025390625,9.775947570800781,0.3790844678878784,0.3078189790248871
1772789683208400000,0.71839990234375,9.785530090332031,0.417412132024765,0.2694913446903229
1772789683228498700,0.738498779296875,9.762173652648926,0.4365759789943695,0.2694913446903229
1772789683248597800,0.75859765625,9.752592086791992,0.44136691093444824,0.2934461236000061
1772789683268696800,0.77869677734375,9.775947570800781,0.4317850172519684,0.32219186425209045
1772789683288795600,0.798795654296875,9.761574745178223,0.4647228419780731,0.2982370853424072
1772789683308894700,0.818894775390625,9.771157264709473,0.4982595443725586,0.31740090250968933
1772789683328993500,0.83899365234375,9.771157264709473,0.5078414678573608,0.3317737877368927
1772789683349092600,0.859092529296875,9.780738830566406,0.48448553681373596,0.2976382076740265
1772789683369191400,0.87919140625,9.775947570800781,0.46532171964645386,0.2784743905067444
1772789683389290500,0.89929052734375,9.761574745178223,0.46532171964645386,0.3168020248413086
1772789683409389300,0.919389404296875,9.780738830566406,0.4509488344192505,0.2976382076740265
1772789683429488400,0.93948828125,9.771157264709473,0.4557397961616516,0.3024291694164276
1772789683449587200,0.959587158203125,9.784931182861328,0.4509488344192505,0.3018302917480469
1772789683469686300,0.979686279296875,9.775947570800781,0.4557397961616516,0.306621253490448
1772789683489785000,0.99978515625,9.784931182861328,0.46053075790405273,0.3114122152328491
1772789683509884200,1.01988427734375,9.7286376953125,0.4749036133289337,0.3114122152328491
1772789683529983000,1.03998291015625,9.733428001403809,0.43717482686042786,0.2874574363231659
1772789683550082000,1.06008203125,9.960399627685547,0.40783020853996277,0.27368342876434326
1772789683570180900,1.080180908203125,9.59628677368164,0.4557397961616516,0.3359658718109131
1772789683590280000,1.100280029296875,9.80888557434082,0.4509488344192505,0.23056480288505554
1772789683610378800,1.120378662109375,9.648388862609863,0.44136691093444824,0.3407568335533142
1772789683630477800,1.140477783203125,9.88015079498291,0.4365759789943695,0.18744619190692902
1772789683650576600,1.16057666015625,10.035857200622559,0.42699405550956726,0.16888123750686646
1772789683670675700,1.18067578125,9.761574745178223,0.8809372186660767,0.7042707204818726
1772789683690775000,1.200775146484375,9.23696517944336,0.71385258436203,0.459931880235672
1772789683710874000,1.2208740234375,10.30534839630127,0.9330388903617859,0.33117491006851196
1772789683730973400,1.240973388671875,9.440581321716309,1.048021912574768,0.23056480288505554
1772789683751072800,1.26107275390625,10.962308883666992,0.3509376049041748,-0.5821012854576111
1772789683771172000,1.281172119140625,9.33637809753418,-0.5617397427558899,1.746303915977478
1772789683791271400,1.301271484375,9.601078033447266,-0.3509376049041748,0.37848562002182007
1772789683811370800,1.321370849609375,9.51603889465332,0.5180222392082214,0.8228468894958496
1772789683831469800,1.3414697265625,10.773065567016602,-0.09821461886167526,1.999026894569397
1772789683851569200,1.361569091796875,10.172998428344727,-0.6952876448631287,3.112924337387085
1772789683871668500,1.38166845703125,10.645506858825684,-1.4594453573226929,4.102256774902344
1772789683891767800,1.401767822265625,11.742036819458008,-1.5690383911132812,5.789871692657471
1772789683911867000,1.421866943359375,12.204962730407715,-2.2523486614227295,5.7994537353515625
1772789683931966200,1.44196630859375,10.48500919342041,-0.9054908752441406,3.7585058212280273
1772789683952065500,1.4620654296875,8.750083923339844,0.007186435628682375,3.839353322982788
1772789683972164900,1.482164794921875,8.849496841430664,-0.7952988743782043,4.747838497161865
1772789683992264200,1.50226416015625,8.52790355682373,-0.8959089517593384,3.696223497390747
1772789684012363300,1.52236328125,7.578096389770508,-0.14612418413162231,3.117715358734131
1772789684032462600,1.542462646484375,8.097915649414062,-0.05030504986643791,2.9554216861724854
1772789684052562000,1.56256201171875,8.717146873474121,0.007186435628682375,1.817569375038147
1772789684072661200,1.5826611328125,8.551857948303223,0.3461466431617737,1.922371506690979
1772789684092760600,1.602760498046875,8.230265617370605,0.15510722994804382,1.6073660850524902
1772789684112859600,1.622859619140625,8.296140670776367,0.44615787267684937,0.6653441786766052
1772789684132959000,1.642958984375,10.035857200622559,0.8857281804084778,-0.33836135268211365
1772789684153058300,1.663058349609375,12.200172424316406,1.0144851207733154,-1.1701912879943848
1772789684173158000,1.683157958984375,11.945054054260254,1.048021912574768,-2.083467483520508
1772789684193257700,1.7032578125,9.619643211364746,1.6169480085372925,-2.5763370990753174
1772789684213357800,1.72335791015625,9.293258666992188,1.540292739868164,-2.3894898891448975
1772789684233458000,1.7434580078125,9.86038875579834,1.501965045928955,-1.9020099639892578
1772789684253558000,1.76355810546875,9.624433517456055,1.8367332220077515,-2.4948909282684326
1772789684273657900,1.783657958984375,9.137553215026855,2.089456081390381,-3.986675262451172
1772789684293758000,1.803758056640625,8.556050300598145,1.6409027576446533,-3.6327431201934814
1772789684313858000,1.823858154296875,8.34824275970459,2.166111469268799,-2.710484027862549
1772789684333958100,1.843958251953125,9.728038787841797,2.2852864265441895,-3.1117265224456787
1772789684354058200,1.864058349609375,10.290975570678711,2.4385972023010254,-3.9579293727874756
1772789684374158000,1.884157958984375,9.652581214904785,1.7121683359146118,-2.7248568534851074
1772789684394258200,1.904258056640625,9.005202293395996,0.4898753762245178,-0.3587229251861572
1772789684414358300,1.924358154296875,9.241157531738281,0.1796608865261078,0.5258075594902039
1772789684434458400,1.944458251953125,9.94063663482666,0.8911179900169373,0.8845304250717163
1772789684454558200,1.96455810546875,10.290376663208008,1.3019425868988037,1.018078327178955
1772789684474658300,1.984658203125,10.517348289489746,0.852790355682373,0.7408017516136169
1772789684494758400,2.00475830078125,9.987947463989258,0.9581913948059082,0.7408017516136169
1772789684514858500,2.0248583984375,10.186772346496582,1.2348692417144775,0.6114459037780762
1772789684534958300,2.044958251953125,10.592805862426758,1.7510948181152344,0.16708463430404663
1772789684555058400,2.065058349609375,10.654489517211914,1.6888123750686646,0.19583037495613098
1772789684575158500,2.085158447265625,9.997529983520508,0.9917281270027161,0.5012539029121399
1772789684595258600,2.105258544921875,9.439982414245605,1.2109143733978271,0.6455814838409424
1772789684615358700,2.125358642578125,9.723846435546875,1.740913987159729,0.4305872619152069
1772789684635458600,2.14545849609375,10.059213638305664,1.4019538164138794,0.37369465827941895
1772789684655558700,2.16555859375,10.087360382080078,1.2725980281829834,0.43537822365760803
1772789684675658200,2.185658203125,10.031065940856934,1.4923831224441528,0.1724744588136673
1772789684695757000,2.205757080078125,9.147134780883789,0.8000898361206055,-0.03772878646850586
1772789684715856000,2.22585595703125,10.158625602722168,0.8144627213478088,0.15390948951244354
1772789684735954700,2.24595458984375,9.430399894714355,0.9719654321670532,0.0005988696357235312
1772789684756053500,2.266053466796875,9.601078033447266,1.2678070068359375,0.2209828943014145
1772789684776152300,2.28615234375,10.23408317565918,0.9911292195320129,0.15870045125484467
1772789684796251100,2.306251220703125,9.501067161560059,1.0246659517288208,0.052700527012348175
1772789684816350000,2.326349853515625,9.55795955657959,1.1252760887145996,0.2006213217973709
1772789684836448800,2.34644873046875,10.068196296691895,0.9629823565483093,0.10959314554929733
1772789684856547800,2.3665478515625,9.567541122436523,1.0582026243209839,0.1431298404932022
1772789684876646700,2.386646728515625,9.756784439086914,1.0390387773513794,0.12396601587533951
1772789684896745500,2.406745361328125,9.756185531616211,1.034247875213623,0.12875697016716003
1772789684916844300,2.42684423828125,9.709473609924316,1.034247875213623,0.14792080223560333
1772789684936943000,2.446943115234375,9.77055835723877,1.019874930381775,0.10001122951507568
1772789684957042000,2.4670419921875,9.685518264770508,1.0390387773513794,0.1383388787508011
1772789684977140700,2.487140625,9.765767097473145,1.0390387773513794,0.12875697016716003
1772789684997239600,2.507239501953125,9.76097583770752,1.034247875213623,0.14792080223560333
1772789685017338400,2.52733837890625,9.73762035369873,1.0102931261062622,0.11917505413293839
1772789685037437200,2.547437255859375,9.699891090393066,1.0294568538665771,0.13354793190956116
1772789685057536000,2.567535888671875,9.73762035369873,1.0246659517288208,0.1431298404932022
1772789685077635000,2.587635009765625,9.73762035369873,1.0246659517288208,0.12396601587533951
1772789685097733600,2.607733642578125,9.732829093933105,1.019874930381775,0.12396601587533951
1772789685117832700,2.627832763671875,9.723247528076172,1.019874930381775,0.12396601587533951
1772789685137931500,2.647931640625,9.723247528076172,1.0438297986984253,0.1383388787508011
1772789685158030300,2.6680302734375,9.728038787841797,1.020473837852478,0.1383388787508011
1772789685178130200,2.688130126953125,9.747201919555664,1.025264859199524,0.13354793190956116
1772789685198230500,2.70823046875,9.784931182861328,1.0348467826843262,0.11378522962331772
1772789685218331000,2.728330810546875,9.756185531616211,1.0348467826843262,0.1281581073999405
1772789685238431500,2.748431396484375,9.751394271850586,1.0396376848220825,0.1281581073999405
1772789685258532000,2.768531982421875,9.73762035369873,1.0396376848220825,0.12336714565753937
1772789685278632400,2.788632568359375,9.732829093933105,1.0300557613372803,0.11857619136571884
1772789685298732800,2.80873291015625,9.732829093933105,1.0156829357147217,0.10899427533149719
1772789685318833400,2.82883349609375,9.723247528076172,1.0300557613372803,0.12336714565753937
1772789685359034400,2.869034423828125,9.76097583770752,1.025264859199524,0.1281581073999405
1772789685379135000,2.889135009765625,9.718456268310547,1.0396376848220825,0.13294905424118042
1772789685399235300,2.9092353515625,9.728038787841797,1.0438297986984253,0.1383388787508011
1772789685419336000,2.9293359375,9.742411613464355,1.0486207008361816,0.11438409984111786
1772789685439436300,2.949436279296875,9.732829093933105,1.034247875213623,0.10959314554929733
1772789685459537000,2.969536865234375,9.718456268310547,1.0294568538665771,0.11438409984111786
1772789685479637200,2.98963720703125,9.728038787841797,1.0061010122299194,0.11917505413293839
1772789685499737900,3.00973779296875,9.713665962219238,1.034247875213623,0.11438409984111786
1772789685519838200,3.029838134765625,9.732829093933105,1.0150840282440186,0.11438409984111786
1772789685560039200,3.0700390625,9.723247528076172,1.019874930381775,0.12396601587533951
1772789685580139800,3.090139892578125,9.723247528076172,1.019874930381775,0.1383388787508011
1772789685600240000,3.110240234375,9.728038787841797,1.0300557613372803,0.13294905424118042
1772789685620340700,3.1303408203125,9.746603012084961,1.0348467826843262,0.12336714565753937
1772789685640441000,3.150441162109375,9.741812705993652,1.0156829357147217,0.1179773211479187
1772789685660541700,3.170541748046875,9.746603012084961,1.0061010122299194,0.13235019147396088
1772789685680641800,3.190641845703125,9.737021446228027,1.025264859199524,0.137141153216362
1772789685700741600,3.21074169921875,9.723247528076172,1.0108919143676758,0.1179773211479187
1772789685720841500,3.230841552734375,9.718456268310547,1.0019088983535767,0.13235019147396088
1772789685740941300,3.25094140625,9.741812705993652,1.011490821838379,0.12276827543973923
1772789685761041200,3.271041259765625,9.732230186462402,1.0258636474609375,0.14193210005760193
1772789685781141000,3.29114111328125,9.737021446228027,1.0210727453231812,0.1179773211479187
1772789685801240800,3.31124072265625,9.742411613464355,1.0396376848220825,0.11857619136571884
1772789685821340700,3.331340576171875,9.718456268310547,1.020473837852478,0.13294905424118042
1772789685841440500,3.3514404296875,9.718456268310547,1.0156829357147217,0.12336714565753937
1772789685861540400,3.371540283203125,9.723247528076172,1.0108919143676758,0.12336714565753937
1772789685881640200,3.39164013671875,9.718456268310547,1.0156829357147217,0.14253097772598267
1772789685901740000,3.411739990234375,9.732829093933105,1.0013099908828735,0.11857619136571884
1772789685921840000,3.431840087890625,9.746603012084961,1.0156829357147217,0.12336714565753937
1772789685962039800,3.472039794921875,9.73762035369873,1.0156829357147217,0.12875697016716003
1772789685982139600,3.4921396484375,9.723247528076172,1.0013099908828735,0.12396601587533951
1772789686002239500,3.512239501953125,9.728038787841797,1.0300557613372803,0.13774001598358154
1772789686022339300,3.53233935546875,9.718456268310547,1.0156829357147217,0.11378522962331772
1772789686042439200,3.552439208984375,9.742411613464355,1.0013099908828735,0.10899427533149719
1772789686062539000,3.5725390625,9.732829093933105,1.0061010122299194,0.1281581073999405
1772789686082638800,3.592638916015625,9.718456268310547,1.0348467826843262,0.1281581073999405
1772789686102738700,3.61273876953125,9.728038787841797,1.020473837852478,0.11917505413293839
1772789686122838500,3.632838623046875,9.723247528076172,1.025264859199524,0.12396601587533951
1772789686142938400,3.6529384765625,9.732829093933105,1.025264859199524,0.11917505413293839
1772789686163038200,3.6730380859375,9.728038787841797,1.0300557613372803,0.11917505413293839
1772789686183138300,3.69313818359375,9.723247528076172,1.0156829357147217,0.12396601587533951
1772789686203238400,3.71323828125,9.76097583770752,1.0108919143676758,0.1281581073999405
1772789686223338800,3.7333388671875,9.723247528076172,1.0061010122299194,0.13774001598358154
1772789686243438800,3.75343896484375,9.708874702453613,0.9869371652603149,0.1281581073999405
1772789686263539000,3.7735390625,9.723247528076172,1.020473837852478,0.11857619136571884
1772789686283639300,3.793639404296875,9.718456268310547,1.0156829357147217,0.14253097772598267
1772789686303739400,3.813739501953125,9.723247528076172,1.0061010122299194,0.11857619136571884
1772789686323839500,3.833839599609375,9.746603012084961,1.0396376848220825,0.12336714565753937
1772789686343939600,3.853939697265625,9.718456268310547,1.020473837852478,0.1281581073999405
1772789686364039700,3.874039794921875,9.723247528076172,1.020473837852478,0.13294905424118042
1772789686384140000,3.89414013671875,9.732829093933105,1.020473837852478,0.12336714565753937
1772789686404240100,3.914240234375,9.73762035369873,1.0300557613372803,0.1281581073999405
1772789686424340200,3.93434033203125,9.756185531616211,1.0300557613372803,0.10899427533149719
1772789686444440600,3.954440673828125,9.73762035369873,1.0396376848220825,0.11378522962331772
1772789686484640800,3.994640869140625,9.732829093933105,1.0156829357147217,0.1281581073999405
1772789686504741000,4.0147412109375,9.732829093933105,1.0108919143676758,0.12336714565753937
1772789686524841200,4.03484130859375,9.728038787841797,1.020473837852478,0.12336714565753937
1772789686544941300,4.05494140625,9.723247528076172,1.020473837852478,0.12336714565753937
1772789686565041400,4.07504150390625,9.73762035369873,1.020473837852478,0.14253097772598267
1772789686585141500,4.0951416015625,9.756185531616211,1.020473837852478,0.14253097772598267
1772789686605241900,4.115241943359375,9.746603012084961,1.0300557613372803,0.12276827543973923
1772789686625342000,4.135342041015625,9.728038787841797,1.0156829357147217,0.1179773211479187
1772789686645442000,4.155442138671875,9.737021446228027,1.0300557613372803,0.12276827543973923
1772789686665542400,4.17554248046875,9.746603012084961,1.020473837852478,0.1179773211479187
1772789686685641500,4.195641357421875,9.746603012084961,1.025264859199524,0.11318635940551758
1772789686705740500,4.215740478515625,9.732230186462402,1.0396376848220825,0.12276827543973923
1772789686725840000,4.23583984375,9.737021446228027,1.020473837852478,0.1179773211479187
1772789686745939000,4.25593896484375,9.723247528076172,1.0156829357147217,0.1179773211479187
1772789686766038000,4.2760380859375,9.751394271850586,1.025264859199524,0.11318635940551758
1772789686786137300,4.296137451171875,9.741812705993652,1.025264859199524,0.13235019147396088
1772789686806236400,4.316236328125,9.727439880371094,1.0108919143676758,0.1179773211479187
1772789686826335700,4.336335693359375,9.737021446228027,0.9923269748687744,0.11318635940551758
1772789686846434800,4.356434814453125,9.727439880371094,1.0162817239761353,0.11318635940551758
1772789686866534000,4.376533935546875,9.737021446228027,1.025264859199524,0.10839540511369705
1772789686886633200,4.39663330078125,9.741812705993652,1.011490821838379,0.1179773211479187
1772789686906732300,4.416732177734375,9.741812705993652,1.0162817239761353,0.12755922973155975
1772789686926831400,4.436831298828125,9.727439880371094,1.0444285869598389,0.12276827543973923
1772789686946930700,4.4569306640625,9.737021446228027,1.0162817239761353,0.11318635940551758
1772789686967029800,4.47702978515625,9.722648620605469,1.0019088983535767,0.1179773211479187
1772789686987129000,4.497129150390625,9.732230186462402,1.0210727453231812,0.1179773211479187
1772789687007228200,4.517228271484375,9.746603012084961,1.0108919143676758,0.11857619136571884
1772789687027327200,4.5373271484375,9.73762035369873,1.020473837852478,0.11857619136571884
1772789687047426600,4.557426513671875,9.742411613464355,1.0348467826843262,0.11378522962331772
1772789687067525600,4.577525634765625,9.728038787841797,1.0156829357147217,0.11378522962331772
1772789687087624700,4.597624755859375,9.718456268310547,1.0348467826843262,0.11438409984111786
1772789687107724000,4.61772412109375,9.73762035369873,1.0013099908828735,0.12396601587533951
1772789687127823000,4.637822998046875,9.73762035369873,1.0156829357147217,0.11917505413293839
1772789687168021500,4.678021484375,9.751993179321289,0.9965190887451172,0.12396601587533951
1772789687208220000,4.718219970703125,9.723247528076172,1.025264859199524,0.1179773211479187
1772789687248418600,4.75841845703125,9.741812705993652,1.0061010122299194,0.1179773211479187
1772789687268518000,4.778517822265625,9.746603012084961,1.0156829357147217,0.10839540511369705
1772789687288617000,4.798616943359375,9.723247528076172,1.0156829357147217,0.11318635940551758
1772789687328815600,4.838815673828125,9.741812705993652,1.006699800491333,0.11318635940551758
1772789687348915000,4.8589150390625,9.737021446228027,1.0210727453231812,0.12755922973155975
1772789687369014300,4.87901416015625,9.737021446228027,1.0162817239761353,0.12755922973155975
1772789687389113300,4.89911328125,9.746603012084961,1.006699800491333,0.12755922973155975
1772789687409212700,4.919212646484375,9.741812705993652,1.0306546688079834,0.1179773211479187
1772789687429312000,4.93931201171875,9.76097583770752,1.0258636474609375,0.13175131380558014
1772789687449411300,4.959411376953125,9.741812705993652,1.0162817239761353,0.10779653489589691
1772789687469510400,4.979510498046875,9.741812705993652,1.011490821838379,0.11737845093011856
1772789687489609700,4.999609619140625,9.717857360839844,1.0210727453231812,0.12216940522193909
1772789687509709000,5.019708984375,9.746603012084961,1.006699800491333,0.12216940522193909
1772789687529808400,5.039808349609375,9.741812705993652,1.0162817239761353,0.10300558060407639
1772789687549907700,5.05990771484375,9.727439880371094,1.0258636474609375,0.12216940522193909
1772789687590106000,5.100106201171875,9.737021446228027,0.9965190887451172,0.12336714565753937
1772789687610205400,5.120205322265625,9.741812705993652,1.025264859199524,0.11378522962331772
1772789687650403800,5.16040380859375,9.732829093933105,1.0013099908828735,0.11857619136571884
1772789687690603500,5.200603515625,9.742411613464355,1.025264859199524,0.11378522962331772
1772789687730803700,5.2408037109375,9.742411613464355,1.0300557613372803,0.10480218380689621
1772789687750903800,5.26090380859375,9.732829093933105,1.025264859199524,0.11438409984111786
1772789687771004000,5.28100390625,9.751993179321289,1.0150840282440186,0.11438409984111786
1772789687791104000,5.30110400390625,9.723247528076172,1.0156829357147217,0.11318635940551758
1772789687811204000,5.3212041015625,9.728038787841797,1.0061010122299194,0.11318635940551758
1772789687831304400,5.341304443359375,9.765767097473145,0.9917281270027161,0.0898304432630539
1772789687851404500,5.361404541015625,9.756185531616211,1.0156829357147217,0.12276827543973923
1772789687871504600,5.381504638671875,9.737021446228027,1.0108919143676758,0.1179773211479187
1772789687891604700,5.401604736328125,9.751394271850586,1.0156829357147217,0.10839540511369705
1772789687911704800,5.421704833984375,9.751394271850586,1.0300557613372803,0.12276827543973923
1772789687931805200,5.44180517578125,9.746603012084961,1.0061010122299194,0.1179773211479187
1772789687951905300,5.4619052734375,9.751394271850586,1.025264859199524,0.10839540511369705
1772789687972005400,5.48200537109375,9.732230186462402,1.020473837852478,0.1179773211479187
1772789687992105500,5.50210546875,9.73762035369873,1.0061010122299194,0.11378522962331772
1772789688012205600,5.52220556640625,9.741812705993652,1.0061010122299194,0.11378522962331772
1772789688032305700,5.5423056640625,9.751394271850586,1.0013099908828735,0.11378522962331772
1772789688052406000,5.562406005859375,9.73762035369873,1.0156829357147217,0.10899427533149719
1772789688072506000,5.582506103515625,9.746603012084961,1.0108919143676758,0.11857619136571884
1772789688092606200,5.602606201171875,9.746603012084961,1.0108919143676758,0.12336714565753937
1772789688112706300,5.622706298828125,9.723247528076172,1.020473837852478,0.11378522962331772
1772789688132806400,5.642806396484375,9.746603012084961,1.025264859199524,0.1281581073999405
1772789688152906500,5.662906494140625,9.765767097473145,1.0108919143676758,0.11378522962331772
1772789688173006600,5.683006591796875,9.765767097473145,1.0156829357147217,0.12336714565753937
1772789688193106200,5.703106201171875,9.746603012084961,1.025264859199524,0.11318635940551758
1772789688213206000,5.7232060546875,9.751394271850586,0.9965190887451172,0.11318635940551758
1772789688253405400,5.763405517578125,9.737021446228027,1.020473837852478,0.11318635940551758
1772789688273505300,5.78350537109375,9.741812705993652,1.0108919143676758,0.12276827543973923
1772789688293605000,5.803605224609375,9.746603012084961,1.0108919143676758,0.12276827543973923
1772789688313704700,5.82370458984375,9.737021446228027,1.0019088983535767,0.11677958071231842
1772789688333804500,5.843804443359375,9.760376930236816,1.0072987079620361,0.09641800820827484
1772789688353904400,5.863904296875,9.764569282531738,1.0174795389175415,0.10480218380689621
1772789688374004000,5.88400390625,9.763970375061035,1.0132874250411987,0.0988134890794754
1772789688394103800,5.904103759765625,9.768162727355957,1.009095311164856,0.10719766467809677
1772789688414203600,5.92420361328125,9.725643157958984,1.0144851207733154,0.10599992424249649
1772789688434303200,5.94430322265625,9.73941707611084,1.0102931261062622,0.11438409984111786
1772789688454403000,5.964403076171875,9.743609428405762,1.0300557613372803,0.10360444337129593
1772789688474503000,5.9845029296875,9.752592086791992,1.0210727453231812,0.1119886189699173
1772789688494602500,6.0046025390625,9.741812705993652,1.0061010122299194,0.11378522962331772
1772789688514702300,6.024702392578125,9.751394271850586,0.9917281270027161,0.12336714565753937
1772789688534802200,6.04480224609375,9.77055835723877,1.020473837852478,0.11378522962331772
1772789688554901800,6.06490185546875,9.732829093933105,1.0156829357147217,0.11378522962331772
1772789688595101200,6.10510107421875,9.746603012084961,0.9965190887451172,0.11378522962331772
1772789688615201000,6.125200927734375,9.741812705993652,1.0108919143676758,0.12336714565753937
1772789688635300900,6.14530078125,9.732829093933105,1.0108919143676758,0.12336714565753937
1772789688655400700,6.165400634765625,9.756185531616211,1.0108919143676758,0.11378522962331772
1772789688675500500,6.18550048828125,9.751394271850586,1.0108919143676758,0.11857619136571884
1772789688695600600,6.2056005859375,9.742411613464355,1.020473837852478,0.12336714565753937
1772789688735800800,6.24580078125,9.751394271850586,1.0108919143676758,0.11378522962331772
1772789688755901000,6.26590087890625,9.76097583770752,1.020473837852478,0.11917505413293839
1772789688776001000,6.2860009765625,9.780139923095703,1.020473837852478,0.12396601587533951
1772789688816201200,6.326201171875,9.73762035369873,1.0300557613372803,0.12396601587533951
1772789688836301300,6.34630126953125,9.751394271850586,1.020473837852478,0.12396601587533951
1772789688876501500,6.38650146484375,9.751394271850586,1.0156829357147217,0.12396601587533951
1772789688896601600,6.4066015625,9.73762035369873,1.019874930381775,0.12396601587533951
1772789688916701700,6.42670166015625,9.732829093933105,1.0246659517288208,0.10959314554929733
1772789688936801800,6.4468017578125,9.732829093933105,1.0246659517288208,0.11438409984111786
1772789688956902000,6.46690185546875,9.76097583770752,1.019874930381775,0.11438409984111786
1772789688977002000,6.487001953125,9.747201919555664,1.0246659517288208,0.10540105402469635
1772789688997102000,6.50710205078125,9.732829093933105,1.019874930381775,0.114982970058918
1772789689017202200,6.5272021484375,9.756784439086914,1.0102931261062622,0.11977392435073853
1772789689037302300,6.54730224609375,9.780139923095703,1.00071120262146,0.1341467946767807
1772789689057402400,6.56740234375,9.761574745178223,1.0150840282440186,0.11019201576709747
1772789689077502500,6.58750244140625,9.742411613464355,1.0150840282440186,0.114982970058918
1772789689097602600,6.6076025390625,9.747201919555664,1.019874930381775,0.11917505413293839
1772789689117702700,6.62770263671875,9.751993179321289,1.0246659517288208,0.10480218380689621
1772789689137802800,6.647802734375,9.751993179321289,1.0246659517288208,0.11438409984111786
1772789689178002700,6.688002685546875,9.756185531616211,1.0156829357147217,0.11438409984111786
1772789689198102000,6.70810205078125,9.76097583770752,1.020473837852478,0.10959314554929733
1772789689218201300,6.728201416015625,9.756185531616211,1.0108919143676758,0.10959314554929733
1772789689238301000,6.748301025390625,9.775348663330078,1.0108919143676758,0.11438409984111786
1772789689278499600,6.78849951171875,9.73762035369873,1.0061010122299194,0.12396601587533951
1772789689318698500,6.828698486328125,9.747201919555664,1.0055021047592163,0.11977392435073853
1772789689338798000,6.848798095703125,9.761574745178223,1.0150840282440186,0.11977392435073853
1772789689358897400,6.8688974609375,9.747201919555664,1.0102931261062622,0.114982970058918
1772789689399096300,6.909096435546875,9.751993179321289,1.019874930381775,0.11558184027671814
1772789689419195600,6.929195556640625,9.761574745178223,1.00071120262146,0.12037279456853867
1772789689439295200,6.949295166015625,9.756784439086914,0.9959201812744141,0.11079088598489761
1772789689459394600,6.96939453125,9.751993179321289,1.009694218635559,0.10599992424249649
1772789689479494000,6.989493896484375,9.738219261169434,1.009694218635559,0.12037279456853867
1772789689499593200,7.00959326171875,9.747201919555664,1.0150840282440186,0.12456488609313965
1772789689519692800,7.02969287109375,9.756784439086914,0.9863383173942566,0.11977392435073853
1772789689539792100,7.049792236328125,9.747201919555664,1.0102931261062622,0.11438409984111786
1772789689559891700,7.0698916015625,9.751993179321289,1.0102931261062622,0.11917505413293839
1772789689579991000,7.089990966796875,9.77055835723877,1.019874930381775,0.10959314554929733
1772789689600090400,7.11009033203125,9.751993179321289,1.0150840282440186,0.10959314554929733
1772789689620190000,7.13018994140625,9.742411613464355,0.9959201812744141,0.10001122951507568
1772789689640289300,7.150289306640625,9.756784439086914,1.0102931261062622,0.10959314554929733
1772789689680488200,7.19048828125,9.747201919555664,1.019874930381775,0.12875697016716003
1772789689720687000,7.23068701171875,9.742411613464355,1.0055021047592163,0.11977392435073853
1772789689740786400,7.250786376953125,9.761574745178223,1.00071120262146,0.114982970058918
1772789689760886000,7.270885986328125,9.756784439086914,1.0102931261062622,0.11019201576709747
1772789689780985300,7.2909853515625,9.742411613464355,1.0150840282440186,0.114982970058918
1772789689801084700,7.311084716796875,9.73762035369873,1.019874930381775,0.11977392435073853
1772789689821184300,7.331184326171875,9.742411613464355,1.019874930381775,0.1341467946767807
1772789689861383200,7.371383056640625,9.732829093933105,1.0055021047592163,0.114982970058918
1772789689901582000,7.41158203125,9.780738830566406,1.009694218635559,0.12037279456853867
1772789689921681400,7.431681396484375,9.756784439086914,1.009694218635559,0.12037279456853867
1772789689941781000,7.451781005859375,9.761574745178223,0.9905303716659546,0.10599992424249649
1772789689961880300,7.47188037109375,9.766366004943848,1.0192761421203613,0.11138974875211716
1772789689981979600,7.491979736328125,9.747201919555664,1.0144851207733154,0.11138974875211716
1772789690002079200,7.512079345703125,9.766366004943848,1.0001122951507568,0.11618071049451828
1772789690022178600,7.532178466796875,9.756784439086914,1.009694218635559,0.1018078401684761
1772789690042278100,7.552278076171875,9.761574745178223,1.009694218635559,0.13055357336997986
1772789690062377500,7.57237744140625,9.756784439086914,0.9953213334083557,0.1209716647863388
1772789690082477000,7.59247705078125,9.752592086791992,1.009694218635559,0.12576262652873993
1772789690102576400,7.612576416015625,9.751993179321289,1.0432308912277222,0.12037279456853867
1772789690122676000,7.632676025390625,9.751993179321289,1.0150840282440186,0.11079088598489761
1772789690142775300,7.652775390625,9.732829093933105,1.0246659517288208,0.11977392435073853
1772789690162874600,7.67287451171875,9.756784439086914,1.0150840282440186,0.09641800820827484
1772789690182975200,7.692975341796875,9.742411613464355,1.0150840282440186,0.12456488609313965
1772789690203075800,7.713075927734375,9.723846435546875,1.0246659517288208,0.11019201576709747
1772789690223176200,7.73317626953125,9.751993179321289,1.0102931261062622,0.11019201576709747
1772789690243277000,7.753277099609375,9.747201919555664,1.0246659517288208,0.10540105402469635
1772789690263377400,7.77337744140625,9.732829093933105,1.0294568538665771,0.11977392435073853
1772789690303578600,7.81357861328125,9.761574745178223,1.0288580656051636,0.11618071049451828
1772789690323679200,7.83367919921875,9.766366004943848,1.0144851207733154,0.11138974875211716
1772789690343779800,7.85377978515625,9.743010520935059,1.0144851207733154,0.1209716647863388
1772789690363880400,7.87388037109375,9.761574745178223,1.009694218635559,0.1018078401684761
1772789690383981000,7.89398095703125,9.756784439086914,1.0144851207733154,0.11618071049451828
1772789690404081700,7.91408154296875,9.747800827026367,1.0144851207733154,0.12576262652873993
1772789690424182300,7.934182373046875,9.747800827026367,1.0049031972885132,0.11618071049451828
1772789690444283000,7.954282958984375,9.752592086791992,1.009694218635559,0.11618071049451828
1772789690464383500,7.974383544921875,9.761574745178223,1.0144851207733154,0.11138974875211716
1772789690484484000,7.994484130859375,9.756784439086914,1.0288580656051636,0.11618071049451828
1772789690504584700,8.014584716796875,9.738219261169434,1.009694218635559,0.1209716647863388
1772789690524685300,8.034685302734376,9.738219261169434,1.0001122951507568,0.1209716647863388
1772789690564886500,8.074886474609375,9.775947570800781,1.0192761421203613,0.11138974875211716
1772789690584987100,8.094987060546876,9.761574745178223,1.009694218635559,0.11618071049451828
1772789690605087700,8.115087646484374,9.723846435546875,1.0144851207733154,0.1209716647863388
1772789690625188400,8.135188232421875,9.751993179321289,1.03364896774292,0.1209716647863388
1772789690645289000,8.1552890625,9.761574745178223,1.0192761421203613,0.13055357336997986
1772789690665389300,8.175389404296874,9.733428001403809,1.009694218635559,0.13055357336997986
1772789690685489200,8.1954892578125,9.747800827026367,1.0144851207733154,0.11618071049451828
1772789690705589000,8.215589111328125,9.756784439086914,1.0144851207733154,0.11618071049451828
1772789690725688800,8.235688720703125,9.747800827026367,1.0240670442581177,0.1209716647863388
1772789690745788400,8.255788330078126,9.751993179321289,0.9905303716659546,0.13055357336997986
1772789690765888300,8.27588818359375,9.752592086791992,1.0049031972885132,0.11618071049451828
1772789690785988000,8.295988037109375,9.743010520935059,1.0144851207733154,0.13055357336997986
1772789690806088000,8.316087890625,9.738219261169434,1.0192761421203613,0.12576262652873993
1772789690826187500,8.3361875,9.738219261169434,1.0192761421203613,0.1018078401684761
1772789690866387200,8.37638720703125,9.761574745178223,1.0240670442581177,0.1209716647863388
1772789690886486800,8.39648681640625,9.761574745178223,1.0192761421203613,0.12576262652873993
1772789690906586600,8.416586669921875,9.743010520935059,1.0144851207733154,0.1209716647863388
1772789690946786300,8.456786376953126,9.761574745178223,1.03364896774292,0.1209716647863388
1772789690966886000,8.476885986328124,9.752592086791992,1.0192761421203613,0.1209716647863388
1772789690986985700,8.49698583984375,9.747800827026367,1.0049031972885132,0.13055357336997986
1772789691007085600,8.51708544921875,9.766366004943848,1.0001122951507568,0.11677958071231842
1772789691027185200,8.53718505859375,9.775947570800781,1.009694218635559,0.1119886189699173
1772789691047285000,8.557284912109376,9.761574745178223,1.0288580656051636,0.11677958071231842
1772789691067384800,8.577384765625,9.743010520935059,0.9857394099235535,0.12157053500413895
1772789691087484700,8.597484619140625,9.751993179321289,0.9953213334083557,0.10120896995067596
1772789691107584300,8.617584228515625,9.747201919555664,1.0240670442581177,0.12037279456853867
1772789691127684000,8.63768408203125,9.742411613464355,1.03364896774292,0.10599992424249649
1772789691147784000,8.657783935546876,9.756784439086914,1.0049031972885132,0.11079088598489761
1772789691167883500,8.677883544921874,9.775947570800781,1.0240670442581177,0.1251637488603592
1772789691187982600,8.697982666015625,9.761574745178223,1.0240670442581177,0.12037279456853867
1772789691208081700,8.71808154296875,9.766366004943848,1.0192761421203613,0.11558184027671814
1772789691228180700,8.7381806640625,9.747201919555664,1.0102931261062622,0.12037279456853867
1772789691268379000,8.77837890625,9.756784439086914,1.0150840282440186,0.11558184027671814
1772789691288477700,8.798477783203126,9.761574745178223,1.0240670442581177,0.1209716647863388
1772789691328675800,8.83867578125,9.752592086791992,0.9953213334083557,0.10719766467809677
1772789691348775000,8.85877490234375,9.747800827026367,1.0049031972885132,0.10719766467809677
1772789691368874000,8.8788740234375,9.733428001403809,1.023468255996704,0.1311524510383606
1772789691388973000,8.89897314453125,9.762173652648926,1.009095311164856,0.12636148929595947
1772789691409072000,8.919072021484375,9.762173652648926,1.0282591581344604,0.10719766467809677
1772789691429171200,8.939171142578125,9.747800827026367,1.0138863325119019,0.11677958071231842
1772789691449270000,8.95927001953125,9.752592086791992,1.009095311164856,0.1119886189699173
1772789691469369000,8.979369140625,9.76696491241455,0.980349600315094,0.11677958071231842
1772789691509567200,9.019567138671874,9.743010520935059,1.0240670442581177,0.12576262652873993
1772789691529666300,9.039666259765625,9.757383346557617,1.03364896774292,0.1209716647863388
1772789691549765400,9.059765380859375,9.761574745178223,1.0144851207733154,0.12576262652873993
1772789691569864400,9.079864501953125,9.775947570800781,1.009694218635559,0.1209716647863388
1772789691589963300,9.09996337890625,9.757383346557617,1.0192761421203613,0.09761574864387512
1772789691610062300,9.120062255859375,9.743010520935059,1.0192761421203613,0.10659879446029663
1772789691630161400,9.140161376953126,9.761574745178223,1.009694218635559,0.11138974875211716
1772789691650260500,9.160260498046876,9.766366004943848,0.9953213334083557,0.10659879446029663
1772789691670359800,9.18035986328125,9.752592086791992,1.0049031972885132,0.10659879446029663
1772789691690459600,9.200459716796875,9.747800827026367,1.023468255996704,0.1119886189699173
1772789691710559700,9.220559814453125,9.771157264709473,1.0043044090270996,0.10719766467809677
1772789691730659800,9.240659912109376,9.76696491241455,1.0186772346496582,0.12157053500413895
1772789691750759700,9.260759765625,9.757383346557617,1.0043044090270996,0.12636148929595947
1772789691770859800,9.28085986328125,9.752592086791992,1.0043044090270996,0.10719766467809677
1772789691790959600,9.300959716796875,9.752592086791992,0.9995134472846985,0.1119886189699173
1772789691811059700,9.321059814453125,9.775947570800781,1.023468255996704,0.12636148929595947
1772789691851259600,9.361259765625,9.743010520935059,1.0138863325119019,0.11677958071231842
1772789691871359700,9.38135986328125,9.738219261169434,1.0138863325119019,0.12636148929595947
1772789691891459800,9.4014599609375,9.766366004943848,1.009694218635559,0.10719766467809677
1772789691911559700,9.4215595703125,9.761574745178223,1.009694218635559,0.10240671038627625
1772789691951760000,9.461759765625,9.747800827026367,1.009694218635559,0.1209716647863388
1772789691971859700,9.481859619140625,9.743010520935059,1.0049031972885132,0.10719766467809677
1772789691991959800,9.501959716796875,9.752592086791992,1.009694218635559,0.11618071049451828
1772789692012059600,9.5220595703125,9.761574745178223,1.009694218635559,0.11138974875211716
1772789692032159700,9.54215966796875,9.752592086791992,1.009694218635559,0.11138974875211716
1772789692052259800,9.562259765625,9.747800827026367,1.0144851207733154,0.13055357336997986
1772789692072359700,9.582359619140625,9.743010520935059,1.0192761421203613,0.11138974875211716
1772789692092459800,9.602459716796876,9.747800827026367,1.009095311164856,0.11677958071231842
1772789692112559600,9.6225595703125,9.752592086791992,1.0138863325119019,0.12216940522193909
1772789692152759800,9.662759765625,9.76696491241455,1.0138863325119019,0.12216940522193909
1772789692172859600,9.682859619140626,9.757383346557617,1.0186772346496582,0.13175131380558014
1772789692192959700,9.702959716796874,9.747800827026367,1.0043044090270996,0.1269603669643402
1772789692213059800,9.723059814453125,9.743010520935059,1.0138863325119019,0.1269603669643402
1772789692253260000,9.763260009765625,9.757383346557617,1.0043044090270996,0.09821461886167526
1772789692273360100,9.783360107421874,9.752592086791992,1.0043044090270996,0.11258748918771744
1772789692293460200,9.803460205078125,9.747800827026367,1.0043044090270996,0.11737845093011856
1772789692313560300,9.823560302734375,9.762173652648926,0.9899315237998962,0.10779653489589691
1772789692353760500,9.863760498046876,9.747800827026367,1.023468255996704,0.10779653489589691
1772789692373860600,9.883860595703124,9.757383346557617,1.0186772346496582,0.11258748918771744
1772789692393960700,9.903960693359375,9.738219261169434,1.0186772346496582,0.11258748918771744
1772789692434161000,9.944160888671876,9.762173652648926,1.009095311164856,0.10300558060407639
1772789692454260700,9.9642607421875,9.738219261169434,1.023468255996704,0.12216940522193909
1772789692474360800,9.98436083984375,9.747800827026367,1.0330501794815063,0.10300558060407639
1772789692494461000,10.0044609375,9.776546478271484,1.0330501794815063,0.10300558060407639
1772789692514561000,10.02456103515625,9.771756172180176,1.0138863325119019,0.1269603669643402
1772789692534661000,10.0446611328125,9.734026908874512,1.0043044090270996,0.1269603669643402
1772789692554761200,10.06476123046875,9.738818168640137,1.0138863325119019,0.1269603669643402
1772789692574861300,10.084861328125,9.762173652648926,1.0186772346496582,0.12216940522193909
1772789692594961400,10.10496142578125,9.757383346557617,1.0282591581344604,0.12216940522193909
1772789692615061500,10.1250615234375,9.757383346557617,1.023468255996704,0.11318635940551758
1772789692635161600,10.14516162109375,9.752592086791992,1.0043044090270996,0.1179773211479187
1772789692655261700,10.16526171875,9.743609428405762,1.0043044090270996,0.1179773211479187
1772789692695460900,10.2054609375,9.76696491241455,0.9995134472846985,0.12216940522193909
1772789692715560200,10.225560302734374,9.757383346557617,1.009095311164856,0.09821461886167526
1772789692735659500,10.245659423828124,9.752592086791992,0.9995134472846985,0.11258748918771744
1772789692755758800,10.2657587890625,9.757383346557617,0.9947224855422974,0.12216940522193909
1772789692775858400,10.2858583984375,9.747800827026367,1.0043044090270996,0.12216940522193909
1772789692795957800,10.305957763671875,9.752592086791992,1.0282591581344604,0.11737845093011856
1772789692836156400,10.346156494140626,9.752592086791992,1.0330501794815063,0.12216940522193909
1772789692856256000,10.366256103515624,9.743010520935059,1.0138863325119019,0.10779653489589691
1772789692876355300,10.386355224609375,9.762173652648926,1.0186772346496582,0.1269603669643402
1772789692896454700,10.40645458984375,9.78133773803711,1.0132874250411987,0.11318635940551758
1772789692936653600,10.446653564453126,9.776546478271484,1.0276602506637573,0.13235019147396088
1772789692976852200,10.486852294921874,9.74839973449707,1.0132874250411987,0.12276827543973923
1772789692996951600,10.50695166015625,9.76696491241455,1.018078327178955,0.12336714565753937
1772789693017051100,10.527051025390625,9.762173652648926,0.984541654586792,0.12336714565753937
1772789693037150500,10.547150390625,9.74839973449707,1.018078327178955,0.1281581073999405
1772789693057249800,10.567249755859375,9.76696491241455,1.0037055015563965,0.09941235929727554
1772789693077349000,10.58734912109375,9.753190994262695,0.9989145398139954,0.10420331358909607
1772789693097448700,10.60744873046875,9.757383346557617,1.0084965229034424,0.12276827543973923
1772789693117548000,10.627548095703125,9.752592086791992,1.0132874250411987,0.11318635940551758
1772789693137647400,10.6476474609375,9.74839973449707,1.018078327178955,0.1179773211479187
1772789693157747000,10.667746826171875,9.76696491241455,1.0084965229034424,0.11318635940551758
1772789693177846000,10.687845947265625,9.752592086791992,1.0037055015563965,0.12276827543973923
1772789693218044200,10.728044189453126,9.752592086791992,1.0132874250411987,0.1179773211479187
1772789693238143200,10.748143310546874,9.762173652648926,1.018078327178955,0.1179773211479187
1772789693258242300,10.7682421875,9.757383346557617,1.0132874250411987,0.12755922973155975
1772789693278341400,10.78834130859375,9.752592086791992,0.9989145398139954,0.1179773211479187
1772789693298440400,10.8084404296875,9.753190994262695,0.9941235780715942,0.12336714565753937
1772789693318539500,10.82853955078125,9.734026908874512,1.018078327178955,0.12336714565753937
1772789693338638600,10.848638671875,9.753190994262695,1.022869348526001,0.11378522962331772
1772789693358737700,10.868737548828125,9.738818168640137,1.0084965229034424,0.13774001598358154
1772789693378836700,10.888836669921876,9.734026908874512,1.0276602506637573,0.12336714565753937
1772789693398936000,10.90893603515625,9.743609428405762,1.022869348526001,0.11378522962331772
1772789693419035000,10.929034912109374,9.753190994262695,1.0276602506637573,0.10899427533149719
1772789693439134000,10.949134033203125,9.75798225402832,1.018078327178955,0.13774001598358154
1772789693459233300,10.9692333984375,9.753190994262695,0.9893326163291931,0.12336714565753937
1772789693499431400,11.009431396484375,9.752592086791992,1.022869348526001,0.13235019147396088
1772789693519530500,11.029530517578126,9.752592086791992,1.0276602506637573,0.12276827543973923
1772789693539629600,11.049629638671876,9.74839973449707,1.0084965229034424,0.12755922973155975
1772789693559728600,11.069728759765624,9.747800827026367,0.9995134472846985,0.137141153216362
1772789693579827700,11.08982763671875,9.747800827026367,1.0138863325119019,0.12755922973155975
1772789693599926800,11.1099267578125,9.734026908874512,1.0186772346496582,0.13235019147396088
1772789693620025900,11.13002587890625,9.747800827026367,1.009095311164856,0.12755922973155975
1772789693640125000,11.150125,9.747800827026367,1.009095311164856,0.13235019147396088
1772789693660224000,11.17022412109375,9.76696491241455,1.0186772346496582,0.11318635940551758
1772789693680322800,11.19032275390625,9.762173652648926,0.9995134472846985,0.12216940522193909
1772789693700421400,11.21042138671875,9.729235649108887,1.0037055015563965,0.1281581073999405
1772789693720519700,11.230519775390626,9.738818168640137,1.0037055015563965,0.12336714565753937
1772789693760717000,11.270717041015626,9.75798225402832,0.9797507524490356,0.12336714565753937
1772789693780815400,11.2908154296875,9.738818168640137,1.0037055015563965,0.1281581073999405
1772789693800914000,11.310913818359374,9.762772560119629,0.9989145398139954,0.1281581073999405
1772789693821012700,11.3310126953125,9.762772560119629,0.9893326163291931,0.11378522962331772
1772789693841111000,11.351111083984375,9.762772560119629,1.0084965229034424,0.12336714565753937
1772789693861209600,11.371209716796875,9.767563819885254,1.0132874250411987,0.12875697016716003
1772789693901406700,11.41140673828125,9.743609428405762,1.0276602506637573,0.12336714565753937
1772789693921505300,11.43150537109375,9.753190994262695,1.0084965229034424,0.12336714565753937
1772789693941603800,11.451603759765625,9.753190994262695,1.022869348526001,0.11857619136571884
1772789693961702400,11.471702392578125,9.753190994262695,1.0084965229034424,0.12336714565753937
1772789693981801000,11.491801025390625,9.753190994262695,1.0132874250411987,0.12336714565753937
1772789694001899500,11.5118994140625,9.738818168640137,1.022869348526001,0.11857619136571884
1772789694021998000,11.531998046875,9.75798225402832,1.0084965229034424,0.11857619136571884
1772789694042096600,11.5520966796875,9.771756172180176,1.018078327178955,0.11857619136571884
1772789694062195200,11.5721953125,9.776546478271484,1.0037055015563965,0.1281581073999405
1772789694082293800,11.592293701171876,9.75798225402832,1.022869348526001,0.10899427533149719
1772789694102392300,11.612392333984374,9.767563819885254,1.0037055015563965,0.11378522962331772
1772789694122491000,11.632490966796874,9.75798225402832,1.018078327178955,0.11857619136571884
1772789694142589400,11.65258935546875,9.743609428405762,1.0084965229034424,0.10420331358909607
1772789694182787000,11.692787109375,9.771756172180176,1.018078327178955,0.11857619136571884
1772789694202886100,11.71288623046875,9.738818168640137,1.0037055015563965,0.10420331358909607
1772789694222985200,11.732985107421875,9.743609428405762,0.984541654586792,0.11378522962331772
1772789694243084500,11.75308447265625,9.762772560119629,0.9941235780715942,0.10899427533149719
1772789694283282700,11.79328271484375,9.762772560119629,1.0132874250411987,0.11857619136571884
1772789694303381800,11.8133818359375,9.771756172180176,1.018078327178955,0.11917505413293839
1772789694323481000,11.833481201171875,9.753190994262695,1.018078327178955,0.12396601587533951
1772789694343580200,11.853580078125,9.743609428405762,1.0084965229034424,0.12396601587533951
1772789694363679200,11.87367919921875,9.743609428405762,1.0318523645401,0.10480218380689621
1772789694403877600,11.913877685546876,9.74839973449707,1.0084965229034424,0.12875697016716003
1772789694423976700,11.933976806640626,9.743609428405762,1.0084965229034424,0.12875697016716003
1772789694464175000,11.974175048828124,9.753190994262695,0.9941235780715942,0.11917505413293839
1772789694484274200,11.994274169921875,9.738818168640137,0.9893326163291931,0.11438409984111786
1772789694504373200,12.014373291015625,9.762173652648926,1.0084965229034424,0.12276827543973923
1772789694544571600,12.054571533203125,9.76696491241455,1.0037055015563965,0.1179773211479187
1772789694584769800,12.094769775390626,9.757383346557617,1.0132874250411987,0.11318635940551758
1772789694604869000,12.114869140625,9.752592086791992,1.0132874250411987,0.11318635940551758
1772789694624968200,12.13496826171875,9.74839973449707,1.018078327178955,0.12276827543973923
1772789694645067300,12.1550673828125,9.771756172180176,1.0276602506637573,0.1179773211479187
1772789694665166300,12.175166259765625,9.757383346557617,0.9995134472846985,0.10839540511369705
1772789694685267000,12.195266845703125,9.752592086791992,0.9995134472846985,0.11318635940551758
1772789694705367300,12.2153671875,9.75798225402832,1.0031065940856934,0.10480218380689621
1772789694725468000,12.235468017578125,9.772355079650879,1.0126885175704956,0.11917505413293839
1772789694745568500,12.255568603515625,9.753190994262695,1.0031065940856934,0.12875697016716003
1772789694765669000,12.275669189453126,9.753190994262695,1.0031065940856934,0.12396601587533951
1772789694785769500,12.29576953125,9.74839973449707,1.0031065940856934,0.10480218380689621
1772789694805870000,12.3158701171875,9.74839973449707,1.0031065940856934,0.10540105402469635
1772789694846071000,12.356071044921874,9.777145385742188,1.0078976154327393,0.12456488609313965
1772789694866171600,12.376171630859375,9.74839973449707,1.0174795389175415,0.11019201576709747
1772789694886272300,12.396272216796875,9.75798225402832,1.0174795389175415,0.11438409984111786
1772789694906372900,12.416372802734376,9.762772560119629,1.0031065940856934,0.10959314554929733
1772789694926473200,12.43647314453125,9.762772560119629,1.0222704410552979,0.12396601587533951
1772789694946573800,12.45657373046875,9.75798225402832,1.0174795389175415,0.10001122951507568
1772789694966674400,12.47667431640625,9.74839973449707,1.0078976154327393,0.11438409984111786
1772789694986774800,12.49677490234375,9.762772560119629,1.0222704410552979,0.11917505413293839
1772789695006875400,12.51687548828125,9.767563819885254,1.0078976154327393,0.11438409984111786
1772789695026976000,12.53697607421875,9.753190994262695,1.0126885175704956,0.12396601587533951
1772789695047076600,12.55707666015625,9.75798225402832,0.9893326163291931,0.10959314554929733
1772789695067177000,12.577177001953125,9.762772560119629,0.9887337684631348,0.11917505413293839
1772789695087277600,12.597277587890625,9.753190994262695,1.0126885175704956,0.12396601587533951
1772789695107378200,12.617378173828126,9.734625816345215,1.0222704410552979,0.12396601587533951
1772789695127478500,12.637478515625,9.743609428405762,1.0078976154327393,0.11438409984111786
1772789695147579100,12.6575791015625,9.75798225402832,1.0318523645401,0.11438409984111786
1772789695167679700,12.6776796875,9.75798225402832,1.0126885175704956,0.12875697016716003
1772789695187779800,12.69777978515625,9.762772560119629,1.0126885175704956,0.10480218380689621
1772789695207880200,12.717880126953125,9.743609428405762,1.0270614624023438,0.10959314554929733
1772789695227980500,12.73798046875,9.74839973449707,1.036643385887146,0.11917505413293839
1772789695248081000,12.758080810546875,9.753190994262695,0.998315691947937,0.11917505413293839
1772789695288281300,12.79828125,9.73941707611084,0.998315691947937,0.114982970058918
1772789695308381700,12.818381591796875,9.762772560119629,0.9935247302055359,0.10540105402469635
1772789695328482000,12.83848193359375,9.753190994262695,0.998315691947937,0.12456488609313965
1772789695348582400,12.85858251953125,9.748998641967773,1.0222704410552979,0.11977392435073853
1772789695368682500,12.8786826171875,9.772355079650879,1.0126885175704956,0.12456488609313965
1772789695388782800,12.898782958984375,9.75798225402832,1.0222704410552979,0.11977392435073853
1772789695408883200,12.91888330078125,9.762772560119629,1.0126885175704956,0.11977392435073853
1772789695428983600,12.938983642578124,9.75798225402832,1.0126885175704956,0.11977392435073853
1772789695449083600,12.959083740234375,9.744207382202148,1.0270614624023438,0.1251637488603592
1772789695469184000,12.97918408203125,9.75798225402832,1.0216716527938843,0.11558184027671814
1772789695489284400,12.999284423828126,9.772355079650879,1.0126885175704956,0.11019201576709747
1772789695509384700,13.019384765625,9.75798225402832,0.998315691947937,0.11977392435073853
1772789695529484800,13.03948486328125,9.781936645507812,1.0174795389175415,0.11019201576709747
1772789695549585200,13.059585205078125,9.74839973449707,1.0174795389175415,0.12456488609313965
1772789695569685500,13.079685546875,9.74839973449707,1.0222704410552979,0.12396601587533951
1772789695589785900,13.099785888671875,9.762772560119629,1.0126885175704956,0.114982970058918
1772789695609886200,13.11988623046875,9.753190994262695,1.0078976154327393,0.11019201576709747
1772789695629986300,13.139986328125,9.73941707611084,0.9935247302055359,0.10480218380689621
1772789695650086700,13.160086669921874,9.75798225402832,1.0078976154327393,0.11917505413293839
1772789695670186800,13.180186767578125,9.75798225402832,1.0270614624023438,0.12875697016716003
1772789695690285800,13.200285888671875,9.767563819885254,1.0126885175704956,0.11917505413293839
1772789695710385000,13.220385009765625,9.720252990722656,1.0222704410552979,0.12875697016716003
1772789695750583300,13.260583251953125,9.762772560119629,1.0126885175704956,0.12875697016716003
1772789695770682400,13.280682373046876,9.74839973449707,0.998315691947937,0.12396601587533951
1772789695790781400,13.300781494140624,9.75798225402832,0.9935247302055359,0.12396601587533951
1772789695810880800,13.320880859375,9.767563819885254,0.998315691947937,0.11917505413293839
1772789695830979800,13.340979736328125,9.767563819885254,0.998315691947937,0.11438409984111786
1772789695851079000,13.361078857421875,9.738818168640137,1.0078976154327393,0.11917505413293839
1772789695871178200,13.38117822265625,9.74839973449707,1.0318523645401,0.10480218380689621
1772789695891277300,13.40127734375,9.767563819885254,1.0174795389175415,0.114982970058918
1772789695911376400,13.42137646484375,9.744207382202148,1.0078976154327393,0.12456488609313965
1772789695931475500,13.441475341796876,9.753190994262695,0.998315691947937,0.114982970058918
1772789695951574800,13.46157470703125,9.772355079650879,1.0031065940856934,0.1341467946767807
1772789695991773000,13.50177294921875,9.734625816345215,1.0126885175704956,0.10599992424249649
1772789696011872300,13.521872314453125,9.753789901733398,1.0174795389175415,0.12037279456853867
1772789696031971300,13.541971435546875,9.744207382202148,1.0126885175704956,0.12995471060276031
1772789696052070400,13.5620703125,9.753789901733398,1.0264625549316406,0.11558184027671814
1772789696072169500,13.58216943359375,9.753789901733398,1.012089729309082,0.11558184027671814
1772789696092268800,13.602268798828124,9.748998641967773,1.0072987079620361,0.11558184027671814
1772789696112367900,13.622367919921874,9.763371467590332,0.9881349205970764,0.12995471060276031
1772789696132467000,13.642467041015625,9.767563819885254,1.012089729309082,0.11558184027671814
1772789696152566300,13.662566162109375,9.767563819885254,1.0168806314468384,0.12037279456853867
1772789696172665000,13.6826650390625,9.763371467590332,0.9977167844772339,0.11558184027671814
1772789696192764000,13.702763916015625,9.744207382202148,0.9977167844772339,0.11558184027671814
1772789696212862500,13.722862548828125,9.763371467590332,1.0264625549316406,0.1251637488603592
1772789696232961000,13.7429609375,9.73941707611084,1.0072987079620361,0.11138974875211716
1772789696253059800,13.763059814453126,9.763371467590332,1.0216716527938843,0.11618071049451828
1772789696293257200,13.80325732421875,9.744207382202148,1.0078976154327393,0.114982970058918
1772789696313355800,13.823355712890624,9.767563819885254,0.998315691947937,0.1341467946767807
1772789696353553400,13.863553466796875,9.781936645507812,1.0174795389175415,0.12456488609313965
1772789696373652000,13.88365185546875,9.753190994262695,1.0126885175704956,0.11019201576709747
1772789696393750500,13.90375048828125,9.744207382202148,1.0078976154327393,0.10540105402469635
1772789696413849300,13.923849365234375,9.75798225402832,1.0126885175704956,0.11977392435073853
1772789696454046700,13.964046630859375,9.762772560119629,1.0031065940856934,0.114982970058918
1772789696474145300,13.984145263671875,9.767563819885254,1.0126885175704956,0.11019201576709747
1772789696494244000,14.004244140625,9.753789901733398,1.0072987079620361,0.12037279456853867
1772789696534441500,14.04444140625,9.758581161499023,1.0025078058242798,0.11079088598489761
1772789696574638800,14.084638916015624,9.753789901733398,1.0072987079620361,0.11618071049451828
1772789696594737400,14.1047373046875,9.748998641967773,1.0072987079620361,0.11618071049451828
1772789696614836200,14.124836181640624,9.72983455657959,1.0216716527938843,0.1209716647863388
1772789696634934800,14.144934814453125,9.744207382202148,1.031253457069397,0.11138974875211716
1772789696655033600,14.16503369140625,9.753789901733398,1.012089729309082,0.1209716647863388
1772789696675133000,14.1851328125,9.748998641967773,0.9881349205970764,0.11618071049451828
1772789696695233300,14.2052333984375,9.73941707611084,1.0031065940856934,0.11558184027671814
1772789696735434000,14.24543408203125,9.744207382202148,0.9935247302055359,0.114982970058918
1772789696775634700,14.285634765625,9.781936645507812,1.0126885175704956,0.114982970058918
1772789696795735000,14.305735107421874,9.767563819885254,0.998315691947937,0.11019201576709747
1772789696815835400,14.32583544921875,9.753190994262695,1.0174795389175415,0.12456488609313965
1772789696835935700,14.345935791015625,9.748998641967773,0.998315691947937,0.114982970058918
1772789696856036000,14.3660361328125,9.748998641967773,0.9791518449783325,0.114982970058918
1772789696896236800,14.40623681640625,9.762772560119629,1.0174795389175415,0.1341467946767807
1772789696916337200,14.426337158203125,9.744207382202148,1.0025078058242798,0.12037279456853867
1772789696956537900,14.466537841796875,9.744207382202148,1.0072987079620361,0.11079088598489761
1772789696976638200,14.48663818359375,9.748998641967773,1.0168806314468384,0.11558184027671814
1772789696996738600,14.506738525390626,9.753789901733398,1.0025078058242798,0.11558184027671814
1772789697016839000,14.5268388671875,9.758581161499023,1.0072987079620361,0.1251637488603592
1772789697036939300,14.546939208984375,9.763371467590332,1.0168806314468384,0.1251637488603592
1772789697057039600,14.56703955078125,9.73941707611084,1.0168806314468384,0.11079088598489761
1772789697097240300,14.607240234375,9.768162727355957,1.0025078058242798,0.12995471060276031
1772789697117340700,14.627340576171875,9.753789901733398,1.0126885175704956,0.1251637488603592
1772789697157541400,14.667541259765626,9.75798225402832,1.0126885175704956,0.10599992424249649
1772789697177641000,14.687640869140624,9.75798225402832,1.0222704410552979,0.11019201576709747
1772789697197740300,14.707740234375,9.744207382202148,1.0126885175704956,0.11977392435073853
1772789697217839400,14.72783935546875,9.753190994262695,1.0078976154327393,0.114982970058918
1772789697237938700,14.747938720703125,9.75798225402832,1.0031065940856934,0.12456488609313965
1772789697258038000,14.7680380859375,9.748998641967773,1.0222704410552979,0.12456488609313965
1772789697278137000,14.78813720703125,9.748998641967773,1.0126885175704956,0.11977392435073853
1772789697298236400,14.808236328125,9.762772560119629,0.9887337684631348,0.11019201576709747
1772789697318335700,14.828335693359374,9.753789901733398,1.0072987079620361,0.10120896995067596
1772789697338434800,14.848434814453125,9.748998641967773,1.012089729309082,0.11558184027671814
1772789697358534100,14.8685341796875,9.758581161499023,1.0025078058242798,0.11138974875211716
1772789697398732500,14.908732666015625,9.744207382202148,1.0072987079620361,0.11618071049451828
1772789697418832000,14.928831787109376,9.763371467590332,1.0168806314468384,0.11618071049451828
1772789697438931000,14.948930908203126,9.758581161499023,1.012089729309082,0.11138974875211716
1772789697459030300,14.9690302734375,9.744207382202148,1.0168806314468384,0.10659879446029663
1772789697479129600,14.989129638671875,9.753789901733398,1.0072987079620361,0.12576262652873993
1772789697519328000,15.029327880859375,9.777145385742188,1.0072987079620361,0.10599992424249649
1772789697559526400,15.0695263671875,9.772355079650879,1.0025078058242798,0.10659879446029663
1772789697579625700,15.089625732421876,9.758581161499023,0.9977167844772339,0.12037279456853867
1772789697599724800,15.109724853515624,9.758581161499023,0.9977167844772339,0.1251637488603592
1772789697619824000,15.12982421875,9.748998641967773,0.9881349205970764,0.11138974875211716
1772789697639923500,15.14992333984375,9.758581161499023,0.9929258823394775,0.11138974875211716
1772789697660022500,15.1700224609375,9.744207382202148,0.9929258823394775,0.1251637488603592
1772789697680121600,15.19012158203125,9.73941707611084,1.0072987079620361,0.12037279456853867
1772789697720320300,15.2303203125,9.758581161499023,1.0264625549316406,0.12576262652873993
1772789697740419300,15.25041943359375,9.763371467590332,1.0168806314468384,0.12576262652873993
1772789697760518700,15.2705185546875,9.768162727355957,1.0216716527938843,0.11618071049451828
1772789697780618000,15.290617919921875,9.748998641967773,1.012089729309082,0.1209716647863388
1772789697800717000,15.310717041015625,9.734625816345215,0.9929258823394775,0.1209716647863388
1772789697820816400,15.33081640625,9.748998641967773,0.9929258823394775,0.10659879446029663
1772789697861014800,15.371014892578126,9.734625816345215,1.012089729309082,0.11618071049451828
1772789697881114000,15.391114013671874,9.748998641967773,1.0025078058242798,0.12576262652873993
1772789697901213400,15.41121337890625,9.748998641967773,1.0360444784164429,0.1209716647863388
1772789697921312500,15.4313125,9.758581161499023,1.0072987079620361,0.12037279456853867
1772789697961511200,15.47151123046875,9.748998641967773,1.012089729309082,0.11558184027671814
1772789697981610200,15.4916103515625,9.753789901733398,1.0025078058242798,0.10120896995067596
1772789698001709600,15.51170947265625,9.767563819885254,1.012089729309082,0.12037279456853867
1772789698021808600,15.53180859375,9.748998641967773,0.9977167844772339,0.11558184027671814
1772789698041908000,15.551907958984375,9.753789901733398,1.012089729309082,0.1251637488603592
1772789698062007300,15.57200732421875,9.758581161499023,1.0072987079620361,0.12037279456853867
1772789698082106400,15.5921064453125,9.748998641967773,0.9929258823394775,0.10599992424249649
1772789698102205700,15.612205810546875,9.748998641967773,1.0072987079620361,0.11558184027671814
1772789698122305000,15.632304931640626,9.763371467590332,1.0216716527938843,0.12037279456853867
1772789698142404000,15.652404052734376,9.758581161499023,0.9977167844772339,0.12037279456853867
1772789698162503400,15.67250341796875,9.772355079650879,1.0072987079620361,0.12037279456853867
1772789698182602500,15.6926025390625,9.772355079650879,1.0025078058242798,0.12037279456853867
1772789698202701300,15.712701416015625,9.772355079650879,1.012089729309082,0.12037279456853867
1772789698222800400,15.73280029296875,9.744207382202148,0.9977167844772339,0.10599992424249649
1772789698242899500,15.7528994140625,9.762772560119629,1.0072987079620361,0.12037279456853867
1772789698262998500,15.77299853515625,9.753789901733398,1.0025078058242798,0.11558184027671814
1772789698283097300,15.793097412109375,9.758581161499023,1.0025078058242798,0.10599992424249649
1772789698303196400,15.813196533203126,9.753789901733398,1.0168806314468384,0.1251637488603592
1772789698323295500,15.83329541015625,9.753789901733398,1.0072987079620361,0.12037279456853867
1772789698343394600,15.85339453125,9.753789901733398,1.0264625549316406,0.11558184027671814
1772789698363493400,15.873493408203124,9.753789901733398,1.0025078058242798,0.11079088598489761
1772789698383592400,15.893592529296875,9.777145385742188,1.0072987079620361,0.12037279456853867
1772789698403691500,15.91369140625,9.758581161499023,1.0216716527938843,0.11558184027671814
1772789698443889400,15.953889404296875,9.744207382202148,1.0072987079620361,0.11558184027671814
1772789698463988500,15.973988525390626,9.734625816345215,1.0168806314468384,0.11138974875211716
1772789698484087600,15.994087646484376,9.758581161499023,1.0216716527938843,0.10659879446029663
1772789698504186600,16.0141865234375,9.758581161499023,1.012089729309082,0.10659879446029663
1772789698524285400,16.034285400390626,9.72983455657959,0.9977167844772339,0.1209716647863388
1772789698544384500,16.054384521484376,9.753789901733398,1.012089729309082,0.11618071049451828
1772789698564483600,16.074483642578127,9.763371467590332,1.0072987079620361,0.10659879446029663
1772789698584582700,16.094582763671873,9.763371467590332,0.9929258823394775,0.09701687842607498
1772789698604681500,16.114681396484375,9.730433464050293,1.012089729309082,0.10659879446029663
1772789698624780500,16.134780517578125,9.73941707611084,1.012089729309082,0.11138974875211716
1772789698644879600,16.154879638671876,9.758581161499023,1.0216716527938843,0.11618071049451828
1772789698685078800,16.195078857421876,9.753789901733398,1.0216716527938843,0.1209716647863388
1772789698725279200,16.235279296875,9.781936645507812,1.012089729309082,0.12576262652873993
1772789698745379300,16.25537939453125,9.753789901733398,1.012089729309082,0.11618071049451828
1772789698765479400,16.2754794921875,9.753789901733398,1.0025078058242798,0.13055357336997986
1772789698785579800,16.295579833984377,9.753789901733398,1.012089729309082,0.12576262652873993
1772789698805679900,16.315679931640624,9.748998641967773,1.0168806314468384,0.12157053500413895
1772789698825780200,16.3357802734375,9.740015983581543,1.0168806314468384,0.12157053500413895
1772789698845880300,16.35588037109375,9.744207382202148,1.0162817239761353,0.12636148929595947
1772789698865980700,16.375980712890627,9.748998641967773,1.011490821838379,0.12157053500413895
1772789698886080800,16.396080810546874,9.758581161499023,0.9977167844772339,0.1119886189699173
1772789698906181000,16.41618115234375,9.753789901733398,1.0019088983535767,0.12157053500413895
1772789698926281200,16.43628125,9.748998641967773,0.9977167844772339,0.13055357336997986
1772789698946381300,16.45638134765625,9.758581161499023,0.9977167844772339,0.1209716647863388
1772789698966481700,16.476481689453124,9.748998641967773,1.0025078058242798,0.12576262652873993
1772789699006682000,16.51668212890625,9.758581161499023,0.9977167844772339,0.11558184027671814
1772789699026782200,16.5367822265625,9.748998641967773,1.0216716527938843,0.11079088598489761
1772789699046882600,16.556882568359374,9.763371467590332,1.0216716527938843,0.11558184027671814
1772789699087082800,16.597082763671875,9.748998641967773,1.012089729309082,0.11079088598489761
1772789699127283200,16.637283203125,9.748998641967773,1.011490821838379,0.12636148929595947
1772789699147383600,16.657383544921874,9.740015983581543,1.011490821838379,0.11677958071231842
1772789699167483600,16.677483642578125,9.748998641967773,1.0258636474609375,0.1119886189699173
1772789699187582500,16.69758251953125,9.744806289672852,1.0210727453231812,0.1119886189699173
1772789699207681000,16.717680908203125,9.753789901733398,0.9971179366111755,0.12636148929595947
1772789699227779800,16.73777978515625,9.772953987121582,1.0210727453231812,0.1119886189699173
1772789699247878700,16.757878662109373,9.753789901733398,1.0210727453231812,0.12636148929595947
1772789699267977500,16.7779775390625,9.740015983581543,1.0258636474609375,0.12157053500413895
1772789699288076300,16.798076171875,9.744806289672852,1.011490821838379,0.12636148929595947
1772789699308175000,16.818175048828124,9.77774429321289,0.9971179366111755,0.10300558060407639
1772789699328274000,16.83827392578125,9.758581161499023,0.9977167844772339,0.11677958071231842
1772789699348372700,16.858372802734376,9.725643157958984,0.9977167844772339,0.12636148929595947
1772789699368471300,16.87847119140625,9.753789901733398,1.0162817239761353,0.1119886189699173
1772789699388570000,16.898570068359376,9.768162727355957,1.0025078058242798,0.10719766467809677
1772789699408669000,16.9186689453125,9.768162727355957,0.9929258823394775,0.12636148929595947
1772789699428767700,16.938767822265625,9.782535552978516,1.006699800491333,0.1119886189699173
1772789699448866600,16.958866455078127,9.740015983581543,1.0025078058242798,0.10719766467809677
1772789699468965400,16.97896533203125,9.725643157958984,1.011490821838379,0.12636148929595947
1772789699489064200,16.999064208984375,9.758581161499023,1.0258636474609375,0.14073435962200165
1772789699529261600,17.039261474609376,9.763371467590332,1.0025078058242798,0.11618071049451828
1772789699549360400,17.0593603515625,9.73941707611084,1.012089729309082,0.10659879446029663
1772789699569459200,17.079459228515624,9.753789901733398,0.9929258823394775,0.10659879446029663
1772789699589558000,17.09955810546875,9.768162727355957,1.0072987079620361,0.11618071049451828
1772789699609656800,17.11965673828125,9.772953987121582,1.0072987079620361,0.1209716647863388
1772789699649854200,17.159854248046877,9.744207382202148,1.0216716527938843,0.11138974875211716
1772789699669953000,17.179953125,9.730433464050293,1.0072987079620361,0.10659879446029663
1772789699690051800,17.2000517578125,9.744207382202148,1.0072987079620361,0.11618071049451828
1772789699710150700,17.220150634765623,9.768162727355957,1.0025078058242798,0.1209716647863388
1772789699730249500,17.24024951171875,9.754388809204102,1.006699800491333,0.1269603669643402
1772789699750348000,17.26034814453125,9.749597549438477,0.9971179366111755,0.10300558060407639
1772789699770446800,17.28044677734375,9.735224723815918,1.0019088983535767,0.11258748918771744
1772789699790545700,17.300545654296876,9.768162727355957,1.0210727453231812,0.1269603669643402
1772789699810644500,17.32064453125,9.768162727355957,1.0210727453231812,0.12216940522193909
1772789699830743300,17.340743408203124,9.754388809204102,1.0162817239761353,0.1179773211479187
1772789699850842000,17.360842041015626,9.749597549438477,1.0156829357147217,0.1179773211479187
1772789699891039500,17.40103955078125,9.754388809204102,0.9869371652603149,0.13235019147396088
1772789699911138300,17.42113818359375,9.763970375061035,1.020473837852478,0.11318635940551758
1772789699931237000,17.441237060546875,9.744207382202148,1.0216716527938843,0.11138974875211716
1772789699951336000,17.4613359375,9.753789901733398,1.0168806314468384,0.12576262652873993
1772789699971434500,17.4814345703125,9.73941707611084,1.012089729309082,0.11618071049451828
1772789700011632000,17.521632080078124,9.748998641967773,0.9929258823394775,0.11138974875211716
1772789700031731000,17.54173095703125,9.758581161499023,1.012089729309082,0.11618071049451828
1772789700051829800,17.561829833984376,9.758581161499023,1.0072987079620361,0.11618071049451828
1772789700071928300,17.58192822265625,9.753789901733398,1.0025078058242798,0.11138974875211716
1772789700092027100,17.602027099609376,9.767563819885254,1.0264625549316406,0.11079088598489761
1772789700112126000,17.6221259765625,9.753789901733398,1.012089729309082,0.12037279456853867
1772789700132224800,17.642224853515625,9.75917911529541,1.0019088983535767,0.1269603669643402
1772789700152323600,17.662323486328123,9.75917911529541,1.006699800491333,0.11318635940551758
1772789700172422700,17.682422607421874,9.749597549438477,1.0019088983535767,0.12276827543973923
1772789700192522800,17.702522705078124,9.754388809204102,0.9917281270027161,0.1179773211479187
1772789700212622800,17.722622802734374,9.76876163482666,1.0108919143676758,0.10360444337129593
1772789700232723000,17.742722900390625,9.75917911529541,1.020473837852478,0.11318635940551758
1772789700252822800,17.76282275390625,9.749597549438477,1.0013099908828735,0.1179773211479187
1772789700272923000,17.7829228515625,9.76876163482666,1.0013099908828735,0.1281581073999405
1772789700293023000,17.80302294921875,9.749597549438477,1.0108919143676758,0.12336714565753937
1772789700313123000,17.823123046875,9.76876163482666,1.0156829357147217,0.11378522962331772
1772789700333223200,17.84322314453125,9.77774429321289,0.9977167844772339,0.1119886189699173
1772789700353323300,17.8633232421875,9.772953987121582,0.9977167844772339,0.12157053500413895
1772789700373423400,17.88342333984375,9.753789901733398,1.0168806314468384,0.11618071049451828
1772789700413623300,17.923623291015623,9.748998641967773,1.0168806314468384,0.13055357336997986
1772789700433723400,17.943723388671874,9.73941707611084,0.9977167844772339,0.11138974875211716
1772789700453823500,17.963823486328124,9.744207382202148,0.9977167844772339,0.11138974875211716
1772789700473923600,17.983923583984375,9.772355079650879,1.0168806314468384,0.12576262652873993
1772789700494023700,18.004023681640625,9.758581161499023,1.0025078058242798,0.11618071049451828
1772789700514123800,18.024123779296875,9.753789901733398,1.012089729309082,0.11618071049451828
1772789700534223600,18.0442236328125,9.763371467590332,1.031253457069397,0.12576262652873993
1772789700554323700,18.06432373046875,9.753789901733398,1.0168806314468384,0.1209716647863388
1772789700574423800,18.084423828125,9.758581161499023,1.012089729309082,0.11138974875211716
1772789700594524000,18.10452392578125,9.758581161499023,0.9977167844772339,0.11618071049451828
1772789700614624000,18.1246240234375,9.772355079650879,1.0168806314468384,0.12037279456853867
1772789700634723800,18.144723876953126,9.763371467590332,1.0072987079620361,0.11558184027671814
1772789700654824200,18.16482421875,9.753789901733398,1.0025078058242798,0.11079088598489761
1772789700695024400,18.2050244140625,9.758581161499023,1.0025078058242798,0.11558184027671814
1772789700715124700,18.225124755859376,9.758581161499023,1.0210727453231812,0.12636148929595947
1772789700735225000,18.24522509765625,9.749597549438477,1.0019088983535767,0.11677958071231842
1772789700775425800,18.28542578125,9.740015983581543,1.0162817239761353,0.12636148929595947
1772789700795526100,18.305526123046874,9.763371467590332,1.0306546688079834,0.11737845093011856
1772789700815626500,18.32562646484375,9.772953987121582,1.006699800491333,0.12216940522193909
1772789700835726800,18.345726806640624,9.754388809204102,1.011490821838379,0.11258748918771744
1772789700855827000,18.365826904296874,9.763371467590332,0.9971179366111755,0.1269603669643402
1772789700875927300,18.38592724609375,9.768162727355957,1.006699800491333,0.13654227554798126
1772789700896027600,18.406027587890627,9.735224723815918,1.0019088983535767,0.1269603669643402
1772789700916128000,18.4261279296875,9.749597549438477,1.0162817239761353,0.11258748918771744
1772789700936228400,18.446228271484376,9.75917911529541,1.011490821838379,0.1269603669643402
1772789700956328700,18.46632861328125,9.749597549438477,1.011490821838379,0.12216940522193909
1772789700976429000,18.486428955078125,9.754388809204102,1.011490821838379,0.12276827543973923
1772789700996529200,18.506529052734376,9.740015983581543,1.0108919143676758,0.12755922973155975
1772789701016629500,18.52662939453125,9.75917911529541,1.020473837852478,0.12755922973155975
1772789701036729900,18.546729736328125,9.763970375061035,1.0061010122299194,0.12276827543973923
1772789701076930600,18.5869306640625,9.740015983581543,1.025264859199524,0.1179773211479187
1772789701097031000,18.607031005859376,9.749597549438477,1.0013099908828735,0.12276827543973923
1772789701117131300,18.62713134765625,9.744806289672852,1.006699800491333,0.12216940522193909
1772789701137231600,18.647231689453125,9.749597549438477,1.0210727453231812,0.11258748918771744
1772789701157331700,18.667331787109376,9.763371467590332,1.0019088983535767,0.11737845093011856
1772789701177431600,18.687431640625,9.754388809204102,1.006699800491333,0.12216940522193909
1772789701197531100,18.70753125,9.758581161499023,1.006699800491333,0.13175131380558014
1772789701237730000,18.74772998046875,9.77774429321289,0.9971179366111755,0.12157053500413895
1772789701277929200,18.78792919921875,9.730433464050293,1.0210727453231812,0.1311524510383606
1772789701298028500,18.808028564453124,9.753789901733398,1.0019088983535767,0.12157053500413895
1772789701318128000,18.828128173828127,9.753789901733398,1.006699800491333,0.12636148929595947
1772789701338227700,18.848227783203125,9.768162727355957,1.0162817239761353,0.13594341278076172
1772789701358327000,18.8683271484375,9.768162727355957,1.0258636474609375,0.12636148929595947
1772789701378426600,18.888426513671874,9.768162727355957,0.9923269748687744,0.1119886189699173
1772789701398526200,18.908526123046876,9.768162727355957,1.006699800491333,0.11677958071231842
1772789701418625500,18.92862548828125,9.758581161499023,1.0162817239761353,0.1311524510383606
1772789701438725000,18.94872509765625,9.753789901733398,0.9977167844772339,0.12636148929595947
1772789701458824700,18.96882470703125,9.758581161499023,1.0025078058242798,0.12157053500413895
1772789701478924000,18.988924072265625,9.758581161499023,1.0306546688079834,0.1311524510383606
1772789701499023600,19.009023681640624,9.748998641967773,1.0168806314468384,0.1209716647863388
1772789701519123200,19.029123291015626,9.744806289672852,1.0061010122299194,0.12276827543973923
1772789701559322000,19.069322021484375,9.740015983581543,1.025264859199524,0.10360444337129593
1772789701579421400,19.08942138671875,9.75917911529541,1.025264859199524,0.12755922973155975
1772789701599521000,19.10952099609375,9.754388809204102,1.0061010122299194,0.12755922973155975
1772789701619620600,19.12962060546875,9.754388809204102,1.0108919143676758,0.12336714565753937
1772789701639720000,19.149719970703124,9.75917911529541,0.9965190887451172,0.12336714565753937
1772789701679918800,19.1899189453125,9.749597549438477,1.025264859199524,0.1281581073999405
1772789701720117200,19.2301171875,9.77774429321289,1.0019088983535767,0.1269603669643402
1772789701740216600,19.250216552734376,9.744806289672852,1.006699800491333,0.13175131380558014
1772789701760316000,19.27031591796875,9.749597549438477,1.0162817239761353,0.1311524510383606
1772789701780415200,19.290415283203124,9.768162727355957,0.9971179366111755,0.1119886189699173
1772789701800514300,19.310514404296875,9.772953987121582,1.0210727453231812,0.1119886189699173
1772789701820613600,19.330613525390625,9.772953987121582,0.9971179366111755,0.12157053500413895
1772789701840713000,19.350712890625,9.748998641967773,0.9971179366111755,0.10719766467809677
1772789701860812000,19.37081201171875,9.758581161499023,1.0019088983535767,0.11677958071231842
1772789701880911400,19.390911376953124,9.740015983581543,1.011490821838379,0.12157053500413895
1772789701901010700,19.4110107421875,9.748998641967773,0.9977167844772339,0.1119886189699173
1772789701921109800,19.43110986328125,9.75917911529541,0.9971179366111755,0.13654227554798126
1772789701941209000,19.451208984375,9.744806289672852,1.0019088983535767,0.1269603669643402
1772789701961308400,19.471308349609377,9.744806289672852,1.006699800491333,0.12276827543973923
1772789701981407500,19.491407470703123,9.763970375061035,1.0156829357147217,0.13235019147396088
1772789702021606100,19.531606201171876,9.744806289672852,1.0013099908828735,0.13235019147396088
1772789702041705200,19.551705322265626,9.754388809204102,1.0013099908828735,0.12276827543973923
1772789702061804500,19.571804443359376,9.754388809204102,1.0108919143676758,0.13235019147396088
1772789702081903900,19.59190380859375,9.744806289672852,1.0156829357147217,0.1179773211479187
1772789702102003200,19.612003173828125,9.740015983581543,1.020473837852478,0.1179773211479187
1772789702122102300,19.632102294921875,9.744806289672852,0.9971179366111755,0.12216940522193909
1772789702142201600,19.65220166015625,9.77774429321289,1.006699800491333,0.1311524510383606
1772789702162301000,19.672301025390624,9.758581161499023,1.0162817239761353,0.12157053500413895
1772789702182399200,19.692399169921874,9.749597549438477,1.006699800491333,0.1119886189699173
1772789702202497500,19.71249755859375,9.749597549438477,1.011490821838379,0.1119886189699173
1772789702222595800,19.732595947265626,9.772953987121582,0.9971179366111755,0.0928247943520546
1772789702242694400,19.7526943359375,9.758581161499023,0.9923269748687744,0.11677958071231842
1772789702262792700,19.772792724609374,9.753789901733398,1.0258636474609375,0.11677958071231842
1772789702282891000,19.79289111328125,9.763371467590332,1.0258636474609375,0.11677958071231842
1772789702302989300,19.8129892578125,9.758581161499023,1.011490821838379,0.12157053500413895
1772789702323087600,19.833087646484376,9.754388809204102,1.006699800491333,0.12216940522193909
1772789702343186000,19.85318603515625,9.758581161499023,1.0019088983535767,0.10300558060407639
1772789702363284200,19.8732841796875,9.744806289672852,1.0162817239761353,0.10300558060407639
1772789702383382800,19.8933828125,9.754388809204102,1.0162817239761353,0.11258748918771744
1772789702403481000,19.913481201171876,9.749597549438477,1.006699800491333,0.10779653489589691
1772789702443677700,19.953677734375,9.749597549438477,0.9923269748687744,0.11737845093011856
1772789702463776000,19.97377587890625,9.768162727355957,1.006699800491333,0.11737845093011856
1772789702483874300,19.993874267578125,9.735224723815918,1.0019088983535767,0.11737845093011856
1772789702503972600,20.01397265625,9.772953987121582,0.9875360131263733,0.12216940522193909
1772789702524071000,20.03407080078125,9.763371467590332,1.0162817239761353,0.12216940522193909
1772789702544169200,20.054169189453123,9.763371467590332,1.0019088983535767,0.11258748918771744
1772789702564267800,20.074267822265625,9.763371467590332,1.011490821838379,0.1269603669643402
1772789702584366000,20.094365966796875,9.75917911529541,1.011490821838379,0.11258748918771744
1772789702604464400,20.11446435546875,9.749597549438477,1.0210727453231812,0.1269603669643402
1772789702624562700,20.134562744140624,9.749597549438477,1.011490821838379,0.13654227554798126
1772789702644661000,20.154660888671874,9.749597549438477,1.0019088983535767,0.11258748918771744
1772789702664759300,20.17475927734375,9.75917911529541,1.006699800491333,0.10779653489589691
1772789702684857600,20.194857666015626,9.744806289672852,0.9971179366111755,0.1269603669643402
1772789702704956200,20.2149560546875,9.749597549438477,1.0162817239761353,0.1269603669643402
1772789702725054500,20.235054443359374,9.754388809204102,1.0019088983535767,0.12216940522193909
1772789702745152800,20.25515283203125,9.749597549438477,1.0258636474609375,0.11737845093011856
1772789702765251300,20.275251220703126,9.754388809204102,1.0019088983535767,0.1269603669643402
1772789702785349600,20.295349609375,9.754388809204102,1.0019088983535767,0.12216940522193909
1772789702805448000,20.315447998046874,9.758581161499023,1.0162817239761353,0.11737845093011856
1772789702825546500,20.33554638671875,9.768162727355957,1.011490821838379,0.12216940522193909
1772789702845644800,20.355644775390626,9.763371467590332,1.011490821838379,0.12216940522193909
1772789702865743000,20.3757431640625,9.744806289672852,1.0162817239761353,0.11258748918771744
1772789702885841700,20.395841552734375,9.749597549438477,1.0258636474609375,0.12216940522193909
1772789702926038300,20.436038330078127,9.749597549438477,1.0019088983535767,0.12216940522193909
1772789702946136800,20.45613671875,9.735224723815918,1.006699800491333,0.13175131380558014
1772789702966235100,20.476235107421875,9.749597549438477,1.0210727453231812,0.13175131380558014
1772789703006432000,20.516431884765623,9.75917911529541,1.006699800491333,0.12276827543973923
1772789703026530300,20.5365302734375,9.75917911529541,0.9971179366111755,0.11318635940551758
1772789703046628600,20.556628662109375,9.749597549438477,0.9923269748687744,0.137141153216362
1772789703066727000,20.576726806640625,9.749597549438477,1.0019088983535767,0.1179773211479187
1772789703086825500,20.596825439453124,9.763970375061035,1.0061010122299194,0.11318635940551758
1772789703106923800,20.616923828125,9.740015983581543,1.0013099908828735,0.12755922973155975
1772789703127022000,20.63702197265625,9.772953987121582,0.9923269748687744,0.13175131380558014
1772789703147120600,20.65712060546875,9.763970375061035,0.9971179366111755,0.13654227554798126
1772789703167219000,20.677218994140624,9.749597549438477,1.0019088983535767,0.13175131380558014
1772789703207419100,20.717419189453125,9.772953987121582,0.9971179366111755,0.1269603669643402
1772789703247619300,20.757619384765626,9.75917911529541,1.006699800491333,0.11258748918771744
1772789703267719400,20.777719482421876,9.744806289672852,0.9923269748687744,0.10300558060407639
1772789703287819500,20.797819580078126,9.744806289672852,1.011490821838379,0.11737845093011856
1772789703307919600,20.817919677734373,9.75917911529541,1.011490821838379,0.14133323729038239
1772789703328019700,20.838019775390624,9.740015983581543,1.0162817239761353,0.12216940522193909
1772789703348119800,20.858119873046874,9.744806289672852,1.011490821838379,0.1269603669643402
1772789703368220000,20.878219970703125,9.754388809204102,1.0019088983535767,0.1269603669643402
1772789703388320000,20.898320068359375,9.768162727355957,1.0162817239761353,0.11737845093011856
1772789703408420000,20.918420166015625,9.754388809204102,1.0210727453231812,0.11737845093011856
1772789703428520200,20.938520263671876,9.740015983581543,1.006699800491333,0.11258748918771744
1772789703448620300,20.958620361328126,9.749597549438477,1.011490821838379,0.13175131380558014
1772789703468720400,20.978720458984377,9.768162727355957,1.0210727453231812,0.12216940522193909
1772789703488820500,20.998820556640624,9.744806289672852,1.0162817239761353,0.11737845093011856
1772789703529020700,21.039020751953124,9.763970375061035,0.9875360131263733,0.11258748918771744
1772789703549120800,21.059120849609375,9.740015983581543,0.9827450513839722,0.1269603669643402
1772789703589321000,21.099321044921876,9.768162727355957,1.006699800491333,0.10300558060407639
1772789703609421000,21.119421142578126,9.754388809204102,1.0258636474609375,0.14133323729038239
1772789703649621200,21.159621337890623,9.749597549438477,1.0258636474609375,0.13654227554798126
1772789703669721300,21.179721435546874,9.754388809204102,1.0444285869598389,0.13175131380558014
1772789703689821400,21.199821533203124,9.75917911529541,1.0210727453231812,0.13175131380558014
1772789703709921300,21.21992138671875,9.749597549438477,0.9827450513839722,0.11737845093011856
1772789703730021400,21.240021484375,9.75917911529541,1.0156829357147217,0.1179773211479187
1772789703750121500,21.26012158203125,9.75917911529541,0.9827450513839722,0.11318635940551758
1772789703790321400,21.3003212890625,9.76876163482666,0.9965190887451172,0.10839540511369705
1772789703810421500,21.32042138671875,9.754388809204102,1.0061010122299194,0.12755922973155975
1772789703830521600,21.340521484375,9.754388809204102,1.0108919143676758,0.12755922973155975
1772789703850621700,21.36062158203125,9.749597549438477,1.0061010122299194,0.12276827543973923
1772789703870721800,21.3807216796875,9.754388809204102,1.0300557613372803,0.12276827543973923
1772789703890821600,21.400821533203125,9.754388809204102,1.0492196083068848,0.11318635940551758
1772789703931021800,21.441021728515626,9.740015983581543,1.006699800491333,0.10300558060407639
1772789703951122000,21.461121826171876,9.75917911529541,0.9875360131263733,0.10779653489589691
1772789703971221800,21.4812216796875,9.754388809204102,1.006699800491333,0.11258748918771744
1772789703991321900,21.50132177734375,9.730433464050293,1.011490821838379,0.12216940522193909
1772789704011422000,21.521421875,9.730433464050293,1.006699800491333,0.10779653489589691
1772789704031522000,21.54152197265625,9.75917911529541,0.9827450513839722,0.12216940522193909
1772789704051622000,21.561621826171876,9.763371467590332,0.9923269748687744,0.1269603669643402
1772789704071722000,21.581721923828123,9.75917911529541,0.9923269748687744,0.1269603669643402
1772789704091822000,21.601822021484374,9.763371467590332,0.9923269748687744,0.12216940522193909
1772789704132022000,21.64202197265625,9.77774429321289,1.025264859199524,0.10360444337129593
1772789704152122000,21.6621220703125,9.75917911529541,1.020473837852478,0.12755922973155975
1772789704172222000,21.682221923828124,9.744806289672852,1.0300557613372803,0.10839540511369705
1772789704192321000,21.702321044921874,9.75917911529541,1.0156829357147217,0.1179773211479187
1772789704212420000,21.722420166015624,9.763970375061035,1.020473837852478,0.13294905424118042
1772789704232519200,21.742519287109374,9.754388809204102,0.9869371652603149,0.12336714565753937
1772789704252618200,21.7626181640625,9.763970375061035,1.0156829357147217,0.11378522962331772
1772789704272717300,21.78271728515625,9.754388809204102,1.0061010122299194,0.11378522962331772
1772789704292816400,21.80281640625,9.763970375061035,1.0108919143676758,0.11857619136571884
1772789704312915500,21.82291552734375,9.76876163482666,0.9965190887451172,0.11378522962331772
1772789704333014500,21.8430146484375,9.75917911529541,0.9965190887451172,0.12276827543973923
1772789704353113600,21.863113525390624,9.763970375061035,1.0300557613372803,0.12276827543973923
1772789704373212700,21.883212646484374,9.75917911529541,1.0108919143676758,0.10360444337129593
1772789704393311700,21.903311767578124,9.75917911529541,1.0156829357147217,0.12755922973155975
1772789704413410800,21.923410888671874,9.754388809204102,0.9827450513839722,0.1179773211479187
1772789704433510000,21.943510009765625,9.772953987121582,0.9875360131263733,0.12755922973155975
1772789704453609000,21.96360888671875,9.754388809204102,1.0061010122299194,0.13235019147396088
1772789704473708000,21.9837080078125,9.735224723815918,1.020473837852478,0.1179773211479187
1772789704493807000,22.00380712890625,9.76876163482666,1.0061010122299194,0.12755922973155975
1772789704513906200,22.02390625,9.763970375061035,1.0156829357147217,0.11318635940551758
1772789704534005200,22.044005126953124,9.754388809204102,1.0061010122299194,0.13235019147396088
1772789704554104300,22.064104248046874,9.744806289672852,0.9869371652603149,0.13235019147396088
1772789704574203400,22.084203369140624,9.744806289672852,1.0013099908828735,0.12276827543973923
1772789704614401800,22.12440185546875,9.744806289672852,1.0061010122299194,0.1179773211479187
1772789704634500600,22.14450048828125,9.749597549438477,1.0013099908828735,0.11318635940551758
1772789704654599700,22.164599609375,9.782535552978516,1.0013099908828735,0.12276827543973923
1772789704674698800,22.18469873046875,9.763970375061035,0.9917281270027161,0.11318635940551758
1772789704714896000,22.224895751953124,9.763970375061035,1.0108919143676758,0.12755922973155975
1772789704755092700,22.2650927734375,9.754388809204102,1.0061010122299194,0.12276827543973923
1772789704775191300,22.28519140625,9.730433464050293,1.020473837852478,0.12276827543973923
1772789704795289900,22.305289794921876,9.75917911529541,1.0156829357147217,0.12755922973155975
1772789704815388400,22.325388427734374,9.749597549438477,0.9965190887451172,0.12276827543973923
1772789704835487000,22.345487060546876,9.735224723815918,1.0156829357147217,0.1179773211479187
1772789704855585500,22.36558544921875,9.76876163482666,1.0108919143676758,0.1179773211479187
1772789704875684000,22.38568408203125,9.754388809204102,1.020473837852478,0.12755922973155975
1772789704895782700,22.40578271484375,9.754388809204102,1.0156829357147217,0.11318635940551758
1772789704915881200,22.425881103515625,9.76876163482666,1.0156829357147217,0.10839540511369705
1772789704935979500,22.4459794921875,9.754388809204102,1.0061010122299194,0.13235019147396088
1772789704956078000,22.466078125,9.744806289672852,1.025264859199524,0.12755922973155975
1772789704976176600,22.4861767578125,9.740015983581543,1.0108919143676758,0.12276827543973923
1772789704996275200,22.506275146484374,9.754388809204102,0.9917281270027161,0.1179773211479187
1772789705016373800,22.526373779296875,9.749597549438477,1.0061010122299194,0.13235019147396088
1772789705036472300,22.546472412109374,9.754388809204102,1.0108919143676758,0.12276827543973923
1772789705056571000,22.56657080078125,9.749597549438477,1.020473837852478,0.12276827543973923
1772789705076669400,22.58666943359375,9.754388809204102,1.020473837852478,0.137141153216362
1772789705096767700,22.606767822265624,9.744806289672852,1.0156829357147217,0.12755922973155975
1772789705116866300,22.6268662109375,9.735224723815918,1.0156829357147217,0.1179773211479187
1772789705136964900,22.64696484375,9.75917911529541,0.9923269748687744,0.137141153216362
1772789705157063400,22.6670634765625,9.76876163482666,0.9875360131263733,0.13235019147396088
1772789705177162800,22.687162841796876,9.749597549438477,0.9971179366111755,0.10839540511369705
1772789705197262600,22.7072626953125,9.749597549438477,1.0013099908828735,0.10360444337129593
1772789705217362400,22.727362548828125,9.735224723815918,1.0019088983535767,0.1179773211479187
1772789705237462300,22.747462158203124,9.744806289672852,1.0108919143676758,0.12755922973155975
1772789705257562400,22.767562255859374,9.749597549438477,1.0108919143676758,0.12755922973155975
1772789705277662200,22.787662109375,9.749597549438477,1.006699800491333,0.13235019147396088
1772789705297762000,22.807761962890623,9.754388809204102,1.0156829357147217,0.1179773211479187
1772789705317862000,22.82786181640625,9.744806289672852,0.9965190887451172,0.12336714565753937
1772789705337961700,22.847961669921876,9.745405197143555,1.0013099908828735,0.11857619136571884
1772789705358061800,22.868061767578126,9.76876163482666,1.0156829357147217,0.12336714565753937
1772789705378161700,22.88816162109375,9.745405197143555,0.9965190887451172,0.11378522962331772
1772789705398261500,22.908261474609375,9.763970375061035,0.9965190887451172,0.13294905424118042
1772789705418361300,22.928361328125,9.76876163482666,1.0156829357147217,0.10959314554929733
1772789705438461200,22.948461181640624,9.75917911529541,1.0061010122299194,0.11917505413293839
1772789705458561300,22.968561279296875,9.735823631286621,1.0102931261062622,0.12875697016716003
1772789705478661000,22.9886611328125,9.745405197143555,1.0102931261062622,0.12875697016716003
1772789705498761000,23.008760986328124,9.763970375061035,1.0294568538665771,0.11917505413293839
1772789705518860800,23.02886083984375,9.745405197143555,1.020473837852478,0.09941235929727554
1772789705538960600,23.048960693359376,9.754388809204102,0.9917281270027161,0.1281581073999405
1772789705559060700,23.069060791015627,9.749597549438477,1.0013099908828735,0.12336714565753937
1772789705579160600,23.08916064453125,9.763970375061035,1.0108919143676758,0.11857619136571884
1772789705599260400,23.109260498046876,9.783134460449219,0.9917281270027161,0.10899427533149719
1772789705619360300,23.1293603515625,9.745405197143555,1.0013099908828735,0.11857619136571884
1772789705639460000,23.149460205078125,9.763970375061035,1.0156829357147217,0.12336714565753937
1772789705659560200,23.169560302734375,9.763970375061035,0.9965190887451172,0.11857619136571884
1772789705679659800,23.18965966796875,9.75019645690918,1.0013099908828735,0.11378522962331772
1772789705699759400,23.20975927734375,9.731032371520996,1.0108919143676758,0.13294905424118042
1772789705719859000,23.22985888671875,9.76876163482666,1.0156829357147217,0.137141153216362
1772789705739958800,23.249958740234376,9.75917911529541,1.020473837852478,0.12755922973155975
1772789705760058400,23.270058349609375,9.721450805664062,1.025264859199524,0.13235019147396088
1772789705780158000,23.290157958984373,9.744806289672852,1.0108919143676758,0.12755922973155975
1772789705800257500,23.310257568359376,9.77774429321289,1.0013099908828735,0.1179773211479187
1772789705820357000,23.330357177734374,9.754388809204102,1.0013099908828735,0.10839540511369705
1772789705840456700,23.350456787109376,9.75917911529541,1.0061010122299194,0.10839540511369705
1772789705860556500,23.370556640625,9.754388809204102,1.0013099908828735,0.11318635940551758
1772789705880656100,23.39065625,9.76876163482666,1.020473837852478,0.12276827543973923
1772789705920855300,23.430855224609374,9.749597549438477,0.9965190887451172,0.1281581073999405
1772789705940955000,23.450954833984376,9.763970375061035,1.0013099908828735,0.12336714565753937
1772789705961054500,23.471054443359375,9.749597549438477,1.0156829357147217,0.13774001598358154
1772789706001254000,23.51125390625,9.778343200683594,1.0108919143676758,0.14253097772598267
1772789706021353500,23.531353515625,9.740614891052246,0.9917281270027161,0.13294905424118042
1772789706041453000,23.551453125,9.740614891052246,1.0156829357147217,0.1281581073999405
1772789706061552600,23.571552734375,9.749597549438477,1.0108919143676758,0.11378522962331772
1772789706081652200,23.59165234375,9.75917911529541,0.9917281270027161,0.10899427533149719
1772789706121851600,23.6318515625,9.763970375061035,1.0061010122299194,0.13774001598358154
1772789706162050800,23.67205078125,9.744806289672852,1.0156829357147217,0.12336714565753937
1772789706182149600,23.692149658203125,9.763970375061035,1.025264859199524,0.1281581073999405
1772789706202248400,23.71224853515625,9.749597549438477,1.0061010122299194,0.11857619136571884
1772789706222347300,23.73234716796875,9.735823631286621,1.0061010122299194,0.10899427533149719
1772789706242446000,23.752446044921875,9.749597549438477,1.020473837852478,0.1281581073999405
1772789706262544600,23.772544677734373,9.745405197143555,1.0061010122299194,0.13294905424118042
1772789706282643500,23.7926435546875,9.754388809204102,1.0108919143676758,0.12336714565753937
1772789706302742300,23.8127421875,9.75917911529541,1.0061010122299194,0.11857619136571884
1772789706322841000,23.832841064453124,9.763970375061035,1.0156829357147217,0.10420331358909607
1772789706363038500,23.87303857421875,9.75917911529541,1.0013099908828735,0.12336714565753937
1772789706383137300,23.89313720703125,9.744806289672852,1.020473837852478,0.13294905424118042
1772789706403236000,23.913236083984376,9.754388809204102,1.0013099908828735,0.1281581073999405
1772789706423335000,23.9333349609375,9.754388809204102,1.0061010122299194,0.12336714565753937
1772789706443433500,23.95343359375,9.749597549438477,1.0013099908828735,0.10899427533149719
1772789706483631000,23.993631103515625,9.783134460449219,0.9965190887451172,0.1281581073999405
1772789706503730000,24.01372998046875,9.763970375061035,0.9965190887451172,0.1281581073999405
1772789706523828500,24.033828369140625,9.740015983581543,1.0013099908828735,0.12755922973155975
1772789706543927300,24.05392724609375,9.75917911529541,1.0108919143676758,0.12276827543973923
1772789706564026000,24.074026123046874,9.744806289672852,1.020473837852478,0.11318635940551758
1772789706584125000,24.094125,9.75917911529541,1.0061010122299194,0.13235019147396088
1772789706604223500,24.114223388671874,9.763970375061035,0.9875360131263733,0.12276827543973923
1772789706624322300,24.134322265625,9.75917911529541,1.011490821838379,0.12276827543973923
1772789706644421000,24.154421142578126,9.763970375061035,1.006699800491333,0.13175131380558014
1772789706664520000,24.17452001953125,9.749597549438477,1.0019088983535767,0.13175131380558014
1772789706684618800,24.19461865234375,9.749597549438477,1.011490821838379,0.11737845093011856
1772789706704717600,24.214717529296873,9.749597549438477,1.0162817239761353,0.12216940522193909
1772789706724816400,24.23481640625,9.754388809204102,1.0061010122299194,0.12755922973155975
1772789706744915200,24.254915283203125,9.763970375061035,1.0300557613372803,0.12276827543973923
1772789706785112800,24.29511279296875,9.754388809204102,1.0013099908828735,0.13235019147396088
1772789706805211600,24.315211669921876,9.749597549438477,0.9821462035179138,0.11318635940551758
1772789706845409300,24.3554091796875,9.749597549438477,1.020473837852478,0.11318635940551758
1772789706865508000,24.375508056640626,9.75917911529541,1.020473837852478,0.12755922973155975
1772789706885607000,24.39560693359375,9.754388809204102,1.0061010122299194,0.13235019147396088
1772789706905706000,24.4157060546875,9.749597549438477,1.0013099908828735,0.13235019147396088
1772789706925804800,24.4358046875,9.754388809204102,1.019874930381775,0.13354793190956116
1772789706945903600,24.455903564453124,9.75019645690918,1.019874930381775,0.12396601587533951
1772789706966002400,24.47600244140625,9.763970375061035,1.0102931261062622,0.12875697016716003
1772789707006200000,24.516199951171874,9.735823631286621,1.0150840282440186,0.11917505413293839
1772789707046397700,24.556397705078126,9.773552894592285,1.00071120262146,0.11917505413293839
1772789707086595300,24.59659521484375,9.754987716674805,0.9911292195320129,0.11977392435073853
1772789707106694100,24.616694091796877,9.759778022766113,1.0102931261062622,0.11977392435073853
1772789707126793000,24.63679296875,9.754388809204102,1.0156829357147217,0.12276827543973923
1772789707146892000,24.65689208984375,9.754388809204102,1.025264859199524,0.1179773211479187
1772789707166990800,24.676990966796875,9.754388809204102,1.0108919143676758,0.13235019147396088
1772789707187091000,24.697091064453126,9.763970375061035,0.9869371652603149,0.12755922973155975
1772789707207191000,24.71719091796875,9.744806289672852,1.0061010122299194,0.12276827543973923
1772789707227291000,24.737290771484375,9.75917911529541,1.0013099908828735,0.11318635940551758
1772789707247391000,24.757390869140625,9.749597549438477,1.0444285869598389,0.13235019147396088
1772789707287591200,24.797591064453126,9.740015983581543,1.0061010122299194,0.12755922973155975
1772789707327791400,24.837791259765623,9.740614891052246,1.0013099908828735,0.1281581073999405
1772789707367991600,24.877991455078124,9.75019645690918,1.0108919143676758,0.12336714565753937
1772789707388091600,24.898091552734375,9.735823631286621,1.0061010122299194,0.12875697016716003
1772789707408191700,24.918191650390625,9.763970375061035,1.0102931261062622,0.11917505413293839
1772789707448392000,24.958391845703126,9.75019645690918,0.9917281270027161,0.12396601587533951
1772789707468492000,24.978491943359376,9.75019645690918,1.0102931261062622,0.11917505413293839
1772789707488592100,24.998592041015623,9.745405197143555,1.0055021047592163,0.11917505413293839
1772789707508692200,25.018692138671874,9.745405197143555,0.9959201812744141,0.10959314554929733
1772789707528792300,25.038792236328124,9.745405197143555,1.0061010122299194,0.12336714565753937
1772789707548892400,25.058892333984375,9.778343200683594,1.0061010122299194,0.12336714565753937
1772789707568992500,25.078992431640625,9.754388809204102,1.0013099908828735,0.12336714565753937
1772789707589092600,25.099092529296875,9.76876163482666,1.0061010122299194,0.1473219245672226
1772789707609192700,25.119192626953126,9.745405197143555,1.0156829357147217,0.13774001598358154
1772789707649392600,25.159392578125,9.763970375061035,1.0013099908828735,0.10420331358909607
1772789707689592800,25.1995927734375,9.735823631286621,1.0108919143676758,0.13774001598358154
1772789707729793000,25.23979296875,9.783134460449219,0.9965190887451172,0.11857619136571884
1772789707749893000,25.25989306640625,9.75917911529541,1.0108919143676758,0.10899427533149719
1772789707769993200,25.2799931640625,9.731032371520996,1.0108919143676758,0.1281581073999405
1772789707790093300,25.30009326171875,9.773552894592285,0.9965190887451172,0.1281581073999405
1772789707810193400,25.320193359375,9.763970375061035,1.0108919143676758,0.1281581073999405
1772789707830293500,25.34029345703125,9.740614891052246,1.0013099908828735,0.11857619136571884
1772789707870493400,25.380493408203126,9.721450805664062,0.9773552417755127,0.11857619136571884
1772789707890593500,25.400593505859376,9.783134460449219,0.9821462035179138,0.11857619136571884
1772789707910693600,25.420693603515623,9.76876163482666,1.0013099908828735,0.13294905424118042
1772789707930793700,25.440793701171874,9.759778022766113,0.9959201812744141,0.12875697016716003
1772789707950893800,25.460893798828124,9.75019645690918,1.0102931261062622,0.1383388787508011
1772789707970994000,25.480993896484375,9.740614891052246,1.0055021047592163,0.11917505413293839
1772789707991094000,25.501093994140625,9.731032371520996,1.0150840282440186,0.11917505413293839
1772789708011194000,25.521194091796875,9.745405197143555,1.0150840282440186,0.12456488609313965
1772789708051394000,25.56139404296875,9.75019645690918,1.0486207008361816,0.13893775641918182
1772789708071494100,25.581494140625,9.745405197143555,1.034247875213623,0.12935584783554077
1772789708091594200,25.60159423828125,9.735823631286621,1.0246659517288208,0.14372871816158295
1772789708131794400,25.64179443359375,9.731032371520996,1.00071120262146,0.09522027522325516
1772789708151894500,25.66189453125,9.75917911529541,0.9911292195320129,0.12875697016716003
1772789708171994400,25.681994384765623,9.754987716674805,1.0055021047592163,0.13354793190956116
1772789708192093400,25.702093505859374,9.745405197143555,1.0246659517288208,0.12396601587533951
1772789708212192500,25.722192626953124,9.754987716674805,1.0102931261062622,0.11438409984111786
1772789708252390700,25.762390625,9.721450805664062,1.0102931261062622,0.11438409984111786
1772789708272489700,25.78248974609375,9.75917911529541,0.9911292195320129,0.12875697016716003
1772789708292588800,25.8025888671875,9.773552894592285,0.9911292195320129,0.12396601587533951
1772789708312687900,25.82268798828125,9.735823631286621,1.00071120262146,0.09042931348085403
1772789708332787200,25.842787109375,9.731032371520996,1.00071120262146,0.11917505413293839
1772789708352886300,25.86288623046875,9.754987716674805,1.0150840282440186,0.1431298404932022
1772789708372985300,25.8829853515625,9.783134460449219,1.019874930381775,0.11019201576709747
1772789708393084400,25.90308447265625,9.787925720214844,0.9959201812744141,0.0958191454410553
1772789708413183500,25.92318359375,9.726242065429688,0.9959201812744141,0.11977392435073853
1772789708433282600,25.943282470703124,9.731032371520996,0.9863383173942566,0.10540105402469635
1772789708453381600,25.963381591796875,9.76876163482666,1.0102931261062622,0.11019201576709747
1772789708473480700,25.983480712890625,9.745405197143555,1.0246659517288208,0.13893775641918182
1772789708493579800,26.003579833984375,9.735823631286621,1.0438297986984253,0.14851966500282288
1772789708533778200,26.043778076171876,9.778343200683594,1.1013212203979492,0.11378522962331772
1772789708553877200,26.063877197265626,9.744806289672852,1.0635924339294434,0.11378522962331772
1772789708573976300,26.083976318359376,9.716659545898438,1.0540105104446411,0.09941235929727554
1772789708594075400,26.104075439453126,9.778343200683594,1.020473837852478,0.10360444337129593
1772789708614174500,26.124174560546876,9.754388809204102,1.0396376848220825,0.1179773211479187
1772789708634273500,26.1442734375,9.75917911529541,1.0061010122299194,0.11318635940551758
1772789708654372600,26.16437255859375,9.75917911529541,1.0348467826843262,0.0988134890794754
1772789708694570200,26.2045703125,9.8016996383667,1.025264859199524,0.10839540511369705
1772789708714668800,26.224668701171876,9.75917911529541,0.9869371652603149,0.09042931348085403
1772789708754866200,26.2648662109375,9.745405197143555,1.0055021047592163,0.12396601587533951
1772789708774964700,26.28496484375,9.792716026306152,1.0486207008361816,0.09522027522325516
1772789708795063300,26.305063232421876,9.783134460449219,1.019874930381775,0.08084739744663239
1772789708815162000,26.325162109375,9.754987716674805,0.9767563939094543,0.09042931348085403
1772789708835260700,26.3452607421875,9.712468147277832,0.9911292195320129,0.11438409984111786
1772789708855359200,26.365359130859375,9.745405197143555,1.0055021047592163,0.07126548886299133
1772789708875458000,26.3854580078125,9.792716026306152,1.0438297986984253,0.061683572828769684
1772789708895556600,26.405556640625,9.787925720214844,1.019874930381775,0.08563835918903351
1772789708915655200,26.4256552734375,9.745405197143555,0.9911292195320129,0.07605644315481186
1772789708935754000,26.44575390625,9.726242065429688,1.019874930381775,0.08623722940683365
1772789708955852500,26.4658525390625,9.759778022766113,1.0486207008361816,0.076655313372612
1772789708975951000,26.485951171875,9.825654029846191,1.034247875213623,0.057491485029459
1772789708996050000,26.5060498046875,9.759778022766113,1.0294568538665771,0.057491485029459
1772789709036247000,26.5462470703125,9.75019645690918,1.0486207008361816,0.08144626766443253
1772789709056345900,26.566345947265624,9.792716026306152,1.034247875213623,0.062282443046569824
1772789709096543000,26.60654296875,9.71725845336914,1.0815585851669312,0.076655313372612
1772789709116641800,26.626641845703126,9.783134460449219,1.091739296913147,0.07605644315481186
1772789709136740400,26.646740234375,9.773552894592285,1.0821573734283447,0.04731070250272751
1772789709156839000,26.6668388671875,9.721450805664062,1.1061122417449951,0.05689261481165886
1772789709176937200,26.686937255859377,9.763970375061035,1.091739296913147,0.06647452712059021
1772789709197035500,26.707035400390627,9.806489944458008,1.0629936456680298,0.05689261481165886
1772789709217133600,26.727133544921877,9.735823631286621,1.0534117221832275,0.032937828451395035
1772789709257330200,26.767330078125,9.773552894592285,1.0486207008361816,0.042519744485616684
1772789709277428200,26.78742822265625,9.778343200683594,1.0629936456680298,0.07605644315481186
1772789709317624600,26.82762451171875,9.75019645690918,1.0821573734283447,0.04731070250272751
1772789709337723000,26.847722900390625,9.76876163482666,1.0677845478057861,0.023355916142463684
1772789709357821000,26.867821044921875,9.816072463989258,1.0677845478057861,0.03772878646850586
1772789709377919200,26.887919189453125,9.745405197143555,1.0629936456680298,0.07126548886299133
1772789709398017300,26.908017333984375,9.745405197143555,1.0629936456680298,0.05689261481165886
1772789709418115600,26.928115478515625,9.754987716674805,1.0294568538665771,0.07605644315481186
1772789709458312000,26.96831201171875,9.75917911529541,1.034247875213623,0.061683572828769684
1772789709478410000,26.988409912109375,9.763970375061035,1.019874930381775,0.07126548886299133
1772789709498508300,27.00850830078125,9.75019645690918,1.0438297986984253,0.08084739744663239
1772789709518606300,27.0286064453125,9.763970375061035,1.0294568538665771,0.09522027522325516
1772789709558803000,27.068802978515624,9.763970375061035,1.0390387773513794,0.07605644315481186
1772789709578901000,27.08890087890625,9.731032371520996,1.0294568538665771,0.07126548886299133
1772789709598999300,27.108999267578124,9.773552894592285,1.019874930381775,0.08563835918903351
1772789709619097300,27.129097412109374,9.76876163482666,1.019874930381775,0.05689261481165886
1772789709639195600,27.149195556640624,9.75019645690918,1.0246659517288208,0.07126548886299133
1772789709659293700,27.169293701171874,9.735823631286621,1.0150840282440186,0.09042931348085403
1772789709679392800,27.189392822265624,9.754987716674805,1.019874930381775,0.07605644315481186
1772789709699492600,27.20949267578125,9.759778022766113,1.019874930381775,0.06647452712059021
1772789709719592200,27.22959228515625,9.726242065429688,1.00071120262146,0.07126548886299133
1772789709739692000,27.249692138671875,9.726242065429688,1.019874930381775,0.07605644315481186
1772789709759791600,27.26979150390625,9.773552894592285,1.034247875213623,0.07126548886299133
1772789709779891500,27.289891357421876,9.797507286071777,1.0582026243209839,0.08084739744663239
1772789709799991000,27.309990966796875,9.763970375061035,1.0486207008361816,0.06647452712059021
1772789709820091000,27.3300908203125,9.75019645690918,1.034247875213623,0.07605644315481186
1772789709840190500,27.3501904296875,9.75019645690918,1.0294568538665771,0.08084739744663239
1772789709860290300,27.370290283203126,9.75019645690918,1.019874930381775,0.07605644315481186
1772789709880390000,27.390389892578124,9.745405197143555,1.0246659517288208,0.08563835918903351
1772789709900489700,27.41048974609375,9.763970375061035,1.034247875213623,0.07126548886299133
1772789709920589300,27.43058935546875,9.778343200683594,1.0055021047592163,0.076655313372612
1772789709940689200,27.450689208984375,9.754987716674805,1.0294568538665771,0.076655313372612
1772789709960788700,27.470788818359374,9.778343200683594,1.0294568538665771,0.08144626766443253
1772789709980888600,27.490888671875,9.759778022766113,1.0055021047592163,0.09102818369865417
1772789710000988200,27.51098828125,9.740614891052246,1.019874930381775,0.06707339733839035
1772789710021088000,27.531087890625,9.754987716674805,1.019874930381775,0.08623722940683365
1772789710041187800,27.551187744140623,9.754987716674805,1.0102931261062622,0.09102818369865417
1772789710061287400,27.571287353515626,9.764569282531738,1.019874930381775,0.062282443046569824
1772789710081387300,27.59138720703125,9.740614891052246,1.0486207008361816,0.08144626766443253
1772789710101486800,27.61148681640625,9.769360542297363,1.0390387773513794,0.08623722940683365
1772789710121586700,27.631586669921877,9.745405197143555,1.0390387773513794,0.06647452712059021
1772789710161786000,27.6717861328125,9.76876163482666,1.0150840282440186,0.07605644315481186
1772789710201986000,27.711986083984375,9.735823631286621,1.0150840282440186,0.09042931348085403
1772789710242186200,27.752186279296875,9.75019645690918,1.0156829357147217,0.06647452712059021
1772789710262286300,27.772286376953126,9.735823631286621,1.0156829357147217,0.08084739744663239
1772789710302486800,27.81248681640625,9.75917911529541,1.0108919143676758,0.07545757293701172
1772789710322587000,27.8325869140625,9.75019645690918,1.0102931261062622,0.07126548886299133
1772789710342687000,27.85268701171875,9.759778022766113,0.9959201812744141,0.06707339733839035
1772789710362787000,27.872787109375,9.759778022766113,1.00071120262146,0.09522027522325516
1772789710382887200,27.89288720703125,9.759778022766113,1.00071120262146,0.076655313372612
1772789710402987300,27.9129873046875,9.754987716674805,1.00071120262146,0.062282443046569824
1772789710423087400,27.93308740234375,9.754987716674805,1.0055021047592163,0.076655313372612
1772789710443187500,27.9531875,9.759778022766113,0.9959201812744141,0.08144626766443253
1772789710463287600,27.97328759765625,9.759778022766113,0.9959201812744141,0.076655313372612
1772789710483387600,27.9933876953125,9.745405197143555,0.9911292195320129,0.08144626766443253
1772789710523595800,28.033595703125,9.740614891052246,0.9911292195320129,0.07605644315481186
1772789710543694300,28.0536943359375,9.759778022766113,0.9815473556518555,0.08563835918903351
1772789710563794400,28.07379443359375,9.759778022766113,1.0102931261062622,0.08563835918903351
1772789710583894500,28.09389453125,9.745405197143555,1.0150840282440186,0.08084739744663239
1772789710603994600,28.11399462890625,9.75019645690918,1.019874930381775,0.06647452712059021
1772789710624094700,28.1340947265625,9.75019645690918,1.0246659517288208,0.08563835918903351
1772789710644194800,28.15419482421875,9.754987716674805,1.0102931261062622,0.08084739744663239
1772789710664295000,28.174294921875,9.745405197143555,1.00071120262146,0.07126548886299133
1772789710684393500,28.1943935546875,9.763970375061035,1.019874930381775,0.06647452712059021
1772789710724590300,28.23459033203125,9.754987716674805,0.9863383173942566,0.07186435908079147
1772789710744689000,28.25468896484375,9.783134460449219,0.9863383173942566,0.08144626766443253
1772789710764787500,28.274787353515624,9.754987716674805,1.00071120262146,0.08144626766443253
1772789710784886000,28.294885986328126,9.745405197143555,1.0102931261062622,0.08144626766443253
1772789710804984600,28.314984619140624,9.75019645690918,1.0055021047592163,0.07186435908079147
1772789710825083000,28.335082763671874,9.75019645690918,0.9863383173942566,0.09102818369865417
1772789710845181400,28.355181396484376,9.764569282531738,0.9959201812744141,0.10061009973287582
1772789710885378600,28.395378662109376,9.75019645690918,0.9959201812744141,0.08204513788223267
1772789710905476900,28.415476806640626,9.745405197143555,0.9911292195320129,0.07725418359041214
1772789710925575400,28.435575439453125,9.735823631286621,0.9911292195320129,0.06647452712059021
1772789710965772500,28.4757724609375,9.76876163482666,1.0055021047592163,0.08563835918903351
1772789710985871000,28.49587109375,9.754987716674805,0.9959201812744141,0.08563835918903351
1772789711005969400,28.515969482421873,9.745405197143555,0.9815473556518555,0.07126548886299133
1772789711026068000,28.53606787109375,9.754987716674805,0.9911292195320129,0.07126548886299133
1772789711046166500,28.55616650390625,9.76876163482666,0.9911292195320129,0.09042931348085403
1772789711066265000,28.57626513671875,9.75917911529541,1.0150840282440186,0.09042931348085403
1772789711086363400,28.59636328125,9.740614891052246,1.0150840282440186,0.08084739744663239
1772789711106462000,28.6164619140625,9.745405197143555,1.0150840282440186,0.061683572828769684
1772789711126560500,28.636560546875,9.75019645690918,1.00071120262146,0.06707339733839035
1772789711166757400,28.67675732421875,9.773552894592285,1.00071120262146,0.08144626766443253
1772789711186857000,28.69685693359375,9.754987716674805,1.0102931261062622,0.07186435908079147
1772789711206956500,28.71695654296875,9.754987716674805,0.9959201812744141,0.08144626766443253
1772789711247155700,28.75715576171875,9.759778022766113,1.00071120262146,0.06707339733839035
1772789711287355000,28.79735498046875,9.731032371520996,0.9863383173942566,0.09102818369865417
1772789711327553800,28.8375537109375,9.759778022766113,0.9863383173942566,0.06707339733839035
1772789711347653400,28.8576533203125,9.740614891052246,0.9959201812744141,0.076655313372612
1772789711367753000,28.8777529296875,9.740614891052246,0.9959201812744141,0.07186435908079147
1772789711387852500,28.8978525390625,9.769360542297363,1.0055021047592163,0.06707339733839035
