time,seconds_elapsed,z,y,x
1772717168800721200,0.08872119140625,-0.1344229131937027,0.056112661957740784,-0.12859897315502167
1772717168820753200,0.108753173828125,-0.23260615766048431,0.11824604868888855,-0.1858915537595749
1772717168840784100,0.1287841796875,-0.30279871821403503,0.23432932794094086,-0.11956149339675903
1772717168860815000,0.148815185546875,-0.38847196102142334,0.30774402618408203,-0.016613435000181198
1772717168880847000,0.16884716796875,-0.4722764492034912,0.4202812612056732,0.06040077656507492
1772717168900878000,0.188878173828125,-0.3424410820007324,0.7027333378791809,0.036756519228219986
1772717168920909000,0.208908935546875,-0.6486077904701233,0.7405251264572144,-0.3186839520931244
1772717168940941000,0.228941162109375,-0.7506545782089233,0.9788894653320312,-0.7974556684494019
1772717168960972000,0.248971923828125,-1.0387731790542603,1.2614078521728516,-1.0964338779449463
1772717168981003000,0.2690029296875,-2.196340799331665,1.2440989017486572,-1.7067090272903442
1772717169001034000,0.289033935546875,-2.808614730834961,0.9859291315078735,-2.245001792907715
1772717169021066200,0.309066162109375,-3.0308847427368164,0.7815342545509338,-2.3138339519500732
1772717169041097200,0.32909716796875,-3.054704427719116,0.21737243235111237,-1.9822947978973389
1772717169061128200,0.349128173828125,-2.959223747253418,-0.506540834903717,-1.4336997270584106
1772717169081160200,0.36916015625,-2.6598708629608154,-0.8916182518005371,-0.6954038143157959
1772717169101191200,0.389191162109375,-1.4019397497177124,-0.7233332991600037,0.02688494510948658
1772717169121222100,0.40922216796875,-0.5040562748908997,0.05043179914355278,0.4539908766746521
1772717169141253000,0.429253173828125,-0.3534806966781616,-0.36092060804367065,0.9831060767173767
1772717169161285000,0.44928515625,-0.24375729262828827,-0.45012104511260986,1.0554921627044678
1772717169181316000,0.469316162109375,-0.3552294075489044,-0.035856012254953384,0.6833792924880981
1772717169201347000,0.48934716796875,-0.6129892468452454,-0.092189259827137,0.35256460309028625
1772717169221379000,0.509379150390625,-0.7297699451446533,-0.6329989433288574,0.07262493669986725
1772717169241410000,0.52941015625,-0.676098644733429,-0.9588336944580078,0.031396929174661636
1772717169261441000,0.54944091796875,-0.8420681953430176,-1.0192867517471313,0.6192229986190796
1772717169281473300,0.569473388671875,-0.8733060956001282,-1.3472148180007935,1.2405321598052979
1772717169301504300,0.589504150390625,-0.6492407917976379,-1.541861891746521,1.4413210153579712
1772717169321535200,0.60953515625,-0.3332325518131256,-1.730247139930725,2.0343780517578125
1772717169341566200,0.629566162109375,0.09954116493463516,-1.372573733329773,2.675719976425171
1772717169361598000,0.649597900390625,0.13011206686496735,-0.660423755645752,2.7848927974700928
1772717169381629000,0.66962890625,0.2593080699443817,-1.3929622173309326,1.9963456392288208
1772717169401660000,0.689659912109375,0.35430917143821716,-2.0684149265289307,1.4175212383270264
1772717169421692200,0.709692138671875,0.18564267456531525,-1.5925270318984985,0.6575998663902283
1772717169441723100,0.72972314453125,0.035141948610544205,-1.5508283376693726,-0.2535282075405121
1772717169461754000,0.749754150390625,-1.1122325658798218,-2.108456611633301,-1.731600046157837
1772717169481786000,0.7697861328125,-1.919704794883728,-1.7436199188232422,-2.921281337738037
1772717169501817000,0.789817138671875,-1.8259464502334595,-1.8479260206222534,-3.3147287368774414
1772717169521848000,0.80984814453125,-1.7814089059829712,-0.6088915467262268,-2.5862200260162354
1772717169541880000,0.829880126953125,-1.795279860496521,-0.5682456493377686,-1.8963887691497803
1772717169561911000,0.8499111328125,-1.4541975259780884,-0.0943133682012558,-0.9765695929527283
1772717169581942000,0.86994189453125,-1.0493483543395996,0.3131447732448578,-0.559808611869812
1772717169601973000,0.889972900390625,-1.1039303541183472,0.3785605728626251,-0.30536168813705444
1772717169622005000,0.9100048828125,-1.0339350700378418,0.5971038341522217,-0.20548279583454132
1772717169642036000,0.930035888671875,-0.8275880217552185,0.49109819531440735,-0.31327807903289795
1772717169662067200,0.950067138671875,-0.9021359086036682,0.5535805821418762,-0.6423871517181396
1772717169682099200,0.97009912109375,-0.6496342420578003,1.3139007091522217,-0.7397329211235046
1772717169702130200,0.990130126953125,-0.5634872913360596,2.2772293090820312,-0.7991534471511841
1772717169722161200,1.0101611328125,-0.44403213262557983,2.8483307361602783,-0.597001850605011
1772717169742193000,1.03019287109375,-0.42798176407814026,2.4617068767547607,-0.34755972027778625
1772717169762223900,1.050223876953125,-0.5737420320510864,1.1468470096588135,-0.12629620730876923
1772717169782255000,1.070255126953125,-1.2379698753356934,-0.43040168285369873,0.05550502613186836
1772717169802286600,1.09028662109375,-1.5195988416671753,-0.6981070637702942,0.12372594326734543
1772717169822318800,1.11031884765625,-1.5772769451141357,-0.06277759373188019,0.04234335571527481
1772717169842349800,1.130349853515625,-1.2342420816421509,0.29171478748321533,-0.3965034484863281
1772717169862380800,1.150380859375,-1.0187582969665527,0.4752849042415619,-0.5744853019714355
1772717169882412800,1.170412841796875,-0.8969160318374634,0.4260599911212921,-0.3105965256690979
1772717169902443500,1.190443603515625,-0.7894970774650574,0.14133140444755554,0.19222857058048248
1772717169922474500,1.210474609375,-0.8655030727386475,-0.16579224169254303,0.5047575235366821
1772717169942506800,1.2305068359375,-0.9519946575164795,-0.22435763478279114,0.29534482955932617
1772717169962537700,1.250537841796875,-0.8927405476570129,0.07513462007045746,0.08836107701063156
1772717169982568700,1.270568603515625,-0.726382315158844,0.259881854057312,-0.062114983797073364
1772717170002599700,1.290599609375,-0.42567533254623413,0.07010674476623535,-0.04291343316435814
1772717170022631700,1.310631591796875,-0.4592476189136505,-0.3390916883945465,0.1693383753299713
1772717170042662700,1.33066259765625,-0.7454822659492493,-0.17760945856571198,0.33195215463638306
1772717170062693600,1.350693603515625,-0.7521336674690247,-0.27828389406204224,0.23636065423488617
1772717170082726000,1.370725830078125,-0.7506011724472046,-0.4745227098464966,0.1207573264837265
1772717170102756900,1.3907568359375,-0.6530447602272034,-0.2729783356189728,0.053057216107845306
1772717170122787800,1.410787841796875,-0.34772762656211853,0.18970315158367157,-0.04687673598527908
1772717170142818800,1.43081884765625,-0.08293934911489487,0.6488107442855835,-0.06250475347042084
1772717170162850600,1.4508505859375,-0.05380594730377197,0.6171247959136963,0.1167883649468422
1772717170182881500,1.470881591796875,-0.10306081175804138,0.33617785573005676,0.4446176290512085
1772717170202912800,1.490912841796875,-0.010647018440067768,0.1723352074623108,0.6211552023887634
1772717170222944800,1.51094482421875,0.21020802855491638,0.2965044677257538,0.7176380157470703
1772717170242975700,1.530975830078125,0.2910361588001251,0.39876413345336914,0.7877132892608643
1772717170263006700,1.5510068359375,0.21993304789066315,0.42963847517967224,0.6850014925003052
1772717170283038700,1.571038818359375,-0.07172819972038269,0.3907972574234009,0.2957473397254944
1772717170303069700,1.591069580078125,-0.04596922546625137,0.5763598084449768,0.13461162149906158
1772717170323101000,1.611100830078125,0.07663612067699432,0.7247388362884521,0.161507248878479
1772717170343132700,1.631132568359375,0.10591452568769455,0.567817211151123,0.2886911928653717
1772717170363163600,1.65116357421875,0.12785440683364868,0.33948132395744324,0.3671375811100006
1772717170383194600,1.671194580078125,0.2165588140487671,0.2901446223258972,0.35349583625793457
1772717170403225600,1.6912255859375,0.308663010597229,0.2788485884666443,0.3424897789955139
1772717170423257600,1.711257568359375,0.28619900345802307,0.26062628626823425,0.4110283851623535
1772717170443288800,1.731288818359375,0.39629125595092773,0.284564346075058,0.3868279755115509
1772717170463319800,1.75131982421875,0.46358123421669006,0.12672971189022064,0.23477886617183685
1772717170483351800,1.771351806640625,0.3806045651435852,0.06686963886022568,0.18312397599220276
1772717170503382800,1.7913828125,0.3973994255065918,-0.0032157553359866142,0.10357509553432465
1772717170523413800,1.811413818359375,0.47162044048309326,-0.060417965054512024,-0.03029770590364933
1772717170543444700,1.83144482421875,0.45188573002815247,-0.0482962429523468,-0.06716406345367432
1772717170563476700,1.851476806640625,0.3733808398246765,0.08423813432455063,-0.013628877699375153
1772717170583507700,1.8715078125,0.40564706921577454,0.0019155461341142654,-0.02857166901230812
1772717170603538700,1.89153857421875,0.3524051010608673,-0.1297115832567215,-0.14110976457595825
1772717170623570700,1.91157080078125,0.27425840497016907,-0.21079830825328827,-0.3057229816913605
1772717170643601700,1.9316015625,0.038952458649873734,-0.19399626553058624,-0.4501488506793976
1772717170663632600,1.951632568359375,-0.03169797733426094,0.0671272948384285,-0.3833606243133545
1772717170683663600,1.97166357421875,0.025042785331606865,-0.02717500925064087,-0.1915297508239746
1772717170703696000,1.99169580078125,0.05917959287762642,-0.2735374867916107,-0.07842380553483963
1772717170723726800,2.011726806640625,0.12200331687927246,-0.5881279706954956,-0.09486494213342667
1772717170743757800,2.0317578125,0.12125154584646225,-0.5006482601165771,-0.1498640775680542
1772717170763789600,2.05178955078125,0.11286104470491409,-0.37679946422576904,-0.23408262431621552
1772717170783820500,2.071820556640625,0.061330072581768036,-0.39644747972488403,-0.3083723783493042
1772717170803851000,2.09185107421875,0.011913517490029335,-0.3104400336742401,-0.22994424402713776
1772717170823882000,2.111882080078125,0.08644666522741318,-0.21872079372406006,-0.09426097571849823
1772717170843914200,2.131914306640625,0.14228670299053192,-0.4016764760017395,0.019440816715359688
1772717170863945200,2.1519453125,0.10207203030586243,-0.5341747403144836,0.11136551946401596
1772717170883976200,2.17197607421875,-0.058255307376384735,-0.29313331842422485,0.060754597187042236
1772717170904008200,2.19200830078125,-0.04037334769964218,-0.003298254683613777,-0.01715133711695671
1772717170924039200,2.2120390625,0.0656132698059082,0.13856327533721924,-0.09742940217256546
1772717170944070100,2.232070068359375,0.01807560585439205,0.08221682906150818,-0.2075842320919037
1772717170964102100,2.25210205078125,-0.05243537202477455,-0.04508572071790695,-0.24359312653541565
1772717170984133000,2.272133056640625,-0.04665585979819298,-0.25859150290489197,-0.1762445867061615
1772717171004164000,2.2921640625,0.02097403258085251,-0.3353947103023529,-0.0742596983909607
1772717171024195000,2.312195068359375,0.010202676989138126,-0.25450399518013,-0.10017401725053787
1772717171044227000,2.33222705078125,-0.0038439149502664804,0.04247386381030083,-0.0545385479927063
1772717171064258000,2.352258056640625,0.0701691061258316,0.07918735593557358,-0.045802898705005646
1772717171084289000,2.3722890625,0.09922534227371216,-0.06955867260694504,-0.06309561431407928
1772717171104320000,2.392320068359375,0.0678984597325325,-0.09955450147390366,-0.04058188945055008
1772717171124352300,2.412352294921875,0.0786137804389,-0.07364295423030853,0.012858286499977112
1772717171144383200,2.43238330078125,0.1006522849202156,-0.002604902721941471,0.02251974493265152
1772717171164414200,2.452414306640625,0.0968356505036354,0.034924112260341644,0.020925037562847137
1772717171184446200,2.4724462890625,0.07136119902133942,0.08127247542142868,-0.011846698820590973
1772717171204477200,2.492477294921875,0.045165009796619415,0.017915457487106323,-0.07606865465641022
1772717171224508200,2.512508056640625,0.023808052763342857,0.08462977409362793,-0.055307187139987946
1772717171244539100,2.5325390625,0.03906210884451866,0.15007668733596802,-0.030070805922150612
1772717171264571100,2.552571044921875,0.05672639608383179,0.11853183060884476,-0.03046502359211445
1772717171284602000,2.57260205078125,0.03199002146720886,0.05874413251876831,-0.014790123328566551
1772717171304633000,2.592633056640625,0.0037163496017456055,-0.008124168962240219,-0.007247839588671923
1772717171324665000,2.6126650390625,0.015466075390577316,-0.04426368325948715,-0.022457847371697426
1772717171344696000,2.632696044921875,0.01524737011641264,0.06526149809360504,-0.04441428184509277
1772717171364727300,2.652727294921875,-0.0006298213265836239,0.1674938201904297,-0.07521512359380722
1772717171384759300,2.67275927734375,-0.014145204797387123,0.20556627213954926,-0.09945286810398102
1772717171404790300,2.692790283203125,-0.03726128488779068,0.06501201540231705,-0.05775393545627594
1772717171424821200,2.7128212890625,-0.058111488819122314,0.0008523641154170036,0.04957500845193863
1772717171444852200,2.732852294921875,-0.06899650394916534,0.030903853476047516,0.11642338335514069
1772717171464884000,2.752884033203125,-0.031831275671720505,0.042777858674526215,0.1498652845621109
1772717171484915200,2.772915283203125,-0.036279819905757904,0.06657719612121582,0.12436685711145401
1772717171504946200,2.7929462890625,-0.03644677996635437,-0.044922396540641785,0.08890319615602493
1772717171524978200,2.812978271484375,-0.11092101037502289,-0.10113199800252914,0.09516412019729614
1772717171545009200,2.833009033203125,-0.12544825673103333,-0.07052288204431534,0.08471851795911789
1772717171565040000,2.8530400390625,-0.11810671538114548,-0.013042810373008251,0.029995083808898926
1772717171585071000,2.873071044921875,-0.20040805637836456,-0.09872805327177048,0.06090303882956505
1772717171605103400,2.893103271484375,-0.1154542863368988,-0.35041648149490356,0.13116975128650665
1772717171625134300,2.91313427734375,-0.03546478971838951,-0.3104665279388428,0.02108968421816826
1772717171645165300,2.933165283203125,0.0992809310555458,0.033092595636844635,-0.18621668219566345
1772717171665197000,2.953197021484375,0.34397459030151367,0.40468844771385193,-0.36732587218284607
1772717171685228000,2.97322802734375,0.5483410954475403,0.5222400426864624,-0.5282525420188904
1772717171705259000,2.993259033203125,0.5648876428604126,0.2773112952709198,-0.5448793768882751
1772717171725290000,3.0132900390625,0.3289661109447479,-0.010524526238441467,-0.32894524931907654
1772717171745322200,3.033322265625,0.3449873626232147,-0.3955971300601959,-0.19566553831100464
1772717171765353200,3.053353271484375,0.5053659677505493,-0.12003547698259354,-0.2794332802295685
1772717171785384200,3.07338427734375,0.48188090324401855,0.4284583032131195,-0.36676761507987976
1772717171805416700,3.093416748046875,0.3918571472167969,0.42426595091819763,-0.5301351547241211
1772717171825447700,3.11344775390625,0.17827652394771576,0.07955950498580933,-0.4572412073612213
1772717171845479000,3.13347900390625,0.07310318201780319,-0.24791112542152405,-0.1485518515110016
1772717171865510000,3.153510009765625,0.122359499335289,-0.35457947850227356,0.18642479181289673
1772717171885542000,3.1735419921875,0.2833938002586365,-0.34625229239463806,0.2389644980430603
1772717171905572900,3.19357275390625,0.6501399874687195,-0.004507565870881081,0.027681905776262283
1772717171925603800,3.213603759765625,0.6817280650138855,0.17483839392662048,-0.19455021619796753
1772717171945635800,3.2336357421875,0.49933090806007385,0.12929630279541016,-0.1848694384098053
1772717171965667000,3.2536669921875,0.39784297347068787,-0.12204015254974365,0.04439239948987961
1772717171985698000,3.273697998046875,0.5052536725997925,-0.4650249779224396,0.35487130284309387
1772717172005729000,3.29372900390625,0.5191059708595276,-0.7707983255386353,0.44351914525032043
1772717172025760800,3.3137607421875,0.8187032341957092,-0.7414313554763794,0.2729673683643341
1772717172045791700,3.333791748046875,0.8218877911567688,-0.787882924079895,-0.2253001183271408
1772717172065822700,3.35382275390625,0.873898983001709,-0.9917651414871216,-0.7982019186019897
1772717172085855000,3.37385498046875,0.10864632576704025,-1.4270509481430054,-1.1116257905960083
1772717172105886000,3.393885986328125,-0.44959259033203125,-1.295917272567749,-0.9030848741531372
1772717172125917000,3.4139169921875,-0.32890835404396057,-1.7242512702941895,-0.7246996164321899
1772717172145948000,3.433947998046875,0.08170855790376663,-2.550288200378418,-0.8763896226882935
1772717172165980000,3.45397998046875,0.48674434423446655,-3.424537181854248,-1.4014543294906616
1772717172186011000,3.474010986328125,0.3984372913837433,-3.8824915885925293,-1.3259618282318115
1772717172206041900,3.494041748046875,0.2663946747779846,-3.9175071716308594,-0.892839252948761
1772717172226073900,3.514073974609375,0.6590508818626404,-4.1287007331848145,-0.5674945116043091
1772717172246104800,3.534104736328125,1.1781221628189087,-4.749894618988037,-0.8126129508018494
1772717172266135800,3.5541357421875,1.5152283906936646,-5.683973789215088,-1.2596617937088013
1772717172286166800,3.574166748046875,1.5771963596343994,-6.6642327308654785,-1.1061134338378906
1772717172306198800,3.59419873046875,1.7455257177352905,-6.68309211730957,-0.28221216797828674
1772717172326229800,3.614229736328125,2.286705732345581,-5.805304527282715,0.04571450501680374
1772717172346261000,3.634260986328125,2.760450839996338,-4.762901782989502,-0.02376142330467701
1772717172366293000,3.65429296875,3.4780826568603516,-5.037353038787842,-0.02036086469888687
1772717172386324000,3.674323974609375,3.8962769508361816,-5.013942718505859,0.2594645321369171
1772717172406355000,3.69435498046875,3.9251880645751953,-4.476386070251465,0.1606770157814026
1772717172426386000,3.714385986328125,3.6077992916107178,-3.638960361480713,0.2997761368751526
1772717172446418000,3.73441796875,3.3811919689178467,-3.1574838161468506,0.3282524645328522
1772717172466449000,3.754448974609375,3.269979476928711,-2.490201473236084,0.4044743478298187
1772717172486480000,3.77447998046875,3.1985137462615967,-1.6852328777313232,0.44797176122665405
1772717172506512000,3.794511962890625,2.9806997776031494,-1.0562330484390259,0.5021613836288452
1772717172526542800,3.81454296875,2.5312435626983643,-0.8903676867485046,0.4299272894859314
1772717172546573800,3.83457373046875,2.093616247177124,-0.8373355865478516,0.3189290165901184
1772717172566604800,3.854604736328125,1.9259437322616577,-0.6627945303916931,0.1622219830751419
1772717172586637000,3.874636962890625,1.9909852743148804,-0.3742118179798126,0.05266980454325676
1772717172606668000,3.89466796875,2.05592942237854,-0.19187042117118835,0.08095082640647888
1772717172626699000,3.914698974609375,1.8307145833969116,-0.18236251175403595,0.05869395285844803
1772717172646730000,3.93472998046875,1.4732333421707153,-0.3030274510383606,0.07399075478315353
1772717172666762000,3.954761962890625,1.1732418537139893,-0.32375192642211914,0.15043173730373383
1772717172686793000,3.97479296875,0.9201416373252869,-0.20776522159576416,0.15741769969463348
1772717172706824000,3.994823974609375,0.6667870283126831,-0.11724929511547089,0.2195773720741272
1772717172726852900,4.014852783203125,0.5009961724281311,-0.07976171374320984,0.26189786195755005
1772717172746883800,4.0348837890625,0.5028190016746521,0.047572679817676544,0.19819238781929016
1772717172766914800,4.054914794921875,0.5343424081802368,0.24171999096870422,0.14113864302635193
1772717172786947000,4.074947021484375,0.44064220786094666,0.2803168296813965,0.13428376615047455
1772717172806977500,4.0949775390625,0.36374810338020325,0.3266003131866455,0.1346471756696701
1772717172827008500,4.115008544921875,0.3299459218978882,0.4617958068847656,0.07575526833534241
1772717172847039500,4.13503955078125,0.2443578988313675,0.5903645157814026,-0.022077981382608414
1772717172867071500,4.155071533203125,0.16726157069206238,0.6048455834388733,-0.06571103632450104
1772717172887102500,4.1751025390625,0.11095127463340759,0.4804832339286804,-0.07432898133993149
1772717172907133400,4.195133544921875,0.052175167948007584,0.4073721170425415,-0.05749024078249931
1772717172927165400,4.21516552734375,-0.008299434557557106,0.4697486460208893,-0.10505835711956024
1772717172947196400,4.235196533203125,0.0032597745303064585,0.472557932138443,-0.15239748358726501
1772717172967227400,4.255227294921875,-0.05549956113100052,0.2898549437522888,-0.13568906486034393
1772717172987258400,4.27525830078125,-0.14665205776691437,0.05970291420817375,-0.09963445365428925
1772717173007290400,4.295290283203125,-0.20475617051124573,-0.005398578010499477,-0.11842172592878342
1772717173027321300,4.3153212890625,-0.1647980809211731,0.04274836927652359,-0.133185476064682
1772717173047352300,4.335352294921875,-0.08989023417234421,0.12480045855045319,-0.1462988406419754
1772717173067384600,4.355384521484375,-0.029541239142417908,0.11770319193601608,-0.12944097816944122
1772717173087415600,4.37541552734375,-0.06129658967256546,-0.03800826519727707,-0.047585152089595795
1772717173107446500,4.395446533203125,-0.12905770540237427,-0.18413788080215454,-0.005172288976609707
1772717173127477500,4.4154775390625,-0.10181702673435211,-0.18512602150440216,-0.07072697579860687
1772717173147509200,4.43550927734375,-0.0634269267320633,-0.08720406889915466,-0.1745937615633011
1772717173167540200,4.455540283203125,-0.04556606337428093,-0.0604754239320755,-0.15865616500377655
1772717173187571500,4.475571533203125,-0.027998004108667374,-0.031875237822532654,-0.09149129688739777
1772717173207603500,4.495603515625,-0.03826348856091499,0.039273377507925034,-0.06208663433790207
1772717173227634400,4.515634521484375,0.0033749984577298164,0.14150486886501312,-0.08416195958852768
1772717173247665400,4.53566552734375,0.06098652258515358,0.24054481089115143,-0.15887725353240967
1772717173267696400,4.5556962890625,0.051531217992305756,0.20270392298698425,-0.20237845182418823
1772717173287728400,4.575728271484375,-0.009545393288135529,0.06907954066991806,-0.2031228095293045
1772717173307759600,4.595759521484375,-0.043882761150598526,-0.047723572701215744,-0.1914217174053192
1772717173327790600,4.61579052734375,-0.04107896611094475,-0.14460693299770355,-0.16871795058250427
1772717173347822300,4.635822265625,-0.04584495350718498,-0.27882400155067444,-0.12407369166612625
1772717173367853300,4.655853271484375,-0.06000787019729614,-0.46325060725212097,-0.05674184113740921
1772717173387884300,4.67588427734375,-0.061850693076848984,-0.6080873012542725,-0.013901539146900177
1772717173407915300,4.695915283203125,-0.06088947504758835,-0.5698928236961365,0.012974175624549389
1772717173427947500,4.715947509765625,-0.0687185525894165,-0.40268608927726746,0.0018646907992661
1772717173447978500,4.735978515625,-0.026038408279418945,-0.15168558061122894,-0.05115697905421257
1772717173468009500,4.756009521484375,0.03718701750040054,0.043966446071863174,-0.06959696114063263
1772717173488041500,4.77604150390625,0.054589349776506424,0.07941360026597977,0.005578093230724335
1772717173508072400,4.796072509765625,0.06500287353992462,0.0006286967545747757,0.09481079131364822
1772717173528103400,4.816103515625,0.055010322481393814,-0.11369062215089798,0.18705715239048004
1772717173548135400,4.836135498046875,-0.00045383558608591557,-0.17226651310920715,0.2965245544910431
1772717173568166400,4.85616650390625,-0.08002607524394989,-0.12337391823530197,0.31425589323043823
1772717173588197400,4.876197265625,-0.17354847490787506,0.03756921365857124,0.18535718321800232
1772717173608228400,4.896228271484375,-0.2573193907737732,0.20357409119606018,-0.10428959876298904
1772717173628260400,4.91626025390625,-0.28584524989128113,0.2504040002822876,-0.28877031803131104
1772717173648291300,4.936291259765625,-0.23534177243709564,0.17098939418792725,-0.22404272854328156
1772717173668322300,4.956322265625,-0.15134431421756744,0.1461726278066635,-0.15620148181915283
1772717173688354600,4.9763544921875,-0.133802130818367,0.23071497678756714,-0.28101372718811035
1772717173708385500,4.996385498046875,-0.15929201245307922,0.3111635446548462,-0.5127187371253967
1772717173728416500,5.01641650390625,-0.13313525915145874,0.28345224261283875,-0.6521744132041931
1772717173748447500,5.036447509765625,-0.04243801161646843,0.09396135061979294,-0.6489112973213196
1772717173768479200,5.056479248046875,0.04378667101264,-0.1896795928478241,-0.4608689248561859
1772717173788510200,5.07651025390625,0.07283604890108109,-0.39537519216537476,-0.10370321571826935
1772717173808541700,5.096541748046875,0.06073547154664993,-0.5212144255638123,0.22704556584358215
1772717173828572700,5.11657275390625,0.10706187039613724,-0.5791809558868408,0.3863794207572937
1772717173848604700,5.136604736328125,0.19739598035812378,-0.6142763495445251,0.31119969487190247
1772717173868636000,5.156635986328125,0.22461660206317902,-0.687515139579773,0.12593190371990204
1772717173888667000,5.1766669921875,0.2057153433561325,-0.8629319667816162,0.011119702830910683
1772717173908699000,5.196698974609375,0.15125057101249695,-1.0550824403762817,0.047381043434143066
1772717173928729900,5.216729736328125,0.12978513538837433,-1.1188952922821045,0.20576120913028717
1772717173948760800,5.2367607421875,0.10298750549554825,-0.8982460498809814,0.24211783707141876
1772717173968791800,5.256791748046875,0.033785637468099594,-0.41738104820251465,0.0854819267988205
1772717173988823800,5.27682373046875,-0.04351755231618881,0.014026920311152935,-0.10206815600395203
1772717174008854800,5.296854736328125,-0.14296969771385193,0.22439096868038177,-0.2423822283744812
1772717174028885800,5.3168857421875,-0.18421778082847595,0.22296516597270966,-0.35575395822525024
1772717174048917800,5.336917724609375,-0.20031090080738068,0.051121823489665985,-0.4014870822429657
1772717174068948700,5.35694873046875,-0.17010626196861267,-0.209368497133255,-0.4239475429058075
1772717174088979700,5.376979736328125,-0.13110338151454926,-0.5067295432090759,-0.34211036562919617
1772717174109010700,5.3970107421875,-0.08228056132793427,-0.6911294460296631,-0.2627241909503937
1772717174129043000,5.41704296875,-0.046209756284952164,-0.7406474351882935,-0.13371920585632324
1772717174149074000,5.437073974609375,-0.06500113755464554,-0.6758415102958679,-0.02526145614683628
1772717174169105000,5.45710498046875,-0.11355726420879364,-0.5257238149642944,0.04722025245428085
1772717174189136600,5.47713671875,-0.1683797687292099,-0.3121016025543213,0.06434890627861023
1772717174209167600,5.497167724609375,-0.1608039289712906,-0.12248451262712479,0.09247560799121857
1772717174229198600,5.517198486328125,-0.11506243050098419,0.030845999717712402,0.15037837624549866
1772717174249230800,5.53723095703125,-0.04270080849528313,0.16228392720222473,0.17201395332813263
1772717174269261800,5.55726171875,-0.03893245384097099,0.2638765871524811,0.1387917548418045
1772717174289292800,5.577292724609375,-0.09014488011598587,0.30393362045288086,0.03313000500202179
1772717174309323800,5.59732373046875,-0.08974995464086533,0.34021463990211487,-0.10245398432016373
1772717174329355800,5.617355712890625,-0.01994684338569641,0.2888281047344208,-0.16674721240997314
1772717174349386800,5.63738671875,0.03830650821328163,0.1836429089307785,-0.1674174815416336
1772717174369417700,5.657417724609375,0.05712044984102249,0.060569144785404205,-0.13768014311790466
1772717174389449000,5.677448974609375,0.056263137608766556,-0.022294264286756516,-0.09801603853702545
1772717174409480700,5.697480712890625,0.06133977323770523,-0.05164419114589691,-0.0887271910905838
1772717174429511700,5.71751171875,0.07183787971735,-0.06649693101644516,-0.07881896197795868
1772717174449542700,5.737542724609375,0.0689900740981102,-0.1321789026260376,-0.04538952559232712
1772717174469574700,5.75757470703125,0.022706301882863045,-0.177125945687294,-0.013735507614910603
1772717174489605600,5.777605712890625,-0.05823088809847832,-0.16721978783607483,-0.0609661340713501
1772717174509636900,5.797636962890625,-0.12840162217617035,-0.10153137147426605,-0.16713044047355652
1772717174529667800,5.817667724609375,-0.19465471804141998,0.03243020176887512,-0.2309434562921524
1772717174549699800,5.837699951171875,-0.27698269486427307,0.1938372105360031,-0.30827978253364563
1772717174569730800,5.857730712890625,-0.3540332019329071,0.46672067046165466,-0.4507959187030792
1772717174589761800,5.87776171875,-0.5896722674369812,0.7931337356567383,-0.795682966709137
1772717174609793800,5.897793701171875,-0.9669145941734314,1.3161331415176392,-1.1591691970825195
1772717174629824800,5.91782470703125,-1.4547369480133057,1.9310423135757446,-1.7069720029830933
1772717174649855700,5.937855712890625,-1.7978984117507935,2.884579658508301,-2.1585896015167236
1772717174669886700,5.95788671875,-2.3915958404541016,3.952052116394043,-2.443385124206543
1772717174689918700,5.977918701171875,-3.0356826782226562,4.6616740226745605,-2.4496383666992188
1772717174709949700,5.99794970703125,-3.601162910461426,5.26847505569458,-2.1475067138671875
1772717174729980700,6.017980712890625,-4.0417914390563965,6.036388874053955,-1.8364099264144897
1772717174750013000,6.038012939453125,-3.912128210067749,6.9168829917907715,-1.0926772356033325
1772717174770044000,6.0580439453125,-3.716379165649414,7.868344306945801,-0.0973314419388771
1772717174790075000,6.078074951171875,-3.381171703338623,8.598437309265137,0.625299870967865
1772717174810106000,6.098106201171875,-2.831864356994629,8.619993209838867,1.2994096279144287
1772717174830137900,6.118137939453125,-2.2895915508270264,7.635636329650879,2.0339181423187256
1772717174850168800,6.1381689453125,-1.9924805164337158,6.314393520355225,2.6330759525299072
1772717174870199800,6.15819970703125,-1.6294046640396118,5.188854694366455,2.6586403846740723
1772717174890232000,6.178232177734375,-1.2197178602218628,4.444937229156494,2.5019004344940186
1772717174910263000,6.198262939453125,-0.9217098951339722,3.9657859802246094,2.353253126144409
1772717174930294000,6.2182939453125,-0.5812069773674011,3.506131410598755,2.154186725616455
1772717174950326000,6.238325927734375,-0.47874078154563904,2.943145990371704,2.2112576961517334
1772717174970357000,6.25835693359375,-0.4152851104736328,2.592095375061035,2.3109090328216553
1772717174990388000,6.278387939453125,-0.186995267868042,2.5419323444366455,2.1400296688079834
1772717175010419200,6.298419189453125,0.04267161339521408,2.6933295726776123,1.822398066520691
1772717175030451000,6.318450927734375,0.14380855858325958,2.6542282104492188,1.6705317497253418
1772717175050482000,6.33848193359375,0.15049350261688232,2.213606834411621,1.7118767499923706
1772717175070513000,6.358512939453125,0.1482638567686081,1.9009296894073486,1.6673974990844727
1772717175090545000,6.378544921875,0.2341848462820053,1.3949965238571167,1.5794788599014282
1772717175110575900,6.398575927734375,0.3755663335323334,0.9172453880310059,1.524269461631775
1772717175130607000,6.418607177734375,0.41800937056541443,0.4255261719226837,1.3950120210647583
1772717175150638000,6.43863818359375,0.39822766184806824,0.23216091096401215,1.1179838180541992
1772717175170670000,6.458670166015625,0.4213440418243408,0.48941123485565186,0.7327918410301208
1772717175190701000,6.478701171875,0.3805607557296753,0.6843528151512146,0.3839033544063568
1772717175210732000,6.49873193359375,0.2397453486919403,0.42623814940452576,0.23687389492988586
1772717175230764000,6.518763916015625,0.0985153466463089,-0.14782176911830902,0.13227348029613495
1772717175250795000,6.538794921875,0.20595388114452362,-0.375328004360199,-0.07143454998731613
1772717175270826000,6.558825927734375,0.3327745497226715,-0.3298224210739136,-0.36820802092552185
1772717175290858000,6.57885791015625,0.2526695728302002,-0.18312889337539673,-0.2155764400959015
1772717175310889000,6.598888916015625,0.3010229170322418,-0.2533142566680908,0.04338398948311806
1772717175330920000,6.618919921875,0.2502639889717102,-0.3570270836353302,-0.0016858153976500034
1772717175350951000,6.638950927734375,0.0021932709496468306,-0.11221039295196533,-0.06430399417877197
1772717175370983200,6.658983154296875,-0.2098059356212616,0.0715172067284584,-0.3511500358581543
1772717175391014100,6.67901416015625,0.013868078589439392,-0.036524467170238495,-0.46430686116218567
1772717175411045000,6.699045166015625,0.11534254997968674,-0.027876172214746475,-0.7121292352676392
1772717175431077000,6.7190771484375,-0.10145074129104614,-0.13579554855823517,-0.7907716035842896
1772717175451108000,6.739108154296875,-0.09943393617868423,0.2896741032600403,-0.7309095859527588
1772717175471139000,6.75913916015625,0.04454910010099411,0.5807923078536987,-0.6551694273948669
1772717175491171000,6.779171142578125,-0.05358191207051277,0.25075969099998474,-0.6424143314361572
1772717175511202000,6.7992021484375,-0.2069217562675476,0.06018318235874176,-0.37780359387397766
1772717175531233000,6.81923291015625,-0.0778009369969368,0.04546290636062622,0.10518309473991394
1772717175551264000,6.839263916015625,0.12041459232568741,-0.0973023995757103,0.21906688809394836
1772717175571296000,6.8592958984375,0.11493290215730667,-0.2573044002056122,0.06902807950973511
1772717175591327000,6.879326904296875,-0.003553696908056736,-0.55755215883255,0.2560375928878784
1772717175611358000,6.89935791015625,0.09675074368715286,-0.8987299799919128,0.5126696228981018
1772717175631390200,6.91939013671875,0.01607217639684677,-0.7051407694816589,0.35400569438934326
1772717175651421200,6.939421142578125,0.030427981168031693,-0.33003950119018555,0.1863984316587448
1772717175671452200,6.9594521484375,0.07729604840278625,-0.1855991780757904,0.19459649920463562
1772717175691483100,6.979483154296875,0.05530071258544922,-0.28574246168136597,0.26009517908096313
1772717175711515000,6.999514892578125,-0.10335130989551544,-0.16749611496925354,0.19769401848316193
1772717175731545900,7.0195458984375,-0.0026069353334605694,0.12156124413013458,0.08726119250059128
1772717175751577000,7.0395771484375,0.09567295014858246,0.16018544137477875,0.1751067340373993
1772717175771609000,7.059609130859375,0.037969909608364105,-0.019123857840895653,0.4297243654727936
1772717175791640000,7.07964013671875,-0.054290395230054855,-0.1399155557155609,0.49780434370040894
1772717175811670800,7.0996708984375,-0.047692760825157166,-0.04829232394695282,0.40259647369384766
1772717175831702800,7.119702880859375,-0.015798645094037056,-0.12672275304794312,0.4944815933704376
1772717175851734000,7.139734130859375,0.00553846824914217,-0.2774355709552765,0.6945850253105164
1772717175871765000,7.159764892578125,-0.04096856713294983,-0.12743139266967773,0.7046175599098206
1772717175891796000,7.1797958984375,-0.06574214994907379,0.10764038562774658,0.5107366442680359
1772717175911827700,7.19982763671875,-0.04806806892156601,0.19988246262073517,0.33294588327407837
1772717175931858700,7.219858642578125,0.0214493740350008,0.14318564534187317,0.3414429724216461
1772717175951889700,7.2398896484375,0.03191597759723663,0.18548248708248138,0.3645158112049103
1772717175971922000,7.259921875,0.043709445744752884,0.24955731630325317,0.22721542418003082
1772717175991953000,7.279952880859375,0.05031554400920868,0.29734864830970764,0.10345949977636337
1772717176011984000,7.29998388671875,0.1139579564332962,0.12222689390182495,0.0446033775806427
1772717176032016000,7.320015869140625,0.18598391115665436,-0.08403114974498749,0.0910114124417305
1772717176052046800,7.340046875,0.22058315575122833,-0.1407691389322281,0.1497822254896164
1772717176072077800,7.360077880859375,0.2040478140115738,-0.2663053274154663,0.25223013758659363
1772717176092108800,7.38010888671875,0.16096587479114532,-0.40151622891426086,0.3073132336139679
1772717176112140800,7.400140869140625,0.13315649330615997,-0.3296196460723877,0.2171938568353653
1772717176132171800,7.420171875,0.15735258162021637,-0.24799403548240662,0.07506194710731506
1772717176152202800,7.44020263671875,0.160808727145195,-0.11038058996200562,-0.0021255577448755503
1772717176172234800,7.46023486328125,0.1541420966386795,-0.11032639443874359,0.04466281831264496
1772717176192265700,7.480265625,0.1443808674812317,-0.14830708503723145,0.08514633774757385
1772717176212296700,7.500296630859375,0.14470994472503662,-0.09513244777917862,0.007480943109840155
1772717176232329000,7.520328857421875,0.12508520483970642,-0.05815642327070236,-0.002597898244857788
1772717176252360000,7.54035986328125,0.11442428827285767,-0.12900492548942566,0.09909787029027939
1772717176272391000,7.560390869140625,0.13100570440292358,-0.22208377718925476,0.21129226684570312
1772717176292422000,7.580421875,0.12242286652326584,-0.24591465294361115,0.26007068157196045
1772717176312453600,7.60045361328125,0.10375303775072098,-0.2837294340133667,0.2459511011838913
1772717176332484600,7.620484619140625,0.14879637956619263,-0.2584892511367798,0.20958998799324036
1772717176352515800,7.640515869140625,0.14485514163970947,-0.27660053968429565,0.1241292729973793
1772717176372547800,7.6605478515625,0.1561305820941925,-0.2791098952293396,0.058073583990335464
1772717176392578800,7.680578857421875,0.1637735217809677,-0.20715537667274475,-0.010044722817838192
1772717176412609800,7.70060986328125,0.1073501780629158,0.02410777285695076,-0.20419791340827942
1772717176432641800,7.720641845703125,0.09645562618970871,0.35915905237197876,-0.4228881299495697
1772717176452672800,7.7406728515625,0.0805768221616745,0.35611391067504883,-0.41205263137817383
