time,seconds_elapsed,z,y,x
1772791695974596900,0.201596923828125,8.828536033630371,4.67357873916626,6.059362888336182
1772791695994700800,0.22170068359375,8.341055870056152,3.6668787002563477,5.804244518280029
1772791696014804500,0.241804443359375,7.135531902313232,3.3955907821655273,4.813115119934082
1772791696034908400,0.261908447265625,6.553430557250977,3.8980424404144287,4.03218936920166
1772791696055012000,0.28201220703125,7.460119247436523,3.860313653945923,4.456189155578613
1772791696075115800,0.30211572265625,8.688400268554688,3.818392753601074,4.540030479431152
1772791696095219700,0.3222197265625,8.116479873657227,4.277725696563721,3.9788899421691895
1772791696115323400,0.342323486328125,7.151700973510742,4.231013774871826,3.790844678878784
1772791696135427300,0.36242724609375,7.935621738433838,4.5184712409973145,2.866788864135742
1772791696155530800,0.38253076171875,11.016805648803711,4.385522365570068,2.998540163040161
1772791696175634200,0.40263427734375,13.456002235412598,3.5842347145080566,3.8902571201324463
1772791696195737300,0.4227373046875,10.558670997619629,4.22442626953125,3.024890422821045
1772791696215840500,0.442840576171875,7.236141681671143,5.327544212341309,2.8625967502593994
1772791696235943700,0.462943603515625,7.467305660247803,4.386720180511475,3.201557159423828
1772791696256047000,0.483047119140625,6.446831703186035,3.388404369354248,1.910992980003357
1772791696276150300,0.503150390625,6.319272518157959,3.3404948711395264,2.2792978286743164
1772791696296253400,0.52325341796875,5.312572479248047,4.443612575531006,3.6944267749786377
1772791696316356600,0.543356689453125,5.435340881347656,5.547329425811768,1.729535460472107
1772791696336459800,0.563459716796875,8.030242919921875,6.144402503967285,3.5554890632629395
1772791696356563200,0.583563232421875,7.6757121086120605,4.964629173278809,5.013736724853516
1772791696376666400,0.603666259765625,5.529962062835693,5.49462890625,2.5230376720428467
1772791696396769500,0.62376953125,6.886402130126953,5.317962169647217,1.036643385887146
1772791696416872700,0.643872802734375,10.147247314453125,4.835273265838623,3.106336832046509
1772791696436975900,0.663975830078125,10.49279499053955,2.690721273422241,5.448515892028809
1772791696457079300,0.684079345703125,10.629936218261719,2.767376661300659,4.449601173400879
1772791696477182500,0.704182373046875,11.282105445861816,3.058427333831787,3.350076675415039
1772791696497285600,0.72428564453125,8.814762115478516,2.5380094051361084,2.3463711738586426
1772791696517388800,0.744388916015625,9.736422538757324,3.49320650100708,1.251637578010559
1772791696537492200,0.7644921875,15.691581726074219,4.859228134155273,0.5491634607315063
1772791696557595400,0.784595458984375,15.904180526733398,3.7704832553863525,2.623647928237915
1772791696577698600,0.804698486328125,10.066998481750488,3.569861888885498,3.426732063293457
1772791696597801700,0.8248017578125,4.267545223236084,4.420256614685059,2.2361791133880615
1772791696617905000,0.84490478515625,1.1013212203979492,4.773590087890625,2.1547329425811768
1772791696638008300,0.86500830078125,-0.5581464767456055,4.9263014793396,1.0078976154327393
1772791696658109700,0.885109619140625,2.4338061809539795,5.327544212341309,-0.9522027373313904
1772791696678210000,0.9052099609375,4.792154788970947,6.287532329559326,-3.0554327964782715
1772791696698310400,0.925310302734375,6.456413745880127,5.76232385635376,-4.289104461669922
1772791696718411000,0.945410888671875,11.258150100708008,5.370662689208984,-0.043717484921216965
1772791696738511400,0.965511474609375,9.164502143859863,3.7752742767333984,6.786989688873291
1772791696758611700,0.98561181640625,7.117565631866455,2.6769473552703857,9.162705421447754
1772791696778712000,1.005712158203125,7.817644119262695,1.6876146793365479,8.862671852111816
1772791696798812400,1.0258125,8.904592514038086,1.8115806579589844,6.348018169403076
1772791696818912800,1.045912841796875,9.12198257446289,3.607590675354004,5.765317916870117
1772791696839013000,1.06601318359375,7.926638603210449,4.830482482910156,7.208593845367432
1772791696859113700,1.08611376953125,7.487068176269531,3.789048194885254,8.724332809448242
1772791696879214000,1.106214111328125,13.536849021911621,1.0953326225280762,18.90152359008789
1772791696899314400,1.126314453125,19.80881118774414,-3.288991928100586,28.12291717529297
1772791696919414800,1.146414794921875,30.972938537597656,-7.334356307983398,27.89834213256836
1772791696939515100,1.16651513671875,35.00931930541992,-12.846352577209473,29.930307388305664
1772791696959615500,1.186615478515625,27.8109073638916,-15.33465576171875,33.118690490722656
1772791696979715800,1.2067158203125,17.029457092285156,-15.348429679870605,27.577348709106445
1772791696999816200,1.226816162109375,8.120073318481445,-12.272635459899902,17.815773010253906
1772791697019916800,1.246916748046875,-0.5437736511230469,-7.826028347015381,10.822173118591309
1772791697040017200,1.26701708984375,-7.917056560516357,-3.909420967102051,4.081895351409912
1772791697060117500,1.287117431640625,-9.415428161621094,-0.709660530090332,-2.5104615688323975
1772791697080217900,1.3072177734375,-6.551034927368164,-2.237975835800171,-4.556798934936523
1772791697100318200,1.327318115234375,-3.634539842605591,-4.3537821769714355,-5.149081230163574
1772791697120418600,1.34741845703125,-2.0942471027374268,-4.874199867248535,-6.521091461181641
1772791697140519000,1.367518798828125,-0.9977167844772339,-5.5143914222717285,-7.716435432434082
1772791697160619300,1.387619384765625,-1.7205524444580078,-6.665419101715088,-7.458322525024414
1772791697180719600,1.4077197265625,-3.323127508163452,-7.7637457847595215,-5.890481948852539
1772791697200820000,1.427820068359375,-4.5184712409973145,-8.690196990966797,-4.37474250793457
1772791697220920300,1.44792041015625,-4.849646091461182,-10.070591926574707,-3.260845184326172
1772791697241020400,1.4680205078125,-4.674776554107666,-10.4574613571167,-2.448777914047241
1772791697261120800,1.488120849609375,-4.225624084472656,-9.927461624145508,-1.110304355621338
1772791697281221000,1.50822119140625,-4.078901290893555,-9.664558410644531,1.3564397096633911
1772791697301321500,1.528321533203125,-3.596811056137085,-8.169779777526855,3.464460849761963
1772791697321421800,1.548421875,-5.7994537353515625,-5.590447902679443,7.245723724365234
1772791697341522000,1.56852197265625,-8.460830688476562,-4.787962913513184,9.14354133605957
1772791697361622300,1.588622314453125,-8.479394912719727,-3.5656697750091553,4.530448913574219
1772791697381722600,1.60872265625,-8.886027336120605,-4.019014358520508,2.226597309112549
1772791697401823000,1.628822998046875,-12.558296203613281,-8.723733901977539,3.0009357929229736
1772791697421923300,1.64892333984375,-17.015682220458984,-20.549013137817383,5.692255973815918
1772791697442023400,1.6690234375,-23.01815414428711,-23.902084350585938,10.510761260986328
1772791697462123800,1.689123779296875,-36.129207611083984,-35.11112976074219,28.28461265563965
1772791697482224000,1.70922412109375,-39.33854675292969,-41.09083938598633,43.51446533203125
1772791697502324500,1.729324462890625,-28.32593536376953,-32.613243103027344,45.4793586730957
1772791697522424600,1.749424560546875,-5.317363262176514,-19.675262451171875,45.42186737060547
1772791697542525000,1.76952490234375,10.6485013961792,-9.311224937438965,47.45383071899414
1772791697562625300,1.789625244140625,8.46023178100586,-17.48280143737793,37.768310546875
1772791697582725600,1.8097255859375,0.798892080783844,-25.974773406982422,22.71572494506836
1772791697602826000,1.829825927734375,-0.3168020248413086,-19.727964401245117,4.980199813842773
1772791697622926000,1.849926025390625,-2.887749433517456,-8.041022300720215,-5.455103397369385
1772791697643026400,1.8700263671875,-9.211812973022461,1.501965045928955,-10.187970161437988
1772791697663126800,1.890126708984375,-9.089044570922852,5.079013347625732,-10.058614730834961
1772791697683227100,1.91022705078125,-5.922221660614014,4.677770614624023,-9.571134567260742
1772791697703327500,1.930327392578125,-4.2873077392578125,4.4244489669799805,-7.5487518310546875
1772791697723427600,1.950427490234375,-6.012052059173584,0.8569824695587158,-1.5971853733062744
1772791697743528000,1.97052783203125,-6.324063301086426,-1.5882022380828857,1.7343264818191528
1772791697763628300,1.990628173828125,-2.7793540954589844,-1.48819100856781,1.4145300388336182
1772791697783728600,2.010728759765625,1.2007336616516113,0.823445737361908,0.3006325662136078
1772791697803828700,2.030828857421875,3.6393308639526367,2.3469700813293457,0.013774001970887184
1772791697823929000,2.05092919921875,5.317363262176514,3.3357038497924805,0.42998838424682617
1772791697844029400,2.071029541015625,6.7019500732421875,5.561103343963623,0.6114459037780762
1772791697864129800,2.0911298828125,5.118538856506348,8.665643692016602,-0.6024628281593323
1772791697884230100,2.111230224609375,-0.7186435461044312,11.03896427154541,2.2751057147979736
1772791697904330500,2.13133056640625,-2.5661563873291016,1.5444847345352173,22.242616653442383
1772791697924430600,2.1514306640625,1.3235019445419312,-25.053112030029297,56.030242919921875
1772791697944531000,2.171531005859375,24.024852752685547,-16.88153648376465,48.104801177978516
1772791697964631300,2.19163134765625,19.97888946533203,-17.583412170410156,38.82112503051758
1772791697984731600,2.211731689453125,-6.036006927490234,-33.31571578979492,48.91147994995117
1772791698004831700,2.231831787109375,-16.73181915283203,-43.87977600097656,56.12067413330078
1772791698024932000,2.25193212890625,-22.45102310180664,-60.3001823425293,58.424522399902344
1772791698045032400,2.272032470703125,-23.405622482299805,-64.02994537353516,44.604408264160156
1772791698065132800,2.2921328125,-23.452932357788086,-52.42924118041992,24.4746036529541
1772791698085233200,2.312233154296875,-19.903432846069336,-36.80652618408203,10.664072036743164
1772791698105333200,2.332333251953125,-15.3472318649292,-21.647340774536133,1.2797844409942627
1772791698125433600,2.35243359375,-16.11737823486328,-14.407007217407227,-5.417374610900879
1772791698145534000,2.372533935546875,-15.852678298950195,-11.651008605957031,-11.211438179016113
1772791698165635800,2.3926357421875,-11.622262954711914,-9.61664867401123,-16.182056427001953
1772791698185738000,2.412738037109375,-7.614627361297607,-10.729947090148926,-18.405059814453125
1772791698205840100,2.432840087890625,-4.3861212730407715,-11.942658424377441,-19.93936538696289
1772791698225942000,2.45294189453125,-2.183478593826294,-12.773889541625977,-17.3055362701416
1772791698246044200,2.473044189453125,-3.5165624618530273,-13.2655611038208,-14.571097373962402
1772791698266146300,2.493146240234375,-4.807126522064209,-11.742036819458008,-11.894149780273438
1772791698286248400,2.51324853515625,-6.446831703186035,-10.739529609680176,-7.3672943115234375
1772791698306350600,2.5333505859375,-7.893101692199707,-10.839540481567383,-3.3848111629486084
1772791698326452500,2.553452392578125,-7.907474517822266,-9.946625709533691,0.1856495887041092
1772791698346554600,2.5735546875,-7.170266151428223,-8.996219635009766,3.1494553089141846
1772791698366656800,2.59365673828125,-6.173148155212402,-7.935621738433838,4.119624137878418
1772791698386759000,2.613759033203125,-5.237114906311035,-7.9068756103515625,4.220234394073486
1772791698406861000,2.633861083984375,-5.426357746124268,-8.050005912780762,4.238799095153809
1772791698426963000,2.653962890625,-6.622300624847412,-9.277688026428223,6.763034820556641
1772791698447065000,2.674065185546875,-8.781824111938477,-13.112849235534668,10.238275527954102
1772791698467167200,2.694167236328125,-11.707901000976562,-21.274843215942383,16.161096572875977
1772791698487269400,2.714269287109375,-15.899989128112793,-31.089717864990234,22.585769653320312
1772791698507371300,2.734371337890625,-16.11737823486328,-34.99195098876953,27.61028480529785
1772791698527473400,2.754473388671875,-18.485309600830078,-40.39794921875,34.23558044433594
1772791698547575600,2.774575439453125,-15.63528823852539,-36.295692443847656,32.352134704589844
1772791698567677700,2.794677734375,-4.410076141357422,-22.49773597717285,26.984466552734375
1772791698587779800,2.81477978515625,0.042519744485616684,-15.02324390411377,24.465023040771484
1772791698607881700,2.8348818359375,-1.091739296913147,-10.963506698608398,18.025976181030273
1772791698627984000,2.85498388671875,-1.0210727453231812,-7.0762434005737305,10.812591552734375
1772791698648086000,2.8750859375,-0.8743496537208557,-1.168394684791565,5.167047023773193
1772791698668187400,2.8951875,-1.3468577861785889,1.6780327558517456,3.206946849822998
1772791698688288800,2.915288818359375,-1.8858405351638794,-0.23715238273143768,5.176629066467285
1772791698708390400,2.935390380859375,-1.058801531791687,-0.385073184967041,6.348018169403076
1772791698728491800,2.95549169921875,-0.5910843014717102,1.9457274675369263,5.473069667816162
1772791698748593400,2.975593505859375,-1.0306546688079834,4.290900707244873,3.8142006397247314
1772791698768694800,2.99569482421875,-1.815173864364624,5.3371262550354,2.9344611167907715
1772791698788796200,3.015796142578125,-3.133884906768799,5.819216251373291,3.2309017181396484
1772791698808897800,3.035897705078125,-2.9350600242614746,5.709623336791992,3.2309017181396484
1772791698828999200,3.055999267578125,0.4581352770328522,3.9040310382843018,5.018527507781982
1772791698849100800,3.076100830078125,5.917430877685547,1.5211288928985596,9.904106140136719
1772791698869202200,3.0962021484375,10.573043823242188,0.2359546422958374,15.076542854309082
1772791698889303600,3.116303466796875,17.274993896484375,1.5876034498214722,17.58580780029297
1772791698909405200,3.1364052734375,15.242429733276367,-0.10779653489589691,20.334617614746094
1772791698929506600,3.156506591796875,7.633192539215088,-6.970842361450195,21.405397415161133
1772791698949608000,3.17660791015625,3.6818504333496094,-14.669910430908203,19.311748504638672
1772791698969709600,3.19670947265625,1.3043380975723267,-22.00606346130371,19.42254066467285
1772791698989811000,3.21681103515625,-5.979114532470703,-33.22528839111328,24.909982681274414
1772791699009912600,3.23691259765625,-9.481304168701172,-35.69921875,24.5949764251709
1772791699030014000,3.257013916015625,-6.389938831329346,-24.881237030029297,18.09364891052246
1772791699050115300,3.277115234375,-7.618819713592529,-27.565370559692383,20.18729591369629
1772791699070217000,3.297217041015625,-13.220046997070312,-35.58423614501953,24.12666130065918
1772791699090318300,3.317318359375,-14.424972534179688,-39.29542922973633,21.956357955932617
1772791699110419700,3.337419677734375,-9.486095428466797,-35.632144927978516,14.584871292114258
1772791699130521300,3.357521240234375,-3.9417598247528076,-30.784893035888672,11.19107723236084
1772791699150622700,3.377622802734375,-2.24516224861145,-25.559755325317383,9.60886287689209
1772791699170724600,3.397724609375,-2.76019024848938,-20.038177490234375,7.294232368469238
1772791699190826500,3.417826416015625,-3.927985906600952,-16.75697135925293,4.679567337036133
1772791699210928400,3.437928466796875,-3.9842796325683594,-13.452408790588379,2.2894785404205322
1772791699231030300,3.4580302734375,-2.859602451324463,-10.476625442504883,0.24853089451789856
1772791699251132400,3.47813232421875,-2.1032302379608154,-8.695587158203125,-2.4433882236480713
1772791699271234000,3.498234130859375,-2.4344050884246826,-8.026649475097656,-7.8733391761779785
1772791699291336200,3.518336181640625,-0.8935135006904602,-7.458322525024414,-14.00217056274414
1772791699311438000,3.53843798828125,0.9833439588546753,-7.305610656738281,-16.167682647705078
1772791699331540000,3.5585400390625,1.4839990139007568,-7.176254749298096,-15.751469612121582
1772791699351641900,3.578641845703125,1.0635924339294434,-6.85645866394043,-12.62057876586914
1772791699371743700,3.59874365234375,0.12755922973155975,-6.483961582183838,-8.877643585205078
1772791699391845600,3.618845703125,-0.9030954241752625,-5.452109336853027,-5.6844706535339355
1772791699411947500,3.638947509765625,-1.8433207273483276,-4.439420700073242,-2.667964220046997
1772791699432049400,3.65904931640625,-2.5428004264831543,-4.043567657470703,-0.17307332158088684
1772791699452151300,3.6791513671875,-2.930269241333008,-3.689635753631592,1.528914213180542
1772791699472253200,3.699253173828125,-3.4033761024475098,-4.119624137878418,2.9727888107299805
1772791699492355000,3.71935498046875,-4.414866924285889,-5.270651817321777,4.244189262390137
1772791699512457000,3.73945703125,-6.91514778137207,-9.516637802124023,6.3330464363098145
1772791699532558800,3.759558837890625,-11.991167068481445,-19.197364807128906,8.680615425109863
1772791699552660700,3.77966064453125,-16.807275772094727,-29.805143356323242,12.188794136047363
1772791699572762600,3.7997626953125,-16.268293380737305,-35.78006362915039,17.452857971191406
1772791699592864500,3.819864501953125,-13.39012622833252,-21.686267852783203,12.461877822875977
1772791699612966400,3.83996630859375,-12.770895004272461,-15.577796936035156,16.759366989135742
1772791699653170000,3.880169921875,-5.411984920501709,-25.181869506835938,27.037166595458984
1772791699673270500,3.9002705078125,6.834300518035889,-19.78545570373535,7.342141628265381
1772791699693371100,3.92037109375,10.78564167022705,-14.211775779724121,2.5380094051361084
1772791699713471700,3.9404716796875,4.357974529266357,-16.738407135009766,16.028146743774414
1772791699733572600,3.960572509765625,-7.926039695739746,-12.024104118347168,17.949918746948242
1772791699753673200,3.980673095703125,-14.501029014587402,-1.4306995868682861,14.206984519958496
1772791699773773800,4.00077392578125,-17.364824295043945,3.564471960067749,13.127222061157227
1772791699793874700,4.020874755859375,-15.88082504272461,4.992177486419678,8.437474250793457
1772791699813975300,4.040975341796875,-12.198974609375,4.423850059509277,4.078302383422852
1772791699834076000,4.061075927734375,-8.658456802368164,4.381330490112305,3.8579182624816895
1772791699854176500,4.081176513671875,-5.742560863494873,6.028820514678955,5.464685440063477
1772791699874277400,4.10127734375,-2.5002806186676025,7.547554016113281,7.161283016204834
1772791699894378000,4.1213779296875,1.1725867986679077,7.131938457489014,9.59988021850586
1772791699914478600,4.141478515625,2.996743679046631,5.880300998687744,11.74622917175293
1772791699934579500,4.161579345703125,2.8170828819274902,5.2550811767578125,11.368342399597168
1772791699954680000,4.18168017578125,1.9097952842712402,5.302391529083252,9.681326866149902
1772791699974780700,4.20178076171875,1.2055245637893677,4.8256916999816895,8.026050567626953
1772791699994881500,4.221881591796875,1.1013212203979492,3.7321555614471436,6.668413162231445
1772791700014982100,4.241982177734375,1.4181232452392578,1.0001122951507568,6.869034767150879
1772791700055183600,4.28218359375,-0.24134446680545807,-8.81955337524414,10.679043769836426
1772791700075284200,4.3022841796875,-0.08503948897123337,-12.110342025756836,17.61515235900879
1772791700095384800,4.322384765625,-5.7994537353515625,-13.499719619750977,32.09461975097656
1772791700115485700,4.342485595703125,-16.698881149291992,-9.478309631347656,45.98659896850586
1772791700135586300,4.36258642578125,-22.45102310180664,-13.385334968566895,54.71033477783203
1772791700155686700,4.382686767578125,-15.068159103393555,-29.40869140625,47.458621978759766
1772791700175787000,4.402787109375,-8.176366806030273,-40.52790451049805,31.397537231445312
1772791700195887400,4.422887451171875,-14.434555053710938,-42.19934844970703,19.12190818786621
1772791700215987700,4.44298779296875,-21.093984603881836,-35.26443862915039,13.872815132141113
1772791700236087800,4.463087890625,-13.508103370666504,-26.99285125732422,15.464611053466797
1772791700256188200,4.483188232421875,-4.1166300773620605,-22.50312614440918,13.777594566345215
1772791700276288500,4.50328857421875,0.28386420011520386,-18.873376846313477,7.902683734893799
1772791700296388900,4.523388916015625,0.4305872619152069,-16.4329833984375,2.3140323162078857
1772791700316489000,4.543489013671875,-4.352584362030029,-16.041322708129883,-3.025489330291748
1772791700336589300,4.56358935546875,-8.777033805847168,-15.1052885055542,-10.296365737915039
1772791700356689700,4.583689697265625,-10.156828880310059,-11.518658638000488,-14.555526733398438
1772791700376790000,4.6037900390625,-10.553879737854004,-10.166411399841309,-12.01751708984375
1772791700396890000,4.62389013671875,-8.120073318481445,-9.560355186462402,-10.273009300231934
1772791700416990500,4.643990478515625,-2.8308568000793457,-7.4822773933410645,-11.343789100646973
1772791700437090800,4.6640908203125,0.8318299055099487,-5.877905368804932,-10.956319808959961
1772791700457191200,4.684191162109375,1.465433955192566,-4.5406293869018555,-7.896695137023926
1772791700477291300,4.704291259765625,-0.6330052018165588,-3.4896132946014404,-3.795036792755127
1772791700497391600,4.7243916015625,-2.8973312377929688,-2.06190824508667,-0.5258075594902039
1772791700517492000,4.744491943359375,-4.740652084350586,-0.5479657053947449,1.7690608501434326
1772791700537592300,4.76459228515625,-4.9861884117126465,0.5270052552223206,2.8637945652008057
1772791700557692700,4.784692626953125,-3.8094098567962646,3.1392745971679688,5.82280969619751
1772791700577792800,4.804792724609375,-1.540292739868164,5.2886176109313965,10.87607192993164
1772791700597893000,4.82489306640625,2.6140658855438232,7.939214706420898,15.565220832824707
1772791700617993500,4.844993408203125,6.863046169281006,10.6994047164917,29.585956573486328
1772791700638093800,4.86509375,-1.1815698146820068,2.805105447769165,47.570011138916016
1772791700658194400,4.8851943359375,-6.602537631988525,2.1649136543273926,43.47314453125
1772791700678295000,4.905294921875,1.5696372985839844,5.598832130432129,18.849422454833984
1772791700698396000,4.92539599609375,8.900400161743164,6.420481204986572,8.691394805908203
1772791700718496800,4.945496826171875,7.033124923706055,3.7932403087615967,12.052251815795898
1772791700738597600,4.96559765625,3.9471497535705566,3.8267769813537598,11.0623197555542
1772791700758698500,4.985698486328125,3.4506869316101074,5.2502899169921875,10.517348289489746
1772791700778799400,5.00579931640625,4.98678731918335,4.935284614562988,13.30927848815918
1772791700798900200,5.025900146484375,7.661938190460205,4.4525957107543945,16.535987854003906
1772791700819001000,5.0460009765625,6.229442119598389,1.515140175819397,18.572145462036133
1772791700839102000,5.06610205078125,1.682823657989502,0.08743496984243393,15.761051177978516
1772791700859202600,5.08620263671875,-1.7157615423202515,1.2384624481201172,11.1102294921875
1772791700879303400,5.106303466796875,-2.821274757385254,1.644495964050293,7.013362407684326
1772791700899404300,5.126404296875,-2.5613653659820557,1.6588689088821411,4.059138298034668
1772791700919505200,5.146505126953125,-1.9708799123764038,1.4774113893508911,2.270913600921631
1772791700939606000,5.16660595703125,-1.7013885974884033,0.9090840816497803,0.25871169567108154
1772791700959707000,5.186706787109375,-1.6492869853973389,0.3215929865837097,-1.4624396562576294
1772791700979807700,5.206807861328125,-1.8762586116790771,-0.21858741343021393,-1.9014110565185547
1772791700999908600,5.22690869140625,-1.3510499000549316,-0.2521241307258606,-1.8343377113342285
1772791701020009500,5.247009521484375,-0.4629262387752533,-0.11857619136571884,-1.7151626348495483
1772791701040110300,5.2671103515625,0.27907323837280273,0.18744619190692902,-1.3420668840408325
1772791701060211000,5.2872109375,0.13294905424118042,0.306621253490448,-0.2712879478931427
1772791701080311800,5.307311767578125,0.023954786360263824,0.3976494371891022,0.5078414678573608
1772791701100412700,5.32741259765625,0.477897971868515,0.8605756759643555,0.18804506957530975
1772791701120513500,5.347513427734375,-0.7036718130111694,1.133061408996582,-1.0408353805541992
1772791701140614400,5.367614501953125,-3.2985739707946777,-0.7539768815040588,-3.0674102306365967
1772791701160715300,5.38771533203125,-5.222143173217773,-8.194931983947754,-3.822584867477417
1772791701180816400,5.40781640625,-9.608263969421387,-20.13459587097168,-0.9504061341285706
1772791701200917500,5.42791748046875,-17.78523063659668,-26.171201705932617,5.895272731781006
1772791701221018600,5.4480185546875,-26.146648406982422,-19.723772048950195,32.64617919921875
1772791701241119700,5.46811962890625,-57.59628677368164,-2.8021109104156494,60.05644226074219
1772791701261220900,5.488220947265625,-63.745479583740234,-10.391586303710938,52.77598571777344
1772791701301423000,5.528423095703125,17.43608856201172,-11.910319328308105,15.498745918273926
1772791701321524200,5.548524169921875,9.30643367767334,-1.9571059942245483,20.063928604125977
1772791701341625300,5.568625244140625,0.246135413646698,2.5230376720428467,5.507803916931152
1772791701361726200,5.588726318359375,-1.9750720262527466,0.6509712934494019,-1.4810045957565308
1772791701381827300,5.608827392578125,-2.788336992263794,1.1618070602416992,-5.080211162567139
1772791701401928400,5.628928466796875,-5.0191264152526855,2.7086873054504395,-6.213272571563721
1772791701422029600,5.649029541015625,-5.4586968421936035,5.111352443695068,-5.290414333343506
1772791701442130700,5.669130615234375,-3.184788703918457,6.386345863342285,-4.79814338684082
1772791701462231800,5.689231689453125,-0.7366096377372742,5.937193393707275,-5.0850019454956055
1772791701482333000,5.7093330078125,0.5868922472000122,3.559082269668579,-4.377138137817383
1772791701502433800,5.729433837890625,3.0446531772613525,0.8078751564025879,-2.6991055011749268
1772791701522535000,5.749534912109375,6.419283390045166,0.10599992424249649,-1.3797956705093384
1772791701542636000,5.769635986328125,11.694127082824707,1.3330838680267334,-1.8529026508331299
1772791701562737200,5.789737060546875,14.964554786682129,1.6768349409103394,-2.8566081523895264
1772791701582838300,5.80983837890625,15.522102355957031,-0.4335816204547882,-2.4984841346740723
1772791701602939400,5.829939453125,12.658307075500488,-4.636448860168457,-1.815173864364624
1772791701623040500,5.85004052734375,6.055171012878418,-9.885540962219238,-1.1695923805236816
1772791701643141600,5.8701416015625,-5.846165180206299,-17.403152465820312,6.005464553833008
1772791701663244000,5.890244140625,-19.675861358642578,-28.918216705322266,17.048620223999023
1772791701683347000,5.910346923828125,-33.571434020996094,-29.123628616333008,19.24287986755371
1772791701703449600,5.93044970703125,-51.75431442260742,-26.744918823242188,21.94378089904785
1772791701723552500,5.950552490234375,-53.682674407958984,-16.82524299621582,29.205076217651367
1772791701743655200,5.9706552734375,-38.94988250732422,-16.786914825439453,27.493505477905273
1772791701763758000,5.990758056640625,-12.51996898651123,-21.758729934692383,12.918216705322266
1772791701783860700,6.01086083984375,4.61848258972168,-8.872852325439453,-3.5500991344451904
1772791701803963400,6.03096337890625,-6.408504009246826,-1.140846610069275,0.7665531635284424
1772791701824066300,6.05106640625,-15.270576477050781,-3.223116397857666,7.612231731414795
1772791701844169000,6.0711689453125,-5.373058319091797,-2.649998188018799,4.581352710723877
1772791701864272000,6.09127197265625,5.025115013122559,0.5928809642791748,-1.0929371118545532
1772791701884374500,6.11137451171875,10.602388381958008,3.954935073852539,-5.438334941864014
1772791701904477400,6.1314775390625,13.343414306640625,5.092188358306885,-6.480368137359619
1772791701924580000,6.151580078125,10.24306583404541,4.089081764221191,-4.644833087921143
1772791701944683000,6.17168310546875,5.691657066345215,3.816596269607544,-3.387206554412842
1772791701964785700,6.19178564453125,3.8525283336639404,4.126810550689697,-2.6703596115112305
1772791701984888300,6.211888427734375,2.793726921081543,3.449489116668701,-1.3276939392089844
1772791702004991200,6.2319912109375,0.2036156803369522,3.387206554412842,-0.3048246502876282
1772791702025094100,6.25209423828125,-3.426133155822754,3.778867483139038,0.2832653522491455
1772791702045196800,6.27219677734375,-5.732978820800781,3.592618942260742,2.453568935394287
1772791702065299500,6.292299560546875,-9.036343574523926,1.7205524444580078,7.496650218963623
1772791702085402400,6.31240234375,-12.292997360229492,-2.926675796508789,11.99535846710205
1772791702105505000,6.332505126953125,-14.826215744018555,-11.700116157531738,12.425347328186035
1772791702125608000,6.35260791015625,-14.301606178283691,-23.411012649536133,16.82344627380371
1772791702145710600,6.372710693359375,-4.772991180419922,-23.92184829711914,22.73189353942871
1772791702165812000,6.39281201171875,-8.799790382385254,-25.216604232788086,27.054534912109375
1772791702185913300,6.412913330078125,-17.940937042236328,-25.431598663330078,27.068906784057617
1772791702206015000,6.433014892578125,-17.019275665283203,-27.561777114868164,28.608001708984375
1772791702226116400,6.453116455078125,-11.276715278625488,-27.29947280883789,26.365835189819336
1772791702246217700,6.4732177734375,-7.060673236846924,-26.143653869628906,17.92416763305664
1772791702266319000,6.493319091796875,-2.5278286933898926,-20.436426162719727,7.488864898681641
1772791702286420500,6.51342041015625,-0.23056480288505554,-11.10843276977539,1.6708463430404663
1772791702306521900,6.53352197265625,-1.3414679765701294,-3.815997362136841,3.377624750137329
1772791702326623500,6.55362353515625,-2.083467483520508,-2.1583261489868164,6.31747579574585
1772791702346724900,6.573724853515625,-1.019874930381775,-3.663285493850708,6.140809059143066
1772791702366826200,6.593826171875,0.752180278301239,-3.9830820560455322,3.5111727714538574
1772791702386927600,6.613927734375,0.6581577062606812,-4.45559024810791,-1.479207992553711
1772791702407029000,6.634029052734375,-0.40064379572868347,-5.573081016540527,-6.403114318847656
1772791702427130400,6.65413037109375,-0.9539993405342102,-4.345996856689453,-9.118389129638672
1772791702447232000,6.67423193359375,-3.1278960704803467,-2.4930942058563232,-8.31530475616455
1772791702467333400,6.69433349609375,-4.229217529296875,-4.164539337158203,-5.858142852783203
1772791702487434800,6.714434814453125,-2.782947301864624,-6.500131130218506,-3.9363701343536377
1772791702507536100,6.7345361328125,-0.5521578192710876,-6.767226696014404,-6.823520660400391
1772791702527637500,6.754637451171875,-3.227308511734009,-2.688924551010132,-13.993786811828613
1772791702547739000,6.77473876953125,-7.62780237197876,0.7264288663864136,-12.363663673400879
1772791702567840500,6.794840576171875,-15.63888168334961,0.7791293859481812,-1.6660553216934204
1772791702587942000,6.81494189453125,-23.848785400390625,0.7072650194168091,10.94913387298584
1772791702608043300,6.835043212890625,-24.014074325561523,8.578208923339844,20.534042358398438
1772791702628144600,6.85514453125,-13.602126121520996,25.313621520996094,44.999664306640625
1772791702648246000,6.87524609375,-3.2087435722351074,23.10199546813965,78.37646484375
1772791702668347000,6.895346923828125,-1.0767675638198853,11.792342185974121,56.941123962402344
1772791702688447500,6.915447509765625,-4.8155107498168945,13.473967552185059,17.655874252319336
1772791702708548400,6.93554833984375,-2.073885440826416,9.051315307617188,8.262604713439941
1772791702728649200,6.955649169921875,1.5935920476913452,-0.46771717071533203,4.896956920623779
1772791702748750000,6.97575,6.2725605964660645,-6.637871265411377,-8.167384147644043
1772791702768850700,6.9958505859375,7.45952033996582,-6.954074382781982,-14.983119010925293
1772791702788951600,7.01595166015625,2.888947010040283,-8.41052532196045,-9.78732681274414
1772791702809052400,7.036052490234375,0.3557285666465759,-9.704682350158691,-7.243927001953125
1772791702829153000,7.056153076171875,0.530598521232605,-10.020286560058594,-8.018265724182129
1772791702849254000,7.07625390625,1.069581151008606,-9.1267728805542,-9.265710830688477
1772791702869354800,7.096354736328125,0.8563835620880127,-7.6032490730285645,-7.788299560546875
1772791702889455600,7.11645556640625,0.530598521232605,-6.89658260345459,-6.985215663909912
1772791702909556200,7.13655615234375,1.3576374053955078,-5.554515838623047,-5.880899906158447
1772791702929657000,7.156656982421875,2.5439982414245605,-2.034959077835083,-5.316764831542969
1772791702949758000,7.176758056640625,3.101545810699463,2.5595688819885254,-5.106561183929443
1772791702969858800,7.19685888671875,3.9142119884490967,6.576786518096924,8.473406791687012
1772791702989959400,7.21695947265625,0.5964741706848145,4.652019500732422,42.32810592651367
1772791703010060300,7.237060302734375,-0.022757045924663544,1.2995470762252808,43.2126350402832
1772791703030161200,7.2571611328125,14.303401947021484,9.060298919677734,11.50428581237793
1772791703050261800,7.27726171875,24.143428802490234,14.142306327819824,4.438821792602539
1772791703070362600,7.297362548828125,13.774002075195312,15.04001235961914,22.01145362854004
1772791703090463500,7.31746337890625,4.571171760559082,15.799378395080566,47.653255462646484
1772791703110564400,7.337564453125,25.363327026367188,9.671744346618652,59.82887268066406
1772791703130665000,7.3576650390625,45.35599136352539,5.430549621582031,45.25837326049805
1772791703150765800,7.377765869140625,24.110490798950195,1.8822472095489502,30.57768440246582
1772791703170866400,7.397866455078125,-0.2539207339286804,3.409963607788086,17.27978515625
1772791703190967000,7.417967041015625,-5.708425521850586,2.502676248550415,8.541078567504883
1772791703211067600,7.438067626953125,-5.202380657196045,-3.477037191390991,1.7193547487258911
1772791703231168300,7.458168212890625,-4.2765278816223145,-7.264288902282715,-5.967136859893799
1772791703251268900,7.478268798828125,-2.5937044620513916,-7.312198162078857,-9.098027229309082
1772791703271369500,7.498369384765625,-4.810121059417725,-10.803607940673828,-2.343376874923706
1772791703291470000,7.518469970703125,-8.170977592468262,-15.555638313293457,4.15316104888916
1772791703311570700,7.53857080078125,-9.536998748779297,-15.75625991821289,2.5326197147369385
1772791703331671300,7.55867138671875,-10.713777542114258,-15.70835018157959,-2.864393472671509
1772791703351772000,7.57877197265625,-10.38260269165039,-16.773738861083984,-7.362503528594971
1772791703371872500,7.59887255859375,-9.097428321838379,-15.985627174377441,-8.653666496276855
1772791703391973000,7.61897314453125,-7.684096336364746,-15.83710765838623,-2.7691731452941895
1772791703412073700,7.63907373046875,-5.713216304779053,-14.332747459411621,2.3074448108673096
1772791703432174300,7.65917431640625,-4.767601013183594,-13.033799171447754,4.640041828155518
1772791703452275000,7.67927490234375,-3.2410824298858643,-12.121720314025879,6.891791820526123
1772791703472375600,7.69937548828125,-1.3504509925842285,-10.884455680847168,10.43410587310791
1772791703492476200,7.71947607421875,-0.18804506957530975,-8.3248872756958,11.055732727050781
1772791703512576800,7.73957666015625,2.8182804584503174,-4.608900547027588,13.608115196228027
1772791703532677400,7.759677490234375,5.6018266677856445,1.7576823234558105,24.259010314941406
1772791703552778000,7.779778076171875,-0.5659317970275879,11.328817367553711,29.18291664123535
1772791703572878600,7.799878662109375,-12.968522071838379,20.083093643188477,22.93490982055664
1772791703592979500,7.8199794921875,3.3902010917663574,22.829509735107422,28.264850616455078
1772791703613080000,7.840080078125,21.298799514770508,24.677621841430664,48.022159576416016
1772791703633180700,7.8601806640625,3.630946636199951,10.340083122253418,63.543663024902344
1772791703653281300,7.88028125,-10.18437671661377,8.114683151245117,47.84010314941406
1772791703673382400,7.90038232421875,-3.789647102355957,7.842197895050049,26.15203857421875
1772791703693483300,7.920483154296875,0.9372310042381287,3.348280191421509,17.394168853759766
1772791703713584000,7.940584228515625,-3.822584867477417,1.6953998804092407,13.020024299621582
1772791703733685200,7.960685302734375,-4.22442626953125,0.6306097507476807,8.951903343200684
1772791703753786000,7.9807861328125,-0.8354231715202332,-2.899127960205078,7.379271507263184
1772791703773887200,8.00088720703125,0.3084178566932678,-5.874911308288574,4.51607608795166
1772791703793988000,8.020988037109374,0.08144626766443253,-7.154695510864258,2.264925003051758
1772791703814089200,8.041089111328125,1.6079649925231934,-7.541565418243408,0.15151402354240417
1772791703834190000,8.061190185546875,5.096380710601807,-6.3330464363098145,-2.9554216861724854
1772791703854291200,8.081291259765624,5.2005839347839355,-4.971815586090088,-4.394505500793457
1772791703874392000,8.10139208984375,2.6763484477996826,-5.979713439941406,-3.9830820560455322
1772791703894493200,8.1214931640625,-0.05569487437605858,-5.659916877746582,-3.03686785697937
1772791703914594000,8.141593994140624,-1.0150840282440186,-5.153273105621338,-1.320507526397705
1772791703934695000,8.16169482421875,-1.7618744373321533,-5.316165924072266,-0.546169102191925
1772791703954796000,8.181796142578126,-2.579331636428833,-4.709510803222656,-0.10599992424249649
1772791703974897000,8.20189697265625,-1.9175806045532227,-3.739940881729126,1.7247445583343506
1772791703994998000,8.221998046875,-1.790021300315857,-4.451397895812988,3.746528387069702
1772791704015099000,8.242098876953126,-2.0217838287353516,-5.273046970367432,5.486843585968018
1772791704035200000,8.262199951171874,-2.8961336612701416,-5.850956439971924,7.800277233123779
1772791704055300900,8.28230078125,-2.7685742378234863,-5.9318037033081055,10.147846221923828
1772791704075402000,8.302402099609376,-2.6032862663269043,-3.3243253231048584,11.252161979675293
1772791704095502800,8.3225029296875,-4.904742240905762,-0.7360107898712158,12.9248046875
1772791704115604000,8.34260400390625,-8.473406791687012,-3.6872403621673584,15.692779541015625
1772791704135704800,8.362704833984376,-10.812591552734375,-12.556499481201172,22.09349822998047
1772791704155805400,8.382805419921874,-8.926751136779785,-13.315866470336914,24.670434951782227
1772791704175905800,8.40290576171875,-9.952614784240723,-25.723846435546875,39.030731201171875
1772791704196006100,8.423006103515625,-11.498296737670898,-40.863868713378906,48.5341911315918
1772791704216106500,8.4431064453125,-9.390275955200195,-36.59931945800781,31.83171844482422
1772791704236206800,8.463206787109375,-12.235505104064941,-41.31302261352539,23.68589210510254
1772791704256307200,8.48330712890625,-16.80607795715332,-45.39671325683594,24.1302547454834
1772791704276407300,8.5034072265625,-16.8911190032959,-44.933189392089844,25.751394271850586
1772791704296507600,8.523507568359374,-13.587154388427734,-39.3403434753418,21.45390510559082
1772791704316608000,8.54360791015625,-11.616273880004883,-31.92813491821289,18.451772689819336
1772791704336708400,8.563708251953125,-13.062544822692871,-27.176105499267578,18.093050003051758
1772791704356808700,8.58380859375,-12.698431968688965,-24.014074325561523,16.515626907348633
1772791704376909000,8.603908935546874,-10.883856773376465,-22.815135955810547,14.688475608825684
1772791704397009400,8.624009521484375,-9.38548469543457,-23.4553279876709,13.226036071777344
1772791704437210000,8.664210205078126,-3.997454881668091,-24.778230667114258,13.139799118041992
1772791704457310200,8.684310302734374,-6.167159557342529,-25.274694442749023,15.281356811523438
1772791704497511000,8.724510986328125,-8.166186332702637,-27.591121673583984,11.7629976272583
1772791704517611300,8.744611328125,-5.500617504119873,-25.843021392822266,8.756072998046875
1772791704537711600,8.764711669921875,-6.6678147315979,-24.787214279174805,9.32499885559082
1772791704557812000,8.78481201171875,-8.605756759643555,-24.60096549987793,9.898117065429688
1772791704577912300,8.804912353515626,-6.596549034118652,-26.46464729309082,9.120185852050781
1772791704598012700,8.8250126953125,-3.0710034370422363,-28.824193954467773,4.980798721313477
1772791704618113000,8.845113037109375,-2.6973087787628174,-31.526893615722656,-0.6072537899017334
1772791704638213400,8.86521337890625,-1.5109480619430542,-31.5412654876709,-10.550286293029785
1772791704658314000,8.88531396484375,4.193883895874023,-25.891529083251953,-24.781824111938477
1772791704678414600,8.90541455078125,7.365497589111328,-22.486356735229492,-37.0622444152832
1772791704698515500,8.925515380859375,3.8914549350738525,-21.803646087646484,-45.57098388671875
1772791704718616000,8.945615966796876,-5.173635005950928,-21.13949966430664,-39.007972717285156
1772791704738717000,8.965717041015624,-9.319010734558105,-20.872404098510742,-29.030803680419922
1772791704758817800,8.98581787109375,-2.2577385902404785,-21.2778377532959,-27.860013961791992
1772791704778918400,9.00591845703125,-0.541977047920227,-27.26234245300293,-21.521577835083008
1772791704799019300,9.026019287109374,-4.210053443908691,-35.10933303833008,-11.5210542678833
1772791704819119900,9.046119873046875,-8.336265563964844,-43.26174545288086,-1.8217614889144897
1772791704839220700,9.066220703125,-9.659168243408203,-57.84781265258789,6.7732157707214355
1772791704859321300,9.0863212890625,-9.740015983581543,-74.69281768798828,15.272972106933594
1772791704879422200,9.106422119140625,-15.662237167358398,-88.59617614746094,25.517236709594727
1772791704899522800,9.126522705078125,-27.23719024658203,-93.30987548828125,34.58591842651367
1772791704919623700,9.146623779296876,-36.48194122314453,-89.25971984863281,39.700862884521484
1772791704939724500,9.166724609375,-22.397125244140625,-90.6592788696289,27.94565200805664
1772791704959825200,9.1868251953125,-12.67507553100586,-95.68859100341797,35.178199768066406
1772791704979926000,9.206926025390626,-20.313058853149414,-82.34877014160156,39.361305236816406
1772791705000026600,9.227026611328125,-26.939552307128906,-55.29243469238281,29.513492584228516
1772791705020127500,9.24712744140625,-20.246583938598633,-34.55058670043945,26.396976470947266
1772791705040228400,9.267228271484376,-1.251038670539856,-27.74443244934082,30.65134620666504
1772791705060329000,9.287328857421874,8.083541870117188,-21.75992774963379,30.096792221069336
1772791705080429800,9.307429931640625,7.44095516204834,-16.43478012084961,22.797170639038086
1772791705100530400,9.327530517578126,1.1971404552459717,-12.403787612915039,15.60774040222168
1772791705120631300,9.34763134765625,-5.457499027252197,-10.956918716430664,11.754612922668457
1772791705140732200,9.367732177734375,-7.154096603393555,-10.670060157775879,9.1016206741333
1772791705160834000,9.387833984375,-4.994572639465332,-11.902534484863281,10.177190780639648
1772791705180936200,9.407936279296875,-1.1282703876495361,-10.273608207702637,10.526331901550293
1772791705201038600,9.42803857421875,1.3863831758499146,-6.558221340179443,9.077666282653809
1772791705221141000,9.44814111328125,1.5468802452087402,-7.370288372039795,7.8350114822387695
1772791705241243100,9.4682431640625,11.160534858703613,-11.396489143371582,6.309690475463867
1772791705261345500,9.488345458984375,25.973575592041016,-13.402103424072266,10.310738563537598
1772791705281448000,9.508447998046876,23.77572250366211,-15.56581974029541,19.972301483154297
1772791705301550300,9.52855029296875,12.361268043518066,-10.231088638305664,24.279373168945312
1772791705321652500,9.548652587890626,2.3176255226135254,-9.996931076049805,32.59707260131836
1772791705341755000,9.5687548828125,-8.203316688537598,-15.899989128112793,38.89778137207031
1772791705381959400,9.60895947265625,-20.147172927856445,-48.176666259765625,41.771156311035156
1772791705402061800,9.629061767578126,-27.0144100189209,-58.47901916503906,41.52801513671875
1772791705422164200,9.649164306640625,-29.718307495117188,-59.46296310424805,36.5274543762207
1772791705442266400,9.669266357421876,-32.64378356933594,-53.33053970336914,28.974510192871094
1772791705462368800,9.68936865234375,-33.191749572753906,-51.29079055786133,32.54077911376953
1772791705482471200,9.70947119140625,-30.871129989624023,-68.12201690673828,35.34229278564453
1772791705502573600,9.729573486328125,-27.368940353393555,-43.10004806518555,12.736160278320312
1772791705522675700,9.74967578125,-40.95729446411133,-31.685592651367188,22.08152198791504
1772791705542778000,9.769778076171875,-23.23314666748047,-29.7272891998291,12.736160278320312
1772791705562880300,9.78988037109375,-9.616049766540527,-27.339595794677734,19.13208770751953
1772791705582982700,9.809982666015625,-4.677770614624023,-27.45338249206543,27.855222702026367
1772791705603085000,9.8300849609375,-1.0049031972885132,-27.658794403076172,23.151700973510742
1772791705623187500,9.8501875,-2.1205973625183105,-26.947336196899414,18.223003387451172
1772791705643289600,9.87028955078125,-4.8430585861206055,-26.125688552856445,16.994722366333008
1772791705663391000,9.890390869140624,-5.594640254974365,-25.03215217590332,15.149005889892578
1772791705683492400,9.910492431640625,-3.7040085792541504,-22.63427734375,10.885054588317871
1772791705703593700,9.93059375,-2.8907437324523926,-21.00115966796875,8.996818542480469
1772791705723694800,9.95069482421875,-4.464572906494141,-19.014110565185547,4.684957027435303
1772791705743796200,9.970796142578125,-5.4760637283325195,-15.284350395202637,-1.4816035032272339
1772791705763897300,9.9908974609375,-4.795748233795166,-13.077516555786133,-2.6194558143615723
1772791705783998700,10.010998779296875,-3.88366961479187,-15.451435089111328,-1.6157503128051758
1772791705804100000,10.03110009765625,-0.5042482614517212,-17.939739227294922,-6.434255599975586
1772791705824201200,10.051201171875,8.589587211608887,-18.283489227294922,-13.624283790588379
1772791705844302600,10.071302490234375,16.945615768432617,-16.291648864746094,-20.197477340698242
1772791705864404000,10.091404052734376,12.474454879760742,-16.000598907470703,-21.014934539794922
1772791705884505300,10.11150537109375,3.8016245365142822,-16.119773864746094,-19.51835823059082
1772791705904606500,10.1316064453125,3.7824606895446777,-15.814350128173828,-20.378934860229492
1772791705924707800,10.151707763671874,7.374480724334717,-18.345172882080078,-19.786054611206055
1772791705944809000,10.17180908203125,8.202118873596191,-24.687801361083984,-17.248044967651367
1772791705964910300,10.191910400390626,3.244076728820801,-32.77853012084961,-11.023992538452148
1772791705985011700,10.21201171875,-4.190889835357666,-42.27840042114258,-1.1618070602416992
1772791706005112800,10.23211279296875,-11.923494338989258,-53.00056076049805,9.149530410766602
1772791706025214200,10.252214111328126,-18.26133155822754,-62.60523223876953,17.763671875
1772791706045315600,10.272315673828125,-18.748212814331055,-67.29019165039062,25.087247848510742
1772791706065416700,10.292416748046875,-17.046823501586914,-65.585205078125,34.72964859008789
1772791706085518000,10.31251806640625,-15.973649978637695,-54.36658477783203,42.024478912353516
1772791706105619500,10.332619384765625,-27.96481704711914,-46.342926025390625,32.5162239074707
1772791706125720600,10.352720458984376,-35.62196350097656,-43.5629768371582,30.446533203125
1772791706145822000,10.372822021484374,-32.885128021240234,-32.16289138793945,33.91218948364258
1772791706165922300,10.39292236328125,-49.70677947998047,-18.77096939086914,29.80095100402832
1772791706186022700,10.413022705078125,-84.79095458984375,5.161657333374023,7.22835636138916
1772791706206123000,10.433123046875,-51.67765808105469,-3.454280138015747,25.450761795043945
1772791706226223600,10.4532236328125,-11.029980659484863,-37.2203483581543,25.766366958618164
1772791706246324000,10.473323974609375,13.562002182006836,-24.621326446533203,-0.8887225389480591
1772791706266424300,10.49342431640625,-0.08803384006023407,-12.581053733825684,12.089980125427246
1772791706286525000,10.51352490234375,-14.380656242370605,-11.0623197555542,21.985103607177734
1772791706306625300,10.533625244140625,-16.120372772216797,-17.37141227722168,20.32204246520996
1772791706326725600,10.5537255859375,-6.56301212310791,-16.994123458862305,12.448702812194824
1772791706346826000,10.573825927734376,2.7050940990448,-15.031028747558594,2.3523600101470947
1772791706366926600,10.593926513671875,14.819028854370117,-10.594003677368164,-13.724894523620605
1772791706387027000,10.61402685546875,14.304000854492188,-11.634839057922363,-21.79885482788086
1772791706407127300,10.634127197265625,4.741849899291992,-22.32346534729004,-9.977168083190918
1772791706427227600,10.6542275390625,-5.774301052093506,-25.384885787963867,0.4245985746383667
1772791706447328300,10.674328369140625,-15.704757690429688,-20.900550842285156,5.946176528930664
1772791706467428600,10.6944287109375,-24.29254722595215,-15.059175491333008,12.423550605773926
1772791706487529000,10.714529052734376,-27.544410705566406,-6.658232688903809,19.517162322998047
1772791706507629300,10.73462939453125,-23.09660530090332,0.792304515838623,20.50709342956543
1772791706527730000,10.75472998046875,-16.867162704467773,2.793726921081543,14.306396484375
1772791706547830300,10.774830322265625,-10.59520149230957,0.49167197942733765,10.348466873168945
1772791706567930600,10.7949306640625,-1.888834834098816,0.17606768012046814,6.931317329406738
1772791706588031200,10.81503125,0.7623610496520996,-0.8318299055099487,7.347531795501709
1772791706608131600,10.835131591796875,-1.5816147327423096,-1.0851517915725708,5.655126094818115
1772791706628232000,10.85523193359375,-3.779466152191162,-0.39705055952072144,2.155930757522583
1772791706648332500,10.87533251953125,-3.3398959636688232,1.0689822435379028,-1.1234794855117798
1772791706668434000,10.895433837890625,-1.1138975620269775,1.6133548021316528,0.5258075594902039
1772791706688535000,10.91553515625,-0.3718980550765991,1.369614839553833,3.24587345123291
1772791706708642300,10.935642333984376,-0.5228132009506226,0.7917056679725647,4.503499507904053
1772791706728743400,10.955743408203125,-2.2242019176483154,-0.8509937524795532,4.231013774871826
1772791706748844800,10.9758447265625,-5.041284561157227,-5.909046649932861,4.517872333526611
1772791706768946200,10.9959462890625,-12.448103904724121,-16.238948822021484,3.1883819103240967
1772791706789047600,11.016047607421875,-22.798967361450195,-26.273609161376953,4.06333065032959
1772791706809149000,11.03614892578125,-18.512258529663086,-27.319833755493164,24.824344635009766
1772791706829250300,11.056250244140625,-10.22150707244873,-24.568626403808594,42.31073760986328
1772791706849351400,11.076351318359375,-3.6662797927856445,-21.08679962158203,39.179847717285156
1772791706869452800,11.096452880859376,0.4838866591453552,-27.668376922607422,33.3809928894043
1772791706889554200,11.11655419921875,4.9263014793396,-25.700490951538086,21.870121002197266
1772791706909655600,11.136655517578125,-0.7593666911125183,-22.189916610717773,16.162294387817383
1772791706929757000,11.1567568359375,-7.853576183319092,-21.760526657104492,13.007448196411133
1772791706949858000,11.176858154296875,-8.184751510620117,-18.412246704101562,9.952614784240723
1772791706969959400,11.19695947265625,-8.65246868133545,-15.651457786560059,12.179810523986816
1772791706990060800,11.217060791015625,-6.582176208496094,-14.55792236328125,15.750870704650879
1772791707010162200,11.237162109375,-3.684844970703125,-17.538496017456055,20.043567657470703
1772791707030263300,11.25726318359375,-2.2954673767089844,-22.63427734375,21.774301528930664
1772791707050364700,11.27736474609375,-5.28741979598999,-24.845304489135742,20.83707046508789
1772791707070466000,11.297466064453126,-12.013324737548828,-26.225698471069336,21.248493194580078
1772791707090567400,11.3175673828125,-14.324362754821777,-28.94816017150879,21.420368194580078
1772791707110668800,11.337668701171875,-10.510162353515625,-32.80727767944336,19.489013671875
1772791707130770000,11.35777001953125,-3.349477767944336,-35.567466735839844,16.764158248901367
1772791707150871300,11.377871337890625,-3.2219185829162598,-38.66242599487305,16.138338088989258
1772791707170972200,11.39797216796875,-11.39409351348877,-39.48886489868164,16.358123779296875
1772791707191073300,11.4180732421875,-16.937829971313477,-36.86222457885742,13.685967445373535
1772791707211174100,11.438174072265625,-11.082082748413086,-30.772916793823242,3.8956470489501953
1772791707231275300,11.458275146484375,-3.8597147464752197,-23.436763763427734,-0.23415802419185638
1772791707251376000,11.478376220703124,-3.7369465827941895,-20.824493408203125,0.4539431929588318
1772791707271477200,11.498477294921875,-5.43414306640625,-23.618221282958984,-5.602425575256348
1772791707291578000,11.518578125,-5.944379806518555,-26.020286560058594,-28.90683937072754
1772791707311679000,11.538678955078124,-5.372459411621094,-34.445186614990234,-61.43743896484375
1772791707331780000,11.558780029296875,3.244076728820801,-37.16285705566406,-79.8418960571289
1772791707351881000,11.578880859375,-2.045139789581299,-37.19639205932617,-58.00052261352539
1772791707371982000,11.598982177734374,-13.393120765686035,-33.48519515991211,-29.136804580688477
1772791707392083000,11.6190830078125,-17.916383743286133,-27.032976150512695,-14.88191032409668
1772791707412184000,11.63918408203125,-12.386420249938965,-29.831493377685547,-5.335329532623291
1772791707432285000,11.659284912109374,-7.867949485778809,-43.02279281616211,2.996743679046631
1772791707452386000,11.679385986328125,-5.944379806518555,-57.01179122924805,11.759404182434082
1772791707472487000,11.69948681640625,-1.331287145614624,-61.3200569152832,20.44061851501465
1772791707492587800,11.719587890625,6.0749335289001465,-58.01968765258789,26.071788787841797
1772791707512689000,11.73968896484375,2.766178846359253,-53.23891067504883,26.066999435424805
1772791707532789800,11.759789794921875,-11.724669456481934,-49.23666763305664,20.101058959960938
1772791707552891000,11.779890869140624,-22.094696044921875,-46.60523223876953,14.986113548278809
1772791707572991700,11.79999169921875,-19.901636123657227,-48.63001251220703,17.419321060180664
1772791707593092900,11.8200927734375,-10.004715919494629,-46.781898498535156,23.8631591796875
1772791707613193700,11.84019384765625,-6.25160026550293,-39.985328674316406,23.848785400390625
1772791707633294800,11.860294921875,-11.431822776794434,-32.067073822021484,18.140958786010742
1772791707653396000,11.88039599609375,-18.162517547607422,-22.18512535095215,13.886589050292969
1772791707673497300,11.900497314453125,-16.441965103149414,-12.093573570251465,15.34423828125
1772791707693599000,11.920598876953125,-7.877531051635742,-6.921136379241943,19.78545570373535
1772791707713700400,11.940700439453124,-3.179399013519287,-4.628663539886475,24.637496948242188
1772791707733801700,11.9608017578125,-5.405397415161133,-4.232211589813232,26.272411346435547
1772791707753903400,11.9809033203125,-12.934985160827637,-6.720515251159668,22.008459091186523
1772791707774004700,12.001004638671875,-20.865816116333008,-15.546056747436523,20.760414123535156
1772791707794106400,12.0211064453125,-15.936519622802734,-16.401243209838867,13.536849021911621
1772791707814207700,12.041207763671874,-5.22154426574707,-16.864168167114258,12.504398345947266
1772791707834309000,12.06130908203125,0.5353894829750061,-18.93266487121582,16.69648551940918
1772791707854410800,12.08141064453125,1.3576374053955078,-19.175806045532227,17.910993576049805
1772791707874512100,12.10151220703125,-0.7408017516136169,-23.92783546447754,18.579931259155273
1772791707894613500,12.121613525390625,-1.1186884641647339,-27.395292282104492,15.02324390411377
1772791707914715100,12.141715087890624,0.3982483148574829,-31.216079711914062,17.427705764770508
1772791707934816500,12.16181640625,-1.4169255495071411,-40.48657989501953,28.09776496887207
1772791707954918100,12.181918212890626,-4.928697109222412,-43.45218276977539,28.857730865478516
1772791707975019500,12.20201953125,-7.192424297332764,-39.866153717041016,23.160085678100586
1772791707995121200,12.22212109375,-8.747090339660645,-41.098026275634766,23.64277458190918
1772791708015222500,12.242222412109374,-9.158513069152832,-41.967586517333984,24.79020881652832
1772791708035324000,12.262323974609375,-9.361530303955078,-44.05464553833008,24.923755645751953
1772791708055425500,12.282425537109376,-8.43986988067627,-45.37754821777344,24.135046005249023
1772791708075527000,12.30252685546875,-10.637721061706543,-47.4646110534668,24.508140563964844
1772791708095628500,12.322628662109375,-12.075008392333984,-45.89796829223633,21.14309310913086
1772791708115730000,12.34272998046875,-13.587154388427734,-42.812591552734375,18.55657386779785
1772791708135831300,12.362831298828125,-12.585245132446289,-41.308231353759766,16.41980743408203
1772791708155932700,12.3829326171875,-9.006999015808105,-37.18680953979492,13.154770851135254
1772791708176033500,12.403033447265624,-7.944005489349365,-33.48938751220703,13.966837882995605
1772791708196134700,12.423134765625,-8.827937126159668,-32.271888732910156,16.189842224121094
1772791708216235800,12.44323583984375,-7.40981388092041,-33.2791862487793,13.63206958770752
1772791708236336600,12.463336669921874,-3.6758618354797363,-30.69087028503418,5.137702465057373
1772791708256437800,12.483437744140625,-5.911442279815674,-26.401765823364258,-2.3679306507110596
1772791708276538600,12.50353857421875,-13.436239242553711,-28.178613662719727,-18.443986892700195
1772791708296639700,12.5236396484375,-13.743459701538086,-33.34626007080078,-47.74787521362305
1772791708316740600,12.54374072265625,-4.867013454437256,-27.700714111328125,-73.06449127197266
1772791708336841700,12.563841796875,4.141183376312256,-21.926414489746094,-68.03578186035156
1772791708356942800,12.58394287109375,-3.718381643295288,-24.0092830657959,-32.82344436645508
1772791708377043700,12.604043701171875,-13.36976432800293,-27.567167282104492,-10.393980979919434
1772791708397144800,12.624144775390626,-13.86143684387207,-30.036306381225586,-3.921398401260376
1772791708417245700,12.64424560546875,-10.39218521118164,-32.03772735595703,-1.4067447185516357
1772791708437346800,12.664346923828125,-10.004715919494629,-41.499271392822266,4.822098255157471
1772791708457448000,12.684447998046876,-10.49638843536377,-52.144775390625,11.648612976074219
1772791708477548800,12.704548828125,-9.584309577941895,-60.373844146728516,20.038177490234375
1772791708497650000,12.72464990234375,-9.4896879196167,-60.264251708984375,33.49477767944336
1772791708517750800,12.744750732421876,-11.621065139770508,-54.95766830444336,38.96305847167969
1772791708537852000,12.764851806640625,-18.219411849975586,-57.64659118652344,28.814613342285156
1772791708557953000,12.784953125,-24.29314613342285,-67.5093765258789,28.551708221435547
1772791708578054000,12.805053955078124,-27.416851043701172,-64.64378356933594,43.36594772338867
1772791708598155000,12.825155029296875,-29.336227416992188,-37.02391815185547,42.42931365966797
1772791708618256000,12.845255859375,-20.223228454589844,-7.870943546295166,48.691097259521484
1772791708638357000,12.86535693359375,-8.922558784484863,2.8512182235717773,54.93910217285156
1772791708658457300,12.885457275390625,-2.1637160778045654,-1.8529026508331299,29.813526153564453
1772791708678557400,12.905557373046875,1.4851967096328735,-4.685555934906006,7.575101852416992
1772791708698657500,12.925657470703126,4.410675048828125,-1.0414342880249023,2.111614227294922
1772791708718757600,12.945757568359374,1.319908618927002,-3.0230939388275146,6.834300518035889
1772791708738857700,12.965857666015625,-0.37249690294265747,-3.5626754760742188,6.198899745941162
1772791708758957800,12.985957763671875,-1.4073436260223389,-2.364337205886841,2.3505632877349854
1772791708779058000,13.006057861328125,-4.162742614746094,-1.0605981349945068,0.26170602440834045
1772791708799158000,13.026157958984374,-6.677396297454834,-1.3420668840408325,0.18025976419448853
1772791708819258000,13.046258056640625,-6.719916343688965,-5.406595230102539,1.8582924604415894
1772791708839358200,13.066358154296875,1.6031739711761475,-9.050716400146484,4.530448913574219
1772791708859458300,13.086458251953125,5.049069881439209,-16.348541259765625,20.716697692871094
1772791708879558100,13.10655810546875,0.530598521232605,-17.790620803833008,38.74806213378906
1772791708899658500,13.126658447265624,1.919975996017456,-13.267956733703613,43.31803894042969
1772791708919758300,13.14675830078125,4.756222724914551,-17.637908935546875,46.502227783203125
1772791708939858400,13.1668583984375,7.705056667327881,-28.307369232177734,37.558109283447266
1772791708959958500,13.18695849609375,3.035670280456543,-45.124229431152344,28.04506492614746
1772791708980058600,13.20705859375,-3.3261220455169678,-53.07122802734375,19.66448402404785
1772791709000158700,13.22715869140625,-10.255642890930176,-53.91623306274414,18.990755081176758
1772791709020258800,13.2472587890625,-11.427630424499512,-52.89935302734375,19.975296020507812
1772791709040359000,13.26735888671875,-6.573791980743408,-47.101097106933594,14.17644214630127
1772791709060459000,13.287458984375,-7.09840202331543,-42.38200378417969,12.675674438476562
1772791709080559000,13.30755908203125,-11.418048858642578,-38.83849334716797,12.981098175048828
1772791709100659200,13.3276591796875,-16.04072380065918,-35.72916030883789,12.976306915283203
1772791709120759300,13.34775927734375,-18.181682586669922,-34.473331451416016,14.257887840270996
1772791709140859400,13.367859375,-15.09091567993164,-35.724369049072266,13.76022720336914
1772791709160960300,13.387960205078125,-9.58910083770752,-36.087284088134766,13.612306594848633
1772791709181061600,13.4080615234375,-5.510199546813965,-35.05064392089844,13.554815292358398
1772791709201163000,13.4281630859375,-3.321929931640625,-32.92046356201172,12.68465805053711
1772791709221264400,13.448264404296875,-2.688325881958008,-30.312984466552734,12.789460182189941
1772791709241365500,13.468365478515626,-2.6320321559906006,-28.20676040649414,11.642624855041504
1772791709261467000,13.488466796875,-2.4050605297088623,-26.33948516845703,11.035370826721191
1772791709281568300,13.508568359375,-1.3791967630386353,-24.137439727783203,8.248231887817383
1772791709301669600,13.528669677734374,-0.05569487437605858,-20.340606689453125,2.8751730918884277
1772791709321770800,13.548770751953125,0.005389826837927103,-15.49754810333252,-7.732604503631592
1772791709341872000,13.5688720703125,-1.119287371635437,-10.740726470947266,-20.047161102294922
1772791709361973500,13.588973388671874,0.7144514918327332,-4.804131984710693,-24.574016571044922
1772791709382075000,13.609074951171875,3.0117154121398926,-4.140584468841553,-26.227495193481445
1772791709402176000,13.629176025390626,4.065725803375244,-5.362877368927002,-25.309429168701172
1772791709422277400,13.64927734375,4.145974636077881,-6.7624359130859375,-23.53138542175293
1772791709442378800,13.669378662109375,2.832054615020752,-7.8463897705078125,-20.82569122314453
1772791709462480100,13.689480224609374,0.4024403989315033,-9.413032531738281,-18.382902145385742
1772791709482581200,13.709581298828125,-2.2679193019866943,-11.356964111328125,-17.02047348022461
1772791709502682600,13.7296826171875,-4.678369522094727,-14.915447235107422,-13.090691566467285
1772791709522784000,13.749783935546875,-6.379758358001709,-20.29269790649414,-5.513792514801025
1772791709542885400,13.769885498046875,-8.123666763305664,-27.552793502807617,2.249354362487793
1772791709562986500,13.789986572265626,-6.923532009124756,-34.62604522705078,8.358423233032227
1772791709583087900,13.810087890625,-7.1031928062438965,-39.325374603271484,12.455290794372559
1772791709603189200,13.830189208984375,-13.970431327819824,-40.55305480957031,22.699554443359375
1772791709623290600,13.85029052734375,-17.12767219543457,-33.87086868286133,28.04865837097168
1772791709643391700,13.870391845703125,-13.11524486541748,-28.19717788696289,21.361080169677734
1772791709663493000,13.8904931640625,-9.338772773742676,-30.145898818969727,25.58670425415039
1772791709683594500,13.910594482421875,-16.797096252441406,-35.61896896362305,21.231725692749023
1772791709703696000,13.93069580078125,-6.351611137390137,-32.91088104248047,19.87887954711914
1772791709723797200,13.95079736328125,-6.4600067138671875,-30.470487594604492,25.849609375
1772791709743898600,13.970898681640625,-5.590447902679443,-18.91709327697754,25.45734977722168
1772791709763999700,13.990999755859375,-8.97465991973877,-7.712841987609863,24.291349411010742
1772791709784101000,14.01110107421875,-6.488752365112305,-1.8091851472854614,26.814987182617188
1772791709804202500,14.031202392578125,-2.050529718399048,-4.560392379760742,32.22637176513672
1772791709824303900,14.051303955078126,0.9504061341285706,-14.785492897033691,32.94321823120117
1772791709844405200,14.0714052734375,5.823408126831055,-12.951753616333008,18.233783721923828
1772791709864506400,14.09150634765625,-0.2449376881122589,-16.352134704589844,14.089007377624512
1772791709884607700,14.111607666015624,-4.764008045196533,-15.296927452087402,11.283303260803223
1772791709904709000,14.131709228515625,-5.822210788726807,-7.081633567810059,6.7462663650512695
1772791709924810500,14.151810546875,-6.328255653381348,-7.330164432525635,10.604185104370117
1772791709944912000,14.171911865234375,-4.073511123657227,-12.416962623596191,16.268892288208008
1772791709965013200,14.19201318359375,-2.2637271881103516,-14.499232292175293,16.909683227539062
1772791709985114600,14.212114501953126,-5.0897932052612305,-16.500654220581055,16.804880142211914
1772791710005215700,14.2322158203125,-7.4337687492370605,-19.21353530883789,17.861286163330078
1772791710025317000,14.252317138671875,-5.269454002380371,-19.284799575805664,17.516937255859375
1772791710045418500,14.27241845703125,-3.0668113231658936,-18.984167098999023,19.218923568725586
1772791710065519900,14.292519775390625,-2.5230376720428467,-20.125612258911133,22.402515411376953
1772791710085621200,14.312621337890626,-0.9066886305809021,-20.34539794921875,23.05767822265625
1772791710105722400,14.332722412109375,-0.041920874267816544,-20.130403518676758,19.983680725097656
1772791710125823700,14.35282373046875,-1.105513334274292,-20.82748794555664,15.352023124694824
1772791710145925000,14.372925048828124,-2.8254668712615967,-21.12392807006836,10.394579887390137
1772791710166026200,14.393026123046875,-4.272336006164551,-19.901037216186523,5.594640254974365
1772791710186127000,14.413127197265625,-6.016244411468506,-18.219411849975586,5.388628959655762
1772791710206228200,14.433228271484374,-5.879103183746338,-17.718156814575195,9.581315040588379
1772791710226329000,14.4533291015625,-4.971815586090088,-18.33918571472168,14.33753776550293
1772791710246430200,14.47343017578125,-5.364075183868408,-20.50709342956543,20.20286750793457
1772791710266531000,14.493531005859374,-10.99824047088623,-23.391847610473633,30.217763900756836
1772791710286632200,14.513632080078125,-20.76280975341797,-34.252349853515625,41.10281753540039
1772791710306733000,14.533733154296876,-11.900737762451172,-49.922969818115234,36.32683181762695
1772791710326834000,14.553833984375,0.8845304250717163,-55.24332809448242,23.248119354248047
1772791710346935000,14.57393505859375,-4.012426376342773,-52.611297607421875,18.252347946166992
1772791710367036000,14.594035888671876,-18.07807731628418,-45.400306701660156,9.619643211364746
1772791710387137000,14.614136962890624,-15.147809028625488,-36.24898147583008,2.535015106201172
1772791710407238000,14.63423779296875,-6.753452777862549,-27.02219581604004,-1.781637191772461
1772791710427339000,14.654339111328126,-4.711906433105469,-13.563199043273926,-13.918928146362305
1772791710447440000,14.67443994140625,-7.528390407562256,-6.203091621398926,-22.776809692382812
1772791710467541000,14.694541015625,-15.960474967956543,-9.245349884033203,-32.289852142333984
1772791710487641900,14.714641845703126,-26.250253677368164,-16.36650848388672,-65.83853149414062
1772791710507743000,14.734742919921874,-22.85645866394043,-11.757607460021973,-103.90447998046875
1772791710527843800,14.75484375,-25.607067108154297,-26.143054962158203,-50.42182922363281
1772791710547945000,14.774945068359376,-21.107759475708008,-39.840999603271484,14.410000801086426
1772791710568045800,14.7950458984375,-13.23801326751709,-29.863832473754883,21.45570182800293
1772791710588147000,14.81514697265625,-11.52285099029541,-29.93988800048828,8.830931663513184
1772791710608247800,14.835247802734376,-8.993824005126953,-38.068946838378906,6.775012016296387
1772791710628349000,14.855348876953125,-11.276715278625488,-43.90013885498047,12.659504890441895
1772791710648449800,14.87544970703125,-13.172137260437012,-42.816184997558594,19.132686614990234
1772791710668550100,14.895550048828126,-11.163528442382812,-37.45270919799805,21.885690689086914
1772791710688650500,14.915650390625,-11.503686904907227,-32.30422592163086,22.760639190673828
1772791710708750800,14.935750732421875,-13.2146577835083,-32.61444091796875,17.9612979888916
1772791710728851200,14.955851318359375,-10.931766510009766,-42.17120361328125,14.796272277832031
1772791710748951600,14.97595166015625,-6.65463924407959,-49.101322174072266,22.640865325927734
1772791710769052200,14.99605224609375,-7.991915225982666,-37.89646911621094,34.02777099609375
1772791710789152500,15.016152587890625,-26.340084075927734,-8.968072891235352,32.25871276855469
1772791710809252900,15.0362529296875,-28.599618911743164,3.5405173301696777,41.80050277709961
1772791710829353200,15.056353271484374,-4.390313148498535,-2.1481454372406006,38.39652633666992
1772791710849453600,15.07645361328125,11.45278263092041,-5.199985027313232,12.654714584350586
1772791710869554000,15.096553955078125,13.55122184753418,-8.55724811553955,1.434891700744629
1772791710889654500,15.116654541015626,-0.3024291694164276,-16.97735595703125,6.702548980712891
1772791710909755000,15.1367548828125,1.5552644729614258,-23.534976959228516,16.664745330810547
1772791710929855200,15.156855224609375,14.515401840209961,-15.64487075805664,22.430063247680664
1772791710949955600,15.17695556640625,8.413519859313965,-12.082195281982422,29.280532836914062
1772791710970056000,15.197055908203126,4.778979778289795,-12.93738079071045,34.83564758300781
1772791710990156300,15.21715625,4.178912162780762,-21.69165802001953,35.10334396362305
1772791711010257000,15.2372568359375,0.09042931348085403,-36.09626770019531,30.12673568725586
1772791711030357200,15.257357177734375,-8.483587265014648,-47.36759567260742,24.147022247314453
1772791711050457600,15.27745751953125,-16.310813903808594,-43.60429763793945,18.018190383911133
1772791711070558000,15.297557861328125,-19.841150283813477,-32.99652099609375,13.295504570007324
1772791711090658300,15.317658203125,-16.943819046020508,-24.7866153717041,12.535539627075195
1772791711110758700,15.337758544921876,-10.217913627624512,-21.763521194458008,13.108657836914062
1772791711130859300,15.357859375,-3.818392753601074,-21.82999610900879,13.563199043273926
1772791711150959900,15.3779599609375,-0.09402253478765488,-22.852266311645508,13.997979164123535
1772791711171061800,15.398061767578126,1.0594004392623901,-23.215181350708008,13.352995872497559
1772791711191163400,15.418163330078125,0.10899427533149719,-22.327056884765625,11.928285598754883
1772791711211265300,15.438265380859375,-2.041546583175659,-21.428752899169922,11.120409965515137
1772791711231367000,15.458366943359374,-3.5728561878204346,-21.05146598815918,11.149155616760254
1772791711251468800,15.47846875,-4.532245635986328,-21.410188674926758,11.746828079223633
1772791711271570400,15.4985703125,-4.418460369110107,-21.47666358947754,11.870794296264648
1772791711291672300,15.51867236328125,-4.404685974121094,-21.013736724853516,11.02938175201416
1772791711311774000,15.53877392578125,-4.537036418914795,-20.177715301513672,10.183178901672363
1772791711331875800,15.558875732421875,-4.626866817474365,-19.16502571105957,9.437586784362793
1772791711351977500,15.5789775390625,-4.059737205505371,-17.83254051208496,7.621214866638184
1772791711372079400,15.599079345703124,-3.48781681060791,-16.00778579711914,5.574278354644775
1772791711392181200,15.61918115234375,-3.1428678035736084,-14.57948112487793,5.1724371910095215
1772791711412283000,15.639282958984374,-3.2656362056732178,-13.43803596496582,5.420968055725098
1772791711432384800,15.659384765625,-6.337837219238281,-13.051165580749512,2.7913312911987305
1772791711452486400,15.679486328125,-9.991540908813477,-10.658082962036133,-9.102219581604004
1772791711472588300,15.69958837890625,-12.615188598632812,-5.13710355758667,-24.323089599609375
1772791711492690000,15.71968994140625,-15.84788703918457,5.346109390258789,-46.494441986083984
1772791711512791800,15.739791748046875,-11.844443321228027,2.051128387451172,-33.458248138427734
1772791711532893400,15.7598935546875,-8.082345008850098,-7.9883222579956055,-5.990492820739746
1772791711552995300,15.779995361328124,-7.222367763519287,-5.1898040771484375,-5.335329532623291
1772791711573097200,15.80009716796875,-10.256241798400879,-2.320020914077759,-12.992476463317871
1772791711593198800,15.82019873046875,-9.551970481872559,-4.025002956390381,-12.242093086242676
1772791711613300700,15.84030078125,-7.434367656707764,-8.714751243591309,-1.070180058479309
1772791711633402400,15.86040234375,-11.607890129089355,-13.194894790649414,10.445484161376953
1772791711653503700,15.880503662109374,-17.142642974853516,-18.114009857177734,20.652019500732422
1772791711673604600,15.9006044921875,-11.319833755493164,-19.97649383544922,18.67754554748535
1772791711693705200,15.920705322265626,-10.970093727111816,-23.37747573852539,24.46202850341797
1772791711713806000,15.94080615234375,-10.719167709350586,-18.902122497558594,35.4566764831543
1772791711733907000,15.960906982421875,-1.8948235511779785,-8.786615371704102,28.97930145263672
1772791711754007600,15.981007568359376,3.455477714538574,-4.440618515014648,24.4237003326416
1772791711774108400,16.0011083984375,7.231949806213379,-5.2329230308532715,11.870195388793945
1772791711794209000,16.021208984375,12.898454666137695,-2.7158737182617188,2.4954898357391357
1772791711814310000,16.041309814453125,6.711532115936279,-4.1058502197265625,0.7653554081916809
1772791711834410500,16.061410400390624,-1.4648351669311523,-2.8069019317626953,-1.8828461170196533
1772791711854511400,16.081511474609375,-10.0436429977417,-2.15712833404541,-3.8046188354492188
1772791711874612200,16.1016123046875,-7.897892951965332,-10.983268737792969,3.623760223388672
1772791711894712800,16.121712890625,10.86648941040039,-17.263614654541016,13.43803596496582
1772791711914813700,16.141813720703126,27.02638816833496,-12.726578712463379,28.73017120361328
1772791711934914300,16.161914306640625,21.368267059326172,-3.6614890098571777,40.1554069519043
1772791711955015200,16.18201513671875,3.4363138675689697,-6.742074489593506,36.10165786743164
1772791711975116000,16.202115966796875,-4.319646835327148,-18.35295867919922,28.76849937438965
1772791711995216600,16.222216552734373,-3.5351274013519287,-25.669349670410156,28.22831916809082
1772791712015317500,16.2423173828125,-9.584908485412598,-27.503686904907227,35.42253875732422
1772791712035418000,16.262418212890626,-13.928509712219238,-30.75135612487793,41.50765609741211
1772791712055519000,16.28251904296875,2.921286106109619,-39.6918830871582,32.874351501464844
1772791712075619800,16.302619873046876,15.550249099731445,-43.13538360595703,25.899913787841797
1772791712095720400,16.322720458984374,-2.481117010116577,-48.27907180786133,38.979225158691406
1772791712115821300,16.3428212890625,-14.666316986083984,-48.35093688964844,45.709922790527344
1772791712135922000,16.362921875,-12.00973129272461,-39.820640563964844,30.374069213867188
1772791712156023300,16.383023193359374,-11.035969734191895,-30.201595306396484,15.067560195922852
1772791712176125400,16.40312548828125,-14.916645050048828,-22.111465454101562,12.797245025634766
1772791712196227600,16.4232275390625,-14.977729797363281,-16.385072708129883,12.57266902923584
1772791712216329700,16.443329833984375,-10.23228645324707,-14.259684562683105,10.918591499328613
1772791712236432000,16.463431884765626,-6.677995204925537,-15.023842811584473,11.33959674835205
1772791712256534000,16.483533935546873,-5.58625602722168,-15.10049819946289,12.10914421081543
1772791712276636000,16.503635986328124,-5.420968055725098,-14.212373733520508,12.080398559570312
1772791712296738000,16.523738037109375,-8.786016464233398,-13.443425178527832,11.115020751953125
1772791712316840200,16.543840087890626,-11.886963844299316,-11.398884773254395,8.361417770385742
1772791712336942300,16.5639423828125,-11.650409698486328,-10.147846221923828,6.062357425689697
1772791712357044500,16.58404443359375,-10.261032104492188,-9.354942321777344,5.64135217666626
1772791712377146600,16.604146728515627,-10.762286186218262,-7.873938083648682,3.6375341415405273
1772791712397248500,16.62424853515625,-14.28783130645752,-5.485645771026611,0.48268893361091614
1772791712417350700,16.6443505859375,-19.624359130859375,-2.0756821632385254,-1.8930269479751587
1772791712437452800,16.664452880859375,-21.557510375976562,-0.4761013686656952,-1.501366138458252
1772791712457555000,16.684554931640626,-17.071977615356445,1.6355129480361938,-1.573230504989624
1772791712477657000,16.704656982421874,-11.116817474365234,4.104652404785156,-2.190066337585449
1772791712497759200,16.72475927734375,-9.401055335998535,8.431485176086426,-4.780776500701904
1772791712517861000,16.744861083984375,-12.912827491760254,17.567840576171875,-11.453980445861816
1772791712537963300,16.76496337890625,-10.162219047546387,25.616050720214844,-15.283153533935547
1772791712558065400,16.7850654296875,17.374406814575195,17.821163177490234,5.979713439941406
1772791712578167600,16.80516748046875,50.8140869140625,9.549574851989746,21.271848678588867
1772791712598269700,16.825269775390623,45.13740158081055,12.304974555969238,8.833327293395996
1772791712618371800,16.845371826171874,23.461915969848633,15.929932594299316,0.6300108432769775
1772791712638474000,16.865473876953125,5.5958380699157715,13.088295936584473,0.13774001598358154
1772791712658576000,16.885575927734376,-3.2470712661743164,8.46023178100586,1.141445517539978
1772791712678678000,16.905677978515627,-7.718830585479736,5.528165817260742,0.17606768012046814
1772791712698780200,16.9257802734375,-10.823969841003418,1.922371506690979,-0.5509600639343262
1772791712718882300,16.94588232421875,-9.982558250427246,-2.3523600101470947,-0.4790956974029541
1772791712738984400,16.965984375,-6.882209777832031,-6.158775329589844,0.7396039962768555
1772791712759086300,16.98608642578125,-4.339409351348877,-8.938129425048828,2.5559756755828857
1772791712779188500,17.0061884765625,-2.1367669105529785,-10.017890930175781,2.738630771636963
1772791712799290600,17.02629052734375,1.176778793334961,-9.698095321655273,1.8636822700500488
1772791712819392800,17.046392822265624,3.7525172233581543,-7.5822882652282715,1.1420444250106812
1772791712839495000,17.066494873046874,5.539544105529785,-5.141894817352295,0.2814687192440033
1772791712859596800,17.0865966796875,6.1018829345703125,-3.866901159286499,-0.34015795588493347
1772791712879699000,17.106698974609376,11.641427040100098,-2.887749433517456,-1.1671968698501587
1772791712899801000,17.126801025390623,22.176740646362305,-2.5056705474853516,-1.358236312866211
1772791712919903200,17.1469033203125,27.68754005432129,-2.385896682739258,-0.45933300256729126
1772791712940005000,17.167005126953125,23.187633514404297,-0.41381892561912537,2.6380207538604736
1772791712960107300,17.187107177734376,20.843658447265625,0.12636148929595947,7.155893325805664
1772791712980209400,17.20720947265625,19.577049255371094,-1.3923718929290771,4.225025177001953
1772791713000311600,17.2273115234375,26.6520938873291,-8.260209083557129,5.482052803039551
1772791713020413700,17.24741357421875,32.13055419921875,-11.847437858581543,10.06160831451416
1772791713040515800,17.267515869140624,34.252349853515625,-12.243889808654785,10.114309310913086
1772791713060617700,17.28761767578125,34.8338508605957,-15.883220672607422,14.674701690673828
1772791713080720000,17.307719970703126,32.49406814575195,-15.625107765197754,17.27020263671875
1772791713100822000,17.327822021484376,20.195680618286133,-11.885167121887207,13.441629409790039
1772791713120924200,17.347924072265624,10.875473022460938,-5.495227813720703,8.111090660095215
1772791713141026300,17.3680263671875,8.290152549743652,-1.1156941652297974,3.6992177963256836
1772791713161128000,17.3881279296875,4.225025177001953,1.358835220336914,1.0504173040390015
1772791713181229600,17.4082294921875,0.6192312240600586,3.0542352199554443,3.354867696762085
1772791713201331000,17.4283310546875,-1.7870270013809204,3.4452970027923584,4.655013561248779
1772791713221432600,17.4484326171875,-2.0559194087982178,2.7865405082702637,1.2324737310409546
1772791713241534200,17.4685341796875,0.3168020248413086,1.8792529106140137,-1.2582250833511353
1772791713261635800,17.4886357421875,2.325410842895508,1.048021912574768,-0.8324288129806519
1772791713281737200,17.5087373046875,1.3845865726470947,0.4557397961616516,1.0605981349945068
1772791713301838800,17.5288388671875,-1.9235693216323853,0.5653329491615295,0.6156379580497742
1772791713321940500,17.5489404296875,-0.9216603636741638,0.4557397961616516,-0.6653441786766052
1772791713342042000,17.5690419921875,2.9446420669555664,-0.04072313383221626,-1.2103155851364136
1772791713362143700,17.589143798828125,4.371748447418213,-0.14612418413162231,-0.655762255191803
1772791713382245000,17.6092451171875,2.79312801361084,0.32219186425209045,-0.1682823747396469
1772791713402346800,17.6293466796875,-0.3359658718109131,0.7857169508934021,-0.3359658718109131
1772791713422448400,17.649448486328126,-0.052101656794548035,0.8138638138771057,0.367107093334198
1772791713442550000,17.669550048828125,4.022008419036865,1.1486319303512573,1.141445517539978
1772791713462651400,17.6896513671875,7.666130065917969,1.8552981615066528,2.508664846420288
1772791713482753000,17.7097529296875,10.936556816101074,3.2931840419769287,2.866788864135742
1772791713502854700,17.729854736328125,12.855934143066406,4.873600959777832,2.4895009994506836
1772791713522956300,17.749956298828124,11.078489303588867,7.648763179779053,4.100460529327393
1772791713543058000,17.770057861328127,13.361380577087402,9.50645637512207,6.782198429107666
1772791713563159300,17.7901591796875,14.2075834274292,8.303327560424805,7.417599201202393
1772791713583261000,17.810260986328124,19.387805938720703,6.292323112487793,6.686978340148926
1772791713603362600,17.830362548828123,28.325336456298828,4.257364273071289,5.792865753173828
1772791713623464200,17.850464111328126,24.43088722229004,6.043792247772217,8.068570137023926
1772791713643565800,17.87056591796875,13.470375061035156,8.536886215209961,8.761463165283203
1772791713663666400,17.89066650390625,7.755960464477539,9.64958667755127,7.1696672439575195
1772791713683767000,17.91076708984375,7.231350898742676,8.360219955444336,3.8525283336639404
1772791713703867600,17.93086767578125,7.40622091293335,6.220458984375,1.969083309173584
1772791713723968500,17.950968505859375,6.470187664031982,4.247782230377197,1.1989370584487915
1772791713744069000,17.971069091796874,3.8094098567962646,3.2303028106689453,-0.6126436591148376
1772791713764169700,17.991169677734376,3.5165624618530273,1.9888460636138916,-0.798892080783844
1772791713784270300,18.011270263671875,4.608301639556885,1.4444735050201416,-1.4492645263671875
1772791713804371000,18.031370849609374,3.5021896362304688,1.9553093910217285,-1.2917617559432983
1772791713824471600,18.051471435546876,1.6492869853973389,2.1846764087677,0.20002245903015137
1772791713844572200,18.071572265625,0.8174570798873901,1.8984167575836182,-0.043717484921216965
1772791713864673000,18.091673095703126,1.5498746633529663,1.2678070068359375,-0.7084627747535706
1772791713884773600,18.111773681640624,2.854811668395996,0.6515701413154602,-1.2390612363815308
1772791713904874200,18.131874267578127,3.7429351806640625,0.46053075790405273,-3.0889694690704346
1772791713924974800,18.151974853515625,4.229816436767578,0.42699405550956726,-3.0177040100097656
1772791713945075500,18.172075439453124,4.508889675140381,1.463637351989746,-2.051727294921875
1772791713965176000,18.192176025390626,9.254332542419434,2.72904896736145,-3.557884454727173
1772791713985277000,18.21227685546875,16.61803436279297,5.661713600158691,-5.876108646392822
1772791714005377500,18.23237744140625,21.462888717651367,10.901224136352539,-2.739828586578369
1772791714025478100,18.25247802734375,27.0401611328125,14.043493270874023,4.707714080810547
1772791714045578800,18.272578857421873,31.251413345336914,11.492907524108887,6.318673610687256
1772791714065679400,18.292679443359376,33.11330032348633,7.40981388092041,4.511883735656738
1772791714085780000,18.312780029296874,25.12557601928711,5.040685653686523,1.179773211479187
1772791714105880800,18.332880859375,11.6929292678833,8.226672172546387,0.2239772379398346
1772791714125981400,18.3529814453125,5.6575212478637695,8.751880645751953,-0.23475690186023712
1772791714146082000,18.37308203125,5.752142906188965,7.190028667449951,0.37668898701667786
1772791714166183200,18.39318310546875,3.686042547225952,7.261893272399902,-0.5270052552223206
1772791714186284000,18.413283935546875,-0.274282306432724,5.948572158813477,-2.2529475688934326
1772791714206385200,18.43338525390625,-3.0159075260162354,3.1165175437927246,-1.071976661682129
1772791714226486000,18.453486083984377,-2.018789529800415,0.9144739508628845,1.7528914213180542
1772791714246587100,18.473587158203124,-2.420631170272827,-0.5850956439971924,3.229703903198242
1772791714266688300,18.493688232421874,-2.689523458480835,-1.282179832458496,4.338810443878174
1772791714286789000,18.5137890625,-3.7770707607269287,-1.7361230850219727,4.42983865737915
1772791714306890200,18.53389013671875,-4.2873077392578125,-2.3236141204833984,4.2382001876831055
1772791714326991000,18.5539912109375,-3.6447205543518066,-2.7817494869232178,5.276041507720947
1772791714347092200,18.57409228515625,-1.4372870922088623,-3.0781898498535156,5.3329339027404785
1772791714367193000,18.594193115234376,-1.3660216331481934,-2.4002695083618164,3.565070867538452
1772791714387294200,18.614294189453126,-1.1630048751831055,-1.9654901027679443,1.2228918075561523
1772791714407395300,18.634395263671873,-3.233297109603882,-0.9815473556518555,-0.17786428332328796
1772791714427496200,18.65449609375,-3.3842122554779053,-0.7425983548164368,-0.4551409184932709
1772791714447597300,18.674597412109375,0.11318635940551758,0.2359546422958374,-0.0826440081000328
1772791714467698400,18.694698486328125,5.364075183868408,3.3452858924865723,0.9216603636741638
1772791714487799300,18.71479931640625,9.949021339416504,5.561702251434326,6.371374130249023
1772791714507900400,18.734900390625,21.458097457885742,6.106074810028076,13.006250381469727
1772791714528001300,18.755001220703125,33.68042755126953,4.730471134185791,15.640079498291016
1772791714548102400,18.775102294921876,43.8043212890625,-1.3779990673065186,10.056818008422852
1772791714568203500,18.79520361328125,49.47621536254883,-1.8936257362365723,-0.8479993939399719
1772791714588304400,18.815304443359373,40.50993728637695,1.3875809907913208,-7.005577087402344
1772791714608405500,18.835405517578124,22.28453826904297,2.7967212200164795,-6.972040176391602
1772791714628506400,18.85550634765625,10.397574424743652,2.9164950847625732,-6.976831436157227
1772791714648607500,18.875607421875,8.743496894836426,1.9277613162994385,-4.897555828094482
1772791714668708600,18.89570849609375,9.754388809204102,0.8390163779258728,-2.3068459033966064
1772791714688810000,18.91581005859375,6.521690368652344,0.7958977222442627,-0.7869147062301636
1772791714708911000,18.9359111328125,1.1480331420898438,0.709660530090332,0.1503162831068039
1772791714729012200,18.95601220703125,-2.0661003589630127,0.06527678668498993,0.16468915343284607
1772791714749113600,18.976113525390623,-1.8678743839263916,-0.5892876982688904,-0.8012875914573669
1772791714769214700,18.996214599609374,-1.0216716527938843,-0.9288467764854431,-2.573342800140381
1772791714789315800,19.01631591796875,1.0156829357147217,-1.0528128147125244,-4.007635593414307
1772791714809417200,19.036417236328123,3.690833568572998,-0.4892764985561371,-4.475951671600342
1772791714829518300,19.056518310546874,5.16105842590332,1.143841028213501,-5.059250831604004
1772791714849619500,19.076619384765625,5.76591682434082,2.4571621417999268,-5.083205699920654
1772791714869720800,19.096720947265624,7.486469268798828,2.700901985168457,-4.46636962890625
1772791714889822000,19.116822021484374,9.542388916015625,2.1373658180236816,-3.290189743041992
1772791714909923000,19.136923095703125,11.34319019317627,0.9336377382278442,-0.3982483148574829
1772791714930024200,19.157024169921876,13.22903060913086,0.89531010389328,0.6150391101837158
1772791714950125600,19.17712548828125,11.248568534851074,1.927162528038025,-0.9144739508628845
1772791714970226700,19.197226806640625,12.954748153686523,3.871093273162842,1.3127222061157227
1772791714990327800,19.217327880859376,24.29853630065918,6.101284027099609,4.922109603881836
1772791715010429200,19.23742919921875,33.34027099609375,8.202717781066895,5.653329372406006
1772791715030530300,19.2575302734375,36.46397399902344,4.807126522064209,6.537859916687012
1772791715050631400,19.27763134765625,38.63846969604492,0.4994572699069977,3.8034210205078125
1772791715070732800,19.29773291015625,33.165401458740234,-0.6186323165893555,0.8300333023071289
1772791715090834000,19.317833984375,19.345285415649414,1.0150840282440186,-0.9240558743476868
1772791715110935000,19.33793505859375,10.482614517211914,1.4402815103530884,-1.5313096046447754
1772791715131036400,19.358036376953127,8.828536033630371,-0.9432196617126465,-0.23116368055343628
1772791715151137500,19.378137451171874,0.13654227554798126,0.47550249099731445,1.5666429996490479
1772791715171239000,19.398239013671876,-10.885653495788574,2.5050716400146484,1.0689822435379028
1772791715191340300,19.41834033203125,-13.433244705200195,1.85110604763031,1.260021686553955
1772791715211441700,19.438441650390626,-11.457573890686035,-0.5084403157234192,2.569749593734741
1772791715231543000,19.45854296875,-10.143653869628906,-3.2309017181396484,3.898641347885132
1772791715251644400,19.47864453125,-9.056705474853516,-5.255680084228516,5.313770294189453
1772791715271745500,19.49874560546875,-7.638582229614258,-6.578582763671875,5.213160037994385
1772791715291847000,19.518846923828125,-5.77130651473999,-7.806265830993652,3.88905930519104
1772791715311948300,19.5389482421875,-2.992551565170288,-8.727926254272461,3.6836471557617188
1772791715332049700,19.559049560546875,-1.0402365922927856,-8.360219955444336,5.7341766357421875
1772791715352151000,19.579151123046874,-1.4564509391784668,-6.454617023468018,6.169555187225342
1772791715372252400,19.59925244140625,-3.19077730178833,-4.7825727462768555,4.381330490112305
1772791715392353800,19.619353759765627,-2.618856906890869,-3.3692405223846436,2.03436017036438
1772791715412455200,19.639455078125,-1.3851854801177979,-2.915297269821167,3.707602024078369
1772791715432556500,19.659556640625,0.45334431529045105,-3.2734215259552,9.190253257751465
1772791715452658000,19.679657958984375,1.1953438520431519,-2.8913426399230957,13.311075210571289
1772791715472759300,19.69975927734375,9.012988090515137,-6.487554550170898,17.22588539123535
1772791715492860700,19.719860595703125,40.45304489135742,-14.783696174621582,24.56383514404297
1772791715512962000,19.739962158203124,56.10689926147461,-14.769323348999023,20.43343162536621
1772791715533063400,19.7600634765625,45.8033447265625,-11.10124683380127,15.873039245605469
1772791715553164800,19.780164794921873,30.82501792907715,-6.855260848999023,11.52285099029541
1772791715573266200,19.80026611328125,23.192424774169922,-4.978403091430664,8.827338218688965
1772791715593367600,19.820367431640626,18.12059783935547,-2.0223827362060547,3.635737657546997
1772791715613468700,19.84046875,18.39008903503418,-0.9001010656356812,0.5377849340438843
1772791715633570000,19.860570068359376,20.15795135498047,-0.9857394099235535,0.6144402623176575
1772791715653671200,19.880671142578127,16.95819091796875,-0.1592993289232254,1.2456488609313965
1772791715673771800,19.900771728515625,12.439720153808594,0.5377849340438843,2.282891035079956
1772791715693872400,19.920872314453124,8.417112350463867,1.5786203145980835,3.5782461166381836
1772791715713973000,19.940972900390626,6.682786464691162,1.946925163269043,4.410076141357422
1772791715734073600,19.961073486328125,6.521690368652344,1.3642250299453735,3.052438497543335
1772791715754174200,19.98117431640625,5.746753215789795,0.9246547222137451,1.9193772077560425
1772791715774274800,20.00127490234375,4.225025177001953,0.7048695683479309,2.326009750366211
1772791715794375400,20.02137548828125,2.6649699211120605,0.9629823565483093,1.336677074432373
1772791715814476000,20.04147607421875,1.9373432397842407,1.3684171438217163,-0.6904966831207275
1772791715834576600,20.06157666015625,3.3410937786102295,0.9390276074409485,-1.7373207807540894
1772791715854677200,20.08167724609375,5.34970235824585,0.3036268949508667,-1.766066551208496
1772791715874777900,20.10177783203125,6.545645236968994,-0.38866639137268066,-0.7527791261672974
1772791715894878500,20.12187841796875,8.332073211669922,-0.5132312774658203,-0.37968334555625916
1772791715914979000,20.14197900390625,9.46633243560791,-0.08803384006023407,0.5862933993339539
1772791715935079700,20.16207958984375,11.730658531188965,0.17906202375888824,3.014709711074829
1772791715955180300,20.18218017578125,19.803421020507812,-1.721750259399414,6.179136753082275
1772791715975281000,20.202281005859376,23.995508193969727,-2.452371120452881,8.254220008850098
1772791715995381500,20.222381591796875,28.419958114624023,-0.9336377382278442,6.203091621398926
1772791716015482000,20.242482177734374,43.643821716308594,-3.927985906600952,4.496912002563477
1772791716035582700,20.262582763671876,49.546878814697266,-10.146648406982422,4.606505393981934
1772791716055683300,20.282683349609375,40.542877197265625,-11.803720474243164,3.2919864654541016
1772791716075784000,20.302783935546874,23.579893112182617,-10.108320236206055,3.3973875045776367
1772791716095884500,20.322884521484376,7.727214813232422,-6.378560543060303,3.048246383666992
1772791716115985200,20.342985107421875,-0.5581464767456055,-4.009432315826416,1.7289366722106934
1772791716136085800,20.363085693359373,-6.145001411437988,-3.5273420810699463,-0.26889246702194214
1772791716156187100,20.383187255859376,-12.048059463500977,-2.6146647930145264,-2.7643821239471436
1772791716176289300,20.403289306640627,-18.154733657836914,-1.8073885440826416,-4.055545330047607
1772791716196391200,20.42339111328125,-19.548900604248047,-3.85612154006958,-0.6234232783317566
1772791716216493300,20.443493408203125,-17.010892868041992,-7.094209671020508,3.167421579360962
1772791716236595200,20.46359521484375,-14.212972640991211,-8.823145866394043,3.6501104831695557
1772791716256697300,20.483697265625,-12.587041854858398,-9.763970375061035,3.234494924545288
1772791716276799200,20.50379931640625,-10.422128677368164,-10.638319969177246,3.3680429458618164
1772791716296901400,20.5239013671875,-7.033723831176758,-11.010817527770996,3.97529673576355
1772791716317003300,20.544003173828123,-4.661002159118652,-10.499980926513672,4.74484395980835
1772791716337105400,20.56410546875,-3.805217742919922,-9.625631332397461,5.084403038024902
1772791716357207600,20.58420751953125,-2.7374331951141357,-8.68001651763916,5.7006402015686035
1772791716377309400,20.604309326171876,-1.2719991207122803,-7.300220966339111,6.432458877563477
1772791716397411300,20.624411376953127,1.2708014249801636,-6.177938938140869,6.174345970153809
1772791716417513500,20.644513427734374,5.571883201599121,-4.668787479400635,8.621926307678223
1772791716437615600,20.66461572265625,9.802298545837402,-2.8296589851379395,11.562376022338867
1772791716457717500,20.684717529296876,5.298199653625488,-1.597784161567688,11.609686851501465
1772791716477819600,20.704819580078127,-14.189018249511719,-1.430100679397583,22.887001037597656
1772791716497921500,20.724921630859374,-12.062432289123535,-7.610435485839844,50.8326530456543
1772791716518023700,20.745023681640625,5.7563347816467285,-20.286109924316406,64.48568725585938
1772791716538125600,20.76512548828125,29.82849884033203,-20.6921443939209,56.48358917236328
1772791716558227700,20.785227783203126,31.26039695739746,-11.875584602355957,40.74169921875
1772791716578329600,20.80532958984375,10.293970108032227,-8.073960304260254,33.06418991088867
1772791716598431700,20.825431640625,-0.5389826893806458,-2.958415985107422,21.935396194458008
1772791716618533600,20.84553369140625,3.6722686290740967,-1.2630161046981812,17.70977210998535
1772791716638635800,20.8656357421875,6.970842361450195,-0.06887000799179077,12.747539520263672
1772791716658738000,20.885738037109373,2.6038851737976074,1.636111855506897,10.477224349975586
1772791716678839800,20.90583984375,-0.30302804708480835,3.068608045578003,4.4058837890625
1772791716698942000,20.92594189453125,-1.8768573999404907,3.245274543762207,-0.5323951244354248
1772791716719044000,20.946044189453126,-1.8295466899871826,3.4027771949768066,-3.8639068603515625
1772791716739146200,20.966146240234377,-1.1917505264282227,3.498596429824829,-7.353520393371582
1772791716759248400,20.986248291015624,-1.649885892868042,3.1500542163848877,-7.391848087310791
1772791716779350500,21.0063505859375,-1.3714114427566528,2.739229679107666,-4.662798881530762
1772791716799452400,21.026452392578125,0.5431747436523438,1.8367332220077515,-1.655874490737915
1772791716819554600,21.046554443359376,2.7595913410186768,0.4802934527397156,0.8869259357452393
1772791716839656700,21.06665673828125,3.5063817501068115,-0.7425983548164368,2.751207113265991
1772791716859758800,21.0867587890625,2.551783561706543,-1.3294905424118042,5.97312593460083
1772791716879861000,21.106861083984374,2.1547329425811768,-1.793015718460083,9.898117065429688
1772791716899963000,21.126962890625,4.078302383422852,-4.902346611022949,11.809709548950195
1772791716920065000,21.14706494140625,4.423251152038574,-11.082082748413086,15.816146850585938
1772791716940167200,21.167167236328126,1.1953438520431519,-14.26806926727295,17.69959259033203
1772791716960269300,21.187269287109373,-2.992551565170288,-12.69184398651123,20.104053497314453
1772791716980371500,21.207371337890624,-6.627091407775879,-16.7515811920166,27.18868064880371
1772791717000473300,21.227473388671875,-2.0661003589630127,-21.33652687072754,24.5446720123291
1772791717020575500,21.247575439453126,2.3248119354248047,-23.55713653564453,17.632518768310547
1772791717040677600,21.267677734375,3.5063817501068115,-20.333419799804688,9.443574905395508
1772791717060779800,21.28777978515625,0.4719092845916748,-17.1144962310791,8.597372055053711
1772791717080882000,21.3078818359375,-2.0990381240844727,-14.42557144165039,8.563836097717285
1772791717100983800,21.32798388671875,-2.250552177429199,-11.306658744812012,6.551633834838867
1772791717121086000,21.3480859375,-0.01976269856095314,-8.866265296936035,3.9794886112213135
1772791717141188000,21.36818798828125,1.6774338483810425,-7.313994884490967,2.650597095489502
1772791717161289500,21.38828955078125,0.816858172416687,-5.680877208709717,1.3408690690994263
1772791717181390300,21.408390380859377,-2.321218729019165,-3.9184041023254395,0.8917168974876404
1772791717201491500,21.428491455078124,-5.346109390258789,-2.2517497539520264,1.8097840547561646
1772791717221592600,21.448592529296874,-4.693940162658691,-1.6163491010665894,3.0428566932678223
1772791717241693700,21.468693603515625,-2.316427707672119,-1.1959426403045654,3.4015796184539795
1772791717261794800,21.488794921875,-2.7374331951141357,-0.46053075790405273,1.6235356330871582
1772791717281896000,21.50889599609375,-5.284425735473633,-0.03054235130548477,0.9396264553070068
1772791717301996800,21.528996826171873,-5.516188144683838,0.45633867383003235,1.8912303447723389
1772791717322098000,21.549097900390624,-4.277725696563721,-0.054497137665748596,3.674065113067627
1772791717342199000,21.569198974609375,-7.728412628173828,0.1652880162000656,4.701725482940674
1772791717362300200,21.589300048828125,-7.799079418182373,-0.44615787267684937,6.695362567901611
1772791717382401300,21.6094013671875,-7.354718208312988,-3.21652889251709,13.143990516662598
1772791717402502400,21.62950244140625,-6.064752578735352,-9.076468467712402,23.622413635253906
1772791717422603300,21.649603271484374,-0.30302804708480835,-12.09956169128418,25.888534545898438
1772791717442704400,21.669704345703124,2.2679193019866943,-16.211999893188477,25.845417022705078
1772791717462805500,21.689805419921875,2.7032976150512695,-16.116779327392578,26.59100914001465
1772791717482906600,21.70990673828125,4.730471134185791,-13.738069534301758,30.22435188293457
1772791717503007700,21.7300078125,7.452932834625244,-15.67720890045166,34.59370422363281
1772791717523108900,21.75010888671875,11.588726043701172,-17.797805786132812,31.93592071533203
1772791717543210000,21.7702099609375,12.09956169128418,-16.340757369995117,24.583599090576172
1772791717563310800,21.790310791015624,9.986749649047852,-12.778081893920898,21.026912689208984
1772791717583412000,21.810411865234375,10.922183990478516,-10.366433143615723,19.187183380126953
1772791717603513000,21.83051318359375,11.461167335510254,-9.177078247070312,14.53576374053955
1772791717623614200,21.8506142578125,5.732978820800781,-8.556050300598145,8.69858169555664
1772791717643715300,21.87071533203125,-1.130066990852356,-6.516899585723877,3.426133155822754
1772791717663816200,21.890816162109374,-5.59164571762085,-3.8088109493255615,-0.4557397961616516
1772791717683917000,21.9109169921875,-6.683385372161865,-1.2444510459899902,-2.200247049331665
1772791717704018200,21.93101806640625,-7.066062927246094,-0.9911292195320129,-2.8506195545196533
1772791717724119000,21.951119140625,-6.4989333152771,-2.9015233516693115,-2.195456027984619
1772791717744220200,21.97122021484375,-6.957667350769043,-5.423363208770752,-1.7504959106445312
1772791717764321000,21.991321044921875,-7.676311016082764,-6.450424671173096,-1.8463151454925537
1772791717784422000,22.011421875,-8.233859062194824,-6.0150465965271,-2.128981590270996
1772791717804523000,22.03152294921875,-8.857880592346191,-5.241307258605957,-2.683534860610962
1772791717824623900,22.051623779296875,-8.300333023071289,-4.940674304962158,-2.745817184448242
1772791717844724700,22.071724853515626,-6.149792194366455,-4.6394429206848145,-1.8660777807235718
1772791717864825600,22.09182568359375,-4.7268781661987305,-4.047161102294922,-1.8091851472854614
1772791717884926700,22.1119267578125,-3.8477373123168945,-3.1829922199249268,-2.430811882019043
1772791717905027600,22.132027587890626,-3.0111165046691895,-2.5332186222076416,-2.3302018642425537
1772791717925128700,22.152128662109376,-2.6002919673919678,-1.1384512186050415,-3.7213759422302246
1772791717945229600,22.1722294921875,-4.443612575531006,2.452970027923584,-5.891679286956787
1772791717965330400,22.192330322265626,-1.8247557878494263,2.056518316268921,6.465396404266357
1772791717985431600,22.212431640625,14.722611427307129,-1.4157278537750244,29.110454559326172
1772791718005532400,22.232532470703124,24.184751510620117,-0.25990942120552063,36.05614471435547
1772791718025633300,22.25263330078125,18.83924102783203,0.6952876448631287,27.25096321105957
1772791718045734400,22.272734375,17.756484985351562,0.18924281001091003,19.162630081176758
1772791718065835300,22.292835205078124,15.350825309753418,0.9863383173942566,12.388815879821777
1772791718106037200,22.333037353515625,10.25085163116455,1.4402815103530884,3.97529673576355
1772791718126138000,22.35313818359375,18.025976181030273,-1.9217727184295654,6.4989333152771
1772791718146239000,22.373239013671874,23.234943389892578,-3.2686305046081543,8.999214172363281
1772791718166340400,22.39334033203125,22.941497802734375,-3.139873504638672,8.445260047912598
1772791718186441700,22.413441650390624,20.30467414855957,-2.2182130813598633,5.242504596710205
1772791718206543000,22.433543212890626,16.882734298706055,-1.03364896774292,3.564471960067749
1772791718226644500,22.45364453125,13.361380577087402,-0.3509376049041748,5.686866283416748
1772791718246745900,22.473745849609376,10.21372127532959,0.5898866057395935,6.112662315368652
1772791718266847200,22.49384716796875,6.994797229766846,1.3396713733673096,4.324437618255615
1772791718286948400,22.5139482421875,5.22693395614624,2.2948684692382812,2.025377035140991
1772791718307049700,22.5340498046875,6.295317649841309,2.705693006515503,2.0493319034576416
1772791718327151000,22.554151123046875,7.5427632331848145,3.063817024230957,2.952427387237549
1772791718347252500,22.57425244140625,9.400456428527832,3.4746415615081787,3.2105400562286377
1772791718367353900,22.594353759765625,9.613055229187012,2.228394031524658,3.8411498069763184
1772791718387455000,22.614455078125,11.924093246459961,-2.4379982948303223,7.89010763168335
1772791718407556400,22.634556396484374,9.565744400024414,0.2844630777835846,5.987498760223389
1772791718427657700,22.65465771484375,11.475540161132812,1.5361006259918213,3.678856134414673
1772791718447759000,22.674759033203124,15.4173002243042,2.8350489139556885,1.6325186491012573
1772791718467860500,22.694860595703126,18.61227035522461,0.5521578192710876,4.596324443817139
1772791718487961900,22.7149619140625,20.384923934936523,-2.189467430114746,8.019463539123535
1772791718508063200,22.735063232421876,18.947635650634766,-2.4188344478607178,10.127484321594238
1772791718528164400,22.755164306640626,17.58640480041504,-1.1815698146820068,8.396751403808594
1772791718548265700,22.775265625,13.361380577087402,-0.016169480979442596,5.041284561157227
1772791718568367000,22.7953671875,8.790807723999023,2.0702922344207764,3.239884614944458
1772791718588468500,22.815468505859375,6.489351272583008,2.232585906982422,3.4746415615081787
1772791718608569900,22.83556982421875,3.6489126682281494,-0.7623610496520996,3.938166618347168
1772791718628671200,22.855671142578124,2.3727214336395264,-0.23176254332065582,3.130291700363159
1772791718648772400,22.8757724609375,7.382864952087402,2.838642120361328,1.619942307472229
1772791718668872400,22.89587255859375,9.684320449829102,3.421342134475708,2.222405195236206
1772791718688972800,22.915972900390624,7.727813720703125,2.1271848678588867,2.695512294769287
1772791718709073200,22.9360732421875,7.013961315155029,1.1528240442276,3.2315006256103516
1772791718729173200,22.95617333984375,6.082718849182129,1.4917842149734497,3.0925629138946533
1772791718749273600,22.976273681640624,5.071826934814453,2.1032302379608154,2.270913600921631
1772791718769373700,22.996373779296874,4.636448860168457,2.710484027862549,1.1935471296310425
1772791718789474000,23.01647412109375,4.00284481048584,4.06692361831665,0.12755922973155975
1772791718809574100,23.03657421875,2.6320321559906006,5.213160037994385,-0.22637271881103516
1772791718829674500,23.056674560546874,1.403151512145996,6.177938938140869,-0.12576262652873993
1772791718849774800,23.07677490234375,2.7787551879882812,6.627091407775879,0.012576262466609478
1772791718869875000,23.096875,4.829883575439453,6.879814147949219,-1.3642250299453735
1772791718889975300,23.116975341796874,5.633566856384277,7.137927055358887,-1.842123031616211
1772791718910075400,23.137075439453124,6.512707233428955,6.775012016296387,-1.9187783002853394
1772791718930175700,23.15717578125,8.251824378967285,6.722311496734619,-2.458958625793457
1772791718950276000,23.177276123046877,8.733914375305176,6.789384841918945,-2.2295916080474854
1772791718970376200,23.197376220703124,7.968559265136719,7.1037917137146,-1.7313320636749268
1772791718990476500,23.2174765625,7.184040069580078,7.390650272369385,-1.3486543893814087
1772791719010576600,23.23757666015625,6.404311656951904,7.777520179748535,-0.966575562953949
1772791719030677000,23.257677001953127,6.092300891876221,8.078152656555176,-0.229965940117836
1772791719050777300,23.27777734375,6.8672380447387695,7.920650005340576,0.5252086520195007
1772791719070877400,23.29787744140625,7.293034553527832,7.739192485809326,0.20960436761379242
1772791719090977800,23.317977783203126,6.494142532348633,7.74877405166626,-0.3922595977783203
1772791719111078000,23.338077880859377,5.449713706970215,7.791294097900391,-0.659954309463501
1772791719131178200,23.35817822265625,4.5232625007629395,7.867949485778809,-0.7845191955566406
1772791719151278800,23.37827880859375,4.362765312194824,8.126062393188477,-0.8318299055099487
1772791719171380700,23.398380615234377,4.565782070159912,8.73271656036377,-1.1809709072113037
1772791719191482600,23.418482666015624,5.548527240753174,8.488977432250977,-1.6546767950057983
1772791719211584800,23.438584716796875,7.633192539215088,7.720028400421143,-1.4013549089431763
1772791719231686700,23.458686767578126,9.287270545959473,6.664221286773682,0.15271176397800446
