time,seconds_elapsed,z,y,x
1772791695962070800,0.18907080078125,-0.9805750846862793,-1.4976273775100708,0.05206475406885147
1772791695982174700,0.2091748046875,-1.316665768623352,-1.3515530824661255,0.26378586888313293
1772791696002278700,0.229278564453125,-1.5973626375198364,-1.083372950553894,0.3146522045135498
1772791696022382300,0.24938232421875,-1.6815184354782104,-0.9033434391021729,0.12956267595291138
1772791696042486300,0.269486328125,-1.6157383918762207,-0.7347655296325684,-0.1428784728050232
1772791696062590000,0.28958984375,-1.619733214378357,-0.5916207432746887,-0.18708691000938416
1772791696082693600,0.309693603515625,-1.6341142654418945,-0.8805734515190125,-0.09920266270637512
1772791696102797600,0.329797607421875,-1.64716374874115,-1.5330473184585571,-0.2744385302066803
1772791696122901200,0.3499013671875,-1.6761921644210815,-2.427602529525757,-0.7474155426025391
1772791696143005000,0.3700048828125,-1.4647372961044312,-2.985001564025879,-1.0022798776626587
1772791696163108400,0.3901083984375,-1.284175157546997,-3.1188251972198486,-0.7455512881278992
1772791696183211500,0.41021142578125,-1.212802529335022,-3.3959269523620605,-0.5383575558662415
1772791696203314700,0.430314697265625,-0.7970834374427795,-1.972468614578247,-0.5330312252044678
1772791696223417900,0.45041796875,-0.157392680644989,0.19001637399196625,-0.34847432374954224
1772791696243521300,0.470521240234375,0.4532696306705475,1.8342506885528564,-0.2605900764465332
1772791696263624400,0.49062451171875,0.7161234021186829,1.7620790004730225,-0.6912228465080261
1772791696283727600,0.5107275390625,0.1693768948316574,-0.17137427628040314,-1.3311799764633179
1772791696303830800,0.530830810546875,-0.4135885536670685,-0.5543364882469177,-1.613474726676941
1772791696323934000,0.550933837890625,-0.5779054760932922,-0.15592794120311737,-1.3578115701675415
1772791696344037400,0.571037353515625,-1.160338282585144,-0.3940143585205078,-1.310407280921936
1772791696364140500,0.591140625,-1.636244773864746,-0.747948169708252,-1.749029517173767
1772791696384243700,0.61124365234375,-1.601889967918396,-1.3234567642211914,-2.5879244804382324
1772791696404347000,0.631346923828125,-1.3438299894332886,-1.8425064086914062,-2.770883560180664
1772791696424450000,0.651449951171875,-1.716139554977417,-1.576456904411316,-2.468348741531372
1772791696444553500,0.671553466796875,-1.9446386098861694,-0.7447523474693298,-1.8193368911743164
1772791696464656600,0.69165673828125,-1.7731311321258545,-0.34447959065437317,-1.3663336038589478
1772791696484759800,0.711759765625,-1.6772574186325073,-0.538091242313385,-1.3735241889953613
1772791696504863000,0.731863037109375,-1.5891069173812866,-0.9191892743110657,-1.7439695596694946
1772791696524966400,0.75196630859375,-1.2735224962234497,-0.8976176977157593,-1.4512883424758911
1772791696545069600,0.772069580078125,-0.7925560474395752,-1.4438315629959106,-0.27284061908721924
1772791696565172700,0.7921728515625,-1.0327730178833008,-3.242262601852417,0.36525222659111023
1772791696585276000,0.81227587890625,-1.6527563333511353,-4.713657855987549,-0.10772477090358734
1772791696605379300,0.83237939453125,-2.207758665084839,-4.771182060241699,-1.0270471572875977
1772791696625482500,0.852482421875,-2.7475810050964355,-3.1698248386383057,-2.3778014183044434
1772791696645584600,0.872584716796875,-2.95131254196167,-1.4584789276123047,-3.813243865966797
1772791696665685000,0.89268505859375,-2.323606014251709,-1.9192054271697998,-5.274518966674805
1772791696685785300,0.912785400390625,-1.063931941986084,-2.7919225692749023,-6.251632213592529
1772791696705885700,0.9328857421875,0.2468748241662979,-2.7197508811950684,-5.782649993896484
1772791696725986000,0.952986083984375,0.794952929019928,-2.189516067504883,-4.205527305603027
1772791696746086700,0.973086669921875,0.1728390008211136,-0.46485435962677,-2.777541399002075
1772791696766187000,0.99318701171875,-1.1973562240600586,0.5010733008384705,-1.8683390617370605
1772791696786287400,1.013287353515625,-2.455432415008545,-0.0073236869648098946,-1.3199946880340576
1772791696806387700,1.0333876953125,-2.746782064437866,-1.4984263181686401,-1.2624704837799072
1772791696826488000,1.053488037109375,-2.087383985519409,-1.6347800493240356,-1.0816419124603271
1772791696846588400,1.07358837890625,-0.7289065718650818,-0.714392364025116,-0.7258439064025879
1772791696866688800,1.093688720703125,-0.19547586143016815,-1.2203925848007202,-1.7591495513916016
1772791696886789400,1.113789306640625,-1.0964224338531494,-1.2126693725585938,-2.5562329292297363
1772791696906889700,1.1338896484375,-1.9425079822540283,1.4904367923736572,-1.5357105731964111
1772791696926990000,1.153989990234375,-1.9973690509796143,3.4382712841033936,1.5130736827850342
1772791696947090400,1.17409033203125,-2.755570411682129,4.158655643463135,5.033503532409668
1772791696967190800,1.194190673828125,-4.492748737335205,3.7365450859069824,7.5299482345581055
1772791696987291100,1.214291015625,-5.637108325958252,2.3762035369873047,8.641284942626953
1772791697007391700,1.234391845703125,-5.75828218460083,1.236637830734253,8.336353302001953
1772791697027492000,1.2544921875,-5.35028600692749,0.819320797920227,6.56402063369751
1772791697047592400,1.274592529296875,-4.440550804138184,0.48855647444725037,3.637741804122925
1772791697067692800,1.29469287109375,-3.282076835632324,0.036352116614580154,0.7870965600013733
1772791697087793200,1.314793212890625,-2.0495669841766357,-0.20732691884040833,-0.9402282238006592
1772791697107893500,1.3348935546875,-0.7009434103965759,-0.19054901599884033,-1.6052190065383911
1772791697127993900,1.354993896484375,0.5904223322868347,-0.7572692036628723,-1.4664684534072876
1772791697148094200,1.37509423828125,1.580052137374878,-2.0265307426452637,-0.8603334426879883
1772791697168194600,1.395194580078125,2.1907143592834473,-3.0353353023529053,-0.16977638006210327
1772791697188295000,1.415294921875,2.770484209060669,-3.4941976070404053,0.5332975387573242
1772791697208395000,1.43539501953125,3.3276169300079346,-3.6902060508728027,1.1306440830230713
1772791697228495400,1.455495361328125,4.160919189453125,-4.021769046783447,1.523460030555725
1772791697248595700,1.475595703125,4.982769966125488,-4.659063339233398,1.7311863899230957
1772791697268696000,1.495696044921875,5.530848026275635,-5.278247833251953,2.0515644550323486
1772791697288796400,1.51579638671875,5.515934467315674,-5.758148670196533,2.9770121574401855
1772791697308896500,1.535896484375,4.952676296234131,-6.092907905578613,4.241213798522949
1772791697328996900,1.555996826171875,3.5526537895202637,-6.21940803527832,5.007936954498291
1772791697349097200,1.57609716796875,2.1536965370178223,-6.719815254211426,4.980240345001221
1772791697369197600,1.596197509765625,1.605085849761963,-7.021551132202148,5.178379058837891
1772791697389298000,1.6162978515625,1.7249280214309692,-6.251632213592529,5.541367530822754
1772791697409398000,1.63639794921875,3.2738211154937744,-4.5868916511535645,5.607680320739746
1772791697429498400,1.656498291015625,6.961763381958008,-2.1993696689605713,5.631115913391113
1772791697449598700,1.6765986328125,11.892069816589355,2.3916497230529785,4.2867536544799805
1772791697469699000,1.696698974609375,15.296651840209961,7.481212615966797,0.3476753830909729
1772791697489799400,1.71679931640625,14.294239044189453,7.46523380279541,-6.051629066467285
1772791697509899500,1.7368994140625,9.991373062133789,6.140578269958496,-9.226646423339844
1772791697530000000,1.756999755859375,2.8240137100219727,5.307542324066162,-5.85695219039917
1772791697550100200,1.777100341796875,-4.036816120147705,1.499491572380066,-0.23315955698490143
1772791697570200600,1.79720068359375,-8.559925079345703,-3.624159574508667,3.377018451690674
1772791697590301000,1.817301025390625,-9.983916282653809,-6.457494258880615,4.882236003875732
1772791697610401300,1.8374013671875,-9.010265350341797,-6.401834487915039,5.22098970413208
1772791697630501400,1.85750146484375,-6.022733688354492,-3.182075262069702,4.4180474281311035
1772791697650601700,1.877601806640625,-2.066877603530884,1.072587251663208,2.8081676959991455
1772791697670702000,1.8977021484375,1.3393025398254395,3.390866994857788,1.1104040145874023
1772791697690802200,1.91780224609375,4.028826713562012,3.902193546295166,-0.1892174333333969
1772791697710902500,1.937902587890625,5.442164897918701,3.4747564792633057,-1.3338431119918823
1772791697731003000,1.9580029296875,5.695697784423828,3.679020643234253,-2.681401491165161
1772791697751103200,1.978103271484375,5.4501543045043945,4.269176959991455,-3.9330861568450928
1772791697771203600,1.99820361328125,5.0043416023254395,4.4199113845825195,-4.52377462387085
1772791697791304000,2.018303955078125,4.461856365203857,3.781552314758301,-4.496610641479492
1772791697811404000,2.038404052734375,3.7273571491241455,2.754105567932129,-4.0856852531433105
1772791697831504400,2.05850439453125,2.948915719985962,1.5969631671905518,-3.2925963401794434
1772791697851604700,2.078604736328125,2.9784767627716064,0.943690299987793,-2.245708703994751
1772791697871704800,2.098704833984375,4.422708034515381,1.7671390771865845,-1.8899106979370117
1772791697891805200,2.11880517578125,6.266412734985352,2.240382432937622,-3.1692922115325928
1772791697911905500,2.138905517578125,3.175816774368286,-1.4520872831344604,-6.0100836753845215
1772791697932006000,2.159005859375,-2.4157514572143555,1.350620985031128,-5.851093292236328
1772791697952106200,2.179106201171875,-3.3835432529449463,5.386638164520264,0.26698166131973267
1772791697972206600,2.19920654296875,-4.173702716827393,7.311835765838623,4.4329609870910645
1772791697992306700,2.219306640625,-5.882917881011963,8.44660758972168,6.716353416442871
1772791698012407000,2.239406982421875,-7.86510705947876,8.273236274719238,8.828238487243652
1772791698032507400,2.25950732421875,-9.870199203491211,6.110218524932861,10.023730278015137
1772791698052607700,2.279607666015625,-10.426532745361328,3.3011186122894287,9.884713172912598
1772791698072708000,2.2997080078125,-9.569528579711914,1.010269284248352,8.251398086547852
1772791698092808200,2.31980810546875,-8.06617546081543,-0.30053746700286865,6.446042537689209
1772791698112908500,2.339908447265625,-6.4275336265563965,-0.2563290297985077,4.500871658325195
1772791698133009000,2.3600087890625,-4.653603553771973,0.6225133538246155,2.2387845516204834
1772791698153110300,2.3801103515625,-2.7760767936706543,2.045172691345215,0.3553985357284546
1772791698173212400,2.40021240234375,-1.1446256637573242,3.1895320415496826,-0.34847432374954224
1772791698193314600,2.420314453125,0.06791055202484131,2.3455772399902344,-0.43263015151023865
1772791698213416400,2.44041650390625,1.1616698503494263,0.3687143325805664,0.42064592242240906
1772791698233518600,2.4605185546875,1.999233365058899,-1.1815104484558105,1.7652747631072998
1772791698253620700,2.480620849609375,2.9846019744873047,-2.3738067150115967,2.765557289123535
1772791698273723000,2.500722900390625,4.131092071533203,-2.9413256645202637,3.290465831756592
1772791698293825000,2.520824951171875,5.012863636016846,-2.622279405593872,3.457179546356201
1772791698313927200,2.54092724609375,5.67172908782959,-1.9559569358825684,3.2433278560638428
1772791698334029000,2.561029052734375,5.70075798034668,-1.725327491760254,2.6656887531280518
1772791698354131200,2.581131103515625,5.305811405181885,-1.9937738180160522,1.8952369689941406
1772791698374233300,2.6012333984375,4.798745632171631,-1.988181233406067,1.635046362876892
1772791698394335500,2.62133544921875,4.6320319175720215,-1.8009611368179321,1.950364351272583
1772791698414437600,2.641437744140625,4.865058422088623,-1.5261231660842896,2.3218750953674316
1772791698434539500,2.66153955078125,5.262401580810547,-1.1735209226608276,2.467816114425659
1772791698454641700,2.6816416015625,5.593698978424072,-0.9857682585716248,2.1248011589050293
1772791698474743800,2.701743896484375,5.525788307189941,-0.6547375917434692,1.0619345903396606
1772791698494846000,2.721845947265625,5.75908088684082,-0.05392896756529808,-0.32583749294281006
1772791698514948000,2.741947998046875,6.575605392456055,0.7356976270675659,-1.2073431015014648
1772791698535050000,2.762050048828125,6.88080358505249,1.3793830871582031,-3.0862016677856445
1772791698575254300,2.802254150390625,4.644815444946289,3.931488275527954,-2.7293384075164795
1772791698595356400,2.8223564453125,2.762760877609253,4.937097072601318,-1.392698884010315
1772791698615458600,2.84245849609375,1.753423810005188,4.85933256149292,-0.44514700770378113
1772791698635560400,2.862560546875,1.492700457572937,4.044405937194824,0.26085641980171204
1772791698655662000,2.882662109375,1.810149073600769,2.9929909706115723,0.5860280990600586
1772791698675763500,2.902763427734375,2.118276596069336,1.9913769960403442,0.41638487577438354
1772791698695864800,2.92286474609375,1.829590082168579,0.9711208343505859,0.04593949019908905
1772791698715966500,2.942966552734375,1.3978921175003052,0.290683776140213,-0.1423458456993103
1772791698736067800,2.96306787109375,1.1784477233886719,0.3543332815170288,-0.19720691442489624
1772791698756169500,2.98316943359375,1.2508857250213623,0.7692534327507019,-0.489888072013855
1772791698776270800,3.003270751953125,1.572595238685608,1.4382388591766357,-1.295759916305542
1772791698796372500,3.02337255859375,2.1145482063293457,2.214816093444824,-2.6363940238952637
1772791698816473900,3.043473876953125,2.630401849746704,1.8973674774169922,-4.175966262817383
1772791698836575200,3.0635751953125,2.3960440158843994,-0.018508953973650932,-5.191961288452148
1772791698856676900,3.0836767578125,1.270060420036316,-2.5652878284454346,-5.139230728149414
1772791698876778200,3.1037783203125,-0.12756530940532684,-3.452918529510498,-3.399122714996338
1772791698896879600,3.123879638671875,-1.510011076927185,-2.957571029663086,-0.32876694202423096
1772791698916981200,3.143981201171875,-3.2064433097839355,-1.8635454177856445,1.4984263181686401
1772791698937082600,3.16408251953125,-4.399005889892578,-0.32690274715423584,2.7442519664764404
1772791698957184000,3.18418408203125,-4.762260437011719,0.5796365141868591,4.171971321105957
1772791698977285600,3.20428564453125,-4.990493297576904,0.10293108969926834,5.070254802703857
1772791698997387000,3.224386962890625,-5.791837692260742,-0.7069355249404907,4.738691806793213
1772791699017488600,3.244488525390625,-6.640852928161621,-1.5578147172927856,4.002594470977783
1772791699037590000,3.264590087890625,-7.10131311416626,-1.4590115547180176,4.109120845794678
1772791699057691600,3.284691650390625,-7.742335319519043,-1.7450348138809204,3.281144857406616
1772791699077793000,3.30479296875,-8.4406156539917,-2.3122875690460205,1.2193272113800049
1772791699097894400,3.324894287109375,-8.062180519104004,-2.210555076599121,-0.72903972864151
1772791699117996000,3.34499609375,-6.8770751953125,-1.561010479927063,-1.2329093217849731
1772791699138097400,3.365097412109375,-5.722329139709473,-0.7093323469161987,-0.6182523369789124
1772791699158199300,3.38519921875,-4.844818592071533,0.12317109853029251,0.1620532125234604
1772791699178301200,3.40530126953125,-4.172637462615967,0.6390249729156494,0.5804354548454285
1772791699198403000,3.425403076171875,-3.741471767425537,0.4653870165348053,0.41531962156295776
1772791699218505000,3.4455048828125,-3.5561158657073975,0.058988966047763824,-0.024101587012410164
1772791699238606800,3.46560693359375,-3.352916955947876,0.03289001062512398,-0.3380880057811737
1772791699258708700,3.485708740234375,-2.9920589923858643,0.7223818302154541,-0.5969470739364624
1772791699278810600,3.505810546875,-2.0887155532836914,1.3655346632003784,-0.877910315990448
1772791699298912500,3.52591259765625,-0.7906918525695801,1.2510188817977905,-0.8249134421348572
1772791699319014400,3.546014404296875,0.6058686375617981,0.6299701929092407,-0.37563854455947876
1772791699339116300,3.5661162109375,1.8000290393829346,-0.15992268919944763,0.15646058320999146
1772791699359218200,3.58621826171875,2.627472400665283,-0.9021450281143188,0.6291712522506714
1772791699379320000,3.606320068359375,3.2128348350524902,-1.4358420372009277,0.9878987669944763
1772791699399422000,3.626421875,3.536142349243164,-1.6259915828704834,1.1897661685943604
1772791699419523800,3.64652392578125,3.6594464778900146,-1.6984295845031738,1.2203925848007202
1772791699439625700,3.666625732421875,3.662642240524292,-1.8555558919906616,1.1796462535858154
1772791699459727600,3.6867275390625,3.6234939098358154,-2.0574233531951904,1.2020167112350464
1772791699479829500,3.70682958984375,3.5350770950317383,-2.020671844482422,1.353017807006836
1772791699499931400,3.726931396484375,3.4469263553619385,-1.7239958047866821,1.5218621492385864
1772791699520033300,3.747033203125,3.3204264640808105,-1.353017807006836,1.46407151222229
1772791699540135200,3.76713525390625,3.632282257080078,-0.8744481801986694,0.46512067317962646
1772791699560237300,3.7872373046875,4.993689060211182,-0.14101426303386688,-0.5125249028205872
1772791699580339200,3.807339111328125,7.384140491485596,0.804673433303833,-1.5162694454193115
1772791699600440800,3.82744091796875,9.491764068603516,1.7543559074401855,-3.371159553527832
1772791699620543000,3.84754296875,8.981236457824707,3.484610080718994,-6.042840480804443
1772791699640644600,3.86764453125,5.231242656707764,7.548856735229492,-7.195189476013184
1772791699660745200,3.8877451171875,3.100449562072754,9.569662094116211,-4.952277183532715
1772791699680846000,3.90784619140625,4.244009971618652,6.600772380828857,-0.24461114406585693
1772791699700946700,3.92794677734375,4.022701263427734,-1.3543493747711182,3.9336187839508057
1772791699721047300,3.94804736328125,1.3249214887619019,-7.602386474609375,5.561873912811279
1772791699741148000,3.96814794921875,-0.3568632900714874,-8.096668243408203,4.867055892944336
1772791699761248800,3.988248779296875,-0.5997433662414551,-4.136285305023193,3.1083056926727295
1772791699781349400,4.008349365234375,-0.01704421639442444,1.0478198528289795,1.3357073068618774
1772791699801450200,4.0284501953125,0.740091860294342,3.558379650115967,-0.31198906898498535
1772791699821550800,4.04855078125,1.2130688428878784,3.377018451690674,-1.5969631671905518
1772791699841651500,4.0686513671875,1.3627383708953857,2.6470468044281006,-2.388986587524414
1772791699861752000,4.088751953125,1.2514183521270752,2.3261361122131348,-2.8390605449676514
1772791699881853000,4.10885302734375,0.8186550140380859,1.8763285875320435,-2.7138919830322266
1772791699901953500,4.12895361328125,-0.13768531382083893,0.9934914112091064,-1.9506306648254395
1772791699922054100,4.14905419921875,-1.31906259059906,0.0576573871076107,-1.075516700744629
1772791699942155000,4.169155029296875,-2.273005962371826,-0.5447491407394409,-0.5306344032287598
1772791699962255600,4.189255615234375,-2.883402109146118,-0.6555365324020386,-0.3854922354221344
1772791699982356200,4.209356201171875,-3.121488332748413,-0.41824910044670105,-0.4717785716056824
1772791700002456800,4.229456787109375,-3.1366684436798096,-0.2414153516292572,-0.5894901752471924
1772791700022557700,4.2495576171875,-3.0799431800842285,-0.27044376730918884,-0.6328997015953064
1772791700042658300,4.269658203125,-2.646913528442383,-0.32743537425994873,-0.42597225308418274
1772791700062759000,4.289759033203125,-1.3403677940368652,-1.679521083831787,0.731436550617218
1772791700082859800,4.30985986328125,-0.4082622528076172,-3.4973933696746826,2.4201455116271973
1772791700102960400,4.32996044921875,-0.8133286833763123,-3.0699563026428223,3.0553090572357178
1772791700123061000,4.35006103515625,-3.5201632976531982,-0.8536755442619324,0.783900797367096
1772791700143161600,4.37016162109375,-7.823561668395996,1.8390443325042725,-1.355414628982544
1772791700163262000,4.390261962890625,-10.43159294128418,3.470761775970459,0.3492732644081116
1772791700183362300,4.4103623046875,-10.308821678161621,3.031606912612915,3.3477237224578857
1772791700203462700,4.430462646484375,-8.220638275146484,0.0576573871076107,2.0438411235809326
1772791700223562800,4.450562744140625,-6.415815830230713,-0.9423587322235107,-1.3519525527954102
1772791700243663000,4.4706630859375,-5.7287211418151855,1.033438801765442,-2.051830768585205
1772791700263763500,4.490763427734375,-5.682648181915283,3.1410627365112305,-0.7697860598564148
1772791700283863800,4.51086376953125,-5.4882378578186035,4.243876934051514,1.5149378776550293
1772791700303964000,4.5309638671875,-5.3987555503845215,4.518448352813721,3.4382712841033936
1772791700324064300,4.551064208984375,-5.320991516113281,4.037481784820557,3.8465335369110107
1772791700344164600,4.57116455078125,-4.428300380706787,1.9857844114303589,2.6523730754852295
1772791700364265000,4.591264892578125,-2.990727424621582,0.40679749846458435,0.5705817937850952
1772791700384365000,4.611364990234375,-1.7749953269958496,0.26325324177742004,-1.4307820796966553
1772791700404465400,4.63146533203125,-0.6500770449638367,0.5263733267784119,-2.6787383556365967
1772791700424565800,4.651565673828125,0.5994770526885986,0.5729786157608032,-2.72560977935791
1772791700444666000,4.671666015625,1.6929700374603271,0.3205111622810364,-2.0092201232910156
1772791700464766200,4.69176611328125,2.263418674468994,0.03475422412157059,-1.345294713973999
1772791700484866600,4.711866455078125,2.350503921508789,0.07363633811473846,-1.1580746173858643
1772791700504967000,4.731966796875,2.1353206634521484,0.4078627824783325,-1.4217272996902466
1772791700525067300,4.7520673828125,1.9592859745025635,0.7338334321975708,-1.9516959190368652
1772791700545167400,4.77216748046875,2.3238723278045654,0.916259765625,-2.3586266040802
1772791700565267700,4.792267822265625,2.7065682411193848,0.8558061122894287,-2.635328769683838
1772791700585368000,4.8123681640625,2.960367441177368,0.03448790684342384,-2.7730140686035156
1772791700605468400,4.832468505859375,3.7470643520355225,-2.045705556869507,-2.3604907989501953
1772791700625568500,4.852568603515625,3.580883264541626,-3.5629069805145264,-1.4206620454788208
1772791700645669000,4.872669189453125,0.5299686193466187,-0.47763752937316895,-1.734382152557373
1772791700665770000,4.89277001953125,-1.9257301092147827,2.218810796737671,-2.776209831237793
1772791700685870800,4.912870849609375,-1.237303614616394,1.627589464187622,-2.3892529010772705
1772791700705971700,4.9329716796875,-0.21038953959941864,0.6238449811935425,-0.9476850628852844
1772791700726072600,4.953072509765625,-0.07456845045089722,0.38575854897499084,0.0011984214652329683
1772791700746173200,4.973173095703125,0.5326317548751831,-0.4390217363834381,-0.12823109328746796
1772791700766274000,4.993274169921875,1.395761489868164,-0.2763027250766754,-0.2683132588863373
1772791700786375000,5.013375,1.696432113647461,0.4155859351158142,0.4736427962779999
1772791700806475800,5.033475830078125,1.3177310228347778,0.48908910155296326,1.8933727741241455
1772791700826576600,5.05357666015625,0.5360938906669617,-0.22303955256938934,3.0558416843414307
1772791700846677500,5.073677490234375,-0.2775011360645294,-0.9847029447555542,3.171156406402588
1772791700866778400,5.0937783203125,-0.7858981490135193,-1.5543526411056519,2.5144214630126953
1772791700886879200,5.113879150390625,-0.8498139977455139,-1.655019998550415,1.6265242099761963
1772791700906980000,5.13397998046875,-0.6519412994384766,-1.2014840841293335,0.9359671473503113
1772791700927081000,5.1540810546875,-0.4282359480857849,-0.3415501117706299,0.5141227841377258
1772791700947181600,5.174181640625,-0.12703268229961395,0.20386481285095215,0.2419479787349701
1772791700967282400,5.194282470703125,0.16724637150764465,0.2912164032459259,-0.052331071346998215
1772791700987383300,5.21438330078125,0.36298853158950806,0.12077425420284271,-0.3141195774078369
1772791701007484200,5.234484130859375,0.5091959834098816,-0.25553008913993835,-0.4605933129787445
1772791701027585000,5.2545849609375,0.6892254948616028,-0.6081323027610779,-0.40093857049942017
1772791701047686000,5.274685791015625,0.8151929378509521,-0.9117324352264404,-0.231827974319458
1772791701067786800,5.294786865234375,0.7781749963760376,-1.0488851070404053,-0.0858868733048439
1772791701087887600,5.3148876953125,0.6665886640548706,-1.1500850915908813,0.1189100444316864
1772791701107988200,5.33498828125,0.5123917460441589,-1.4704631567001343,0.288286954164505
1772791701128089300,5.35508935546875,0.4024032950401306,-2.016676902770996,0.010519477538764477
1772791701148190200,5.375190185546875,0.7344992160797119,-2.9328036308288574,-0.16764584183692932
1772791701168291300,5.395291259765625,1.9052238464355469,-5.191694736480713,0.7431544661521912
1772791701188392200,5.41539208984375,3.7798213958740234,-8.8950834274292,1.8390443325042725
1772791701208493300,5.435493408203125,5.661076545715332,-10.836259841918945,3.2968573570251465
1772791701228594400,5.455594482421875,6.4323272705078125,-3.3445279598236084,4.005524158477783
1772791701248695600,5.475695556640625,4.584095478057861,8.431960105895996,-4.097935676574707
1772791701268796700,5.495796630859375,0.16192005574703217,8.509724617004395,-11.502582550048828
1772791701288897800,5.515897705078125,-1.7305206060409546,0.09946898370981216,-8.96512508392334
1772791701308999000,5.5359990234375,-3.149451494216919,-2.921884775161743,-2.751708745956421
1772791701329100000,5.55610009765625,-3.46397066116333,-0.779639720916748,1.1447588205337524
1772791701349201000,5.576200927734375,-2.654902935028076,0.05339633300900459,2.528536081314087
1772791701369302000,5.596302001953125,-1.9768627882003784,-1.0006818771362305,2.94159197807312
1772791701389403100,5.616403076171875,-0.9765803217887878,-2.1530306339263916,2.665955066680908
1772791701409504300,5.636504150390625,0.03435475006699562,-2.170607566833496,1.5695326328277588
1772791701429605400,5.65660546875,0.7688539624214172,-1.3660672903060913,0.05153212323784828
1772791701449706500,5.67670654296875,1.284175157546997,-0.18761953711509705,-1.2768515348434448
1772791701469807600,5.6968076171875,2.026930093765259,1.1154640913009644,-2.298172950744629
1772791701489908700,5.71690869140625,2.566486120223999,1.9756643772125244,-3.226017475128174
1772791701510009900,5.737009765625,2.5494418144226074,1.9290590286254883,-3.6609113216400146
1772791701530110700,5.75711083984375,2.236520767211914,2.1554276943206787,-3.077679395675659
1772791701550211800,5.7772119140625,2.2213406562805176,2.193777084350586,-1.1532809734344482
1772791701570313000,5.79731298828125,2.1459734439849854,1.5833810567855835,1.4883062839508057
1772791701590414000,5.8174140625,1.9502311944961548,0.1386174112558365,4.176498889923096
1772791701610515200,5.83751513671875,1.8767280578613281,-1.682983160018921,6.167742729187012
1772791701650718500,5.877718505859375,1.4767215251922607,-4.116577625274658,6.9200849533081055
1772791701670821000,5.897821044921875,0.8002792000770569,-5.0875654220581055,7.657513618469238
1772791701690924000,5.917924072265625,1.3547488451004028,-6.2732038497924805,6.956836700439453
1772791701731129600,5.958129638671875,2.40722918510437,0.502138614654541,-5.483044624328613
1772791701751232300,5.978232177734375,1.9182733297348022,6.2505669593811035,-8.546209335327148
1772791701771335200,5.998335205078125,1.485509991645813,7.004240989685059,-4.950679302215576
1772791701811540500,6.03854052734375,2.130793333053589,2.2084243297576904,-0.5785712599754333
1772791701831643400,6.058643310546875,1.2759194374084473,2.622279405593872,-2.3652844429016113
1772791701851746000,6.07874609375,1.0077393054962158,2.943988800048828,-2.5043013095855713
1772791701871849000,6.098848876953125,0.8170571327209473,2.5479772090911865,-1.7162727117538452
1772791701891951600,6.11895166015625,0.6801707744598389,0.8941555619239807,-0.4573975205421448
1772791701912054500,6.139054443359375,0.7107970714569092,-0.8829703330993652,0.9700555801391602
1772791701932157200,6.1591572265625,0.6404896974563599,-1.7836506366729736,1.6709990501403809
1772791701952260000,6.179260009765625,0.727841317653656,-1.8792580366134644,1.747165322303772
1772791701972362800,6.19936279296875,0.9558076858520508,-1.5652716159820557,1.8520938158035278
1772791701992465400,6.21946533203125,1.2034814357757568,-1.2600735425949097,2.2244033813476562
1772791702012568300,6.239568359375,1.4514214992523193,-1.2345073223114014,2.3666160106658936
1772791702032671000,6.2596708984375,1.5595457553863525,-1.1788471937179565,2.207092761993408
1772791702052774000,6.27977392578125,1.3502215147018433,-0.8318376541137695,2.0385148525238037
1772791702072876500,6.29987646484375,0.3597927689552307,-0.052331071346998215,1.5985610485076904
1772791702092979500,6.3199794921875,-0.7091991901397705,-0.5335638523101807,0.13675320148468018
1772791702113082000,6.34008203125,-0.7584676146507263,-2.2984392642974854,-2.1964402198791504
1772791702133185000,6.36018505859375,-0.7360970973968506,-2.7005763053894043,-2.4494402408599854
1772791702153286700,6.38028662109375,-0.7653918266296387,0.03129211440682411,0.5753754377365112
1772791702173388000,6.400387939453125,-1.2386351823806763,2.9655604362487793,2.0454392433166504
1772791702193489400,6.420489501953125,-2.096971273422241,2.940793037414551,1.3519525527954102
1772791702213590800,6.4405908203125,-3.828557014465332,1.3138693571090698,0.856605052947998
1772791702233692400,6.4606923828125,-5.480780601501465,-0.6491449475288391,0.5554017424583435
1772791702253793800,6.480793701171875,-5.935648441314697,-1.3442294597625732,0.7466166019439697
1772791702273895200,6.500895263671875,-5.263999938964844,-1.2153325080871582,1.306146264076233
1772791702293996500,6.52099658203125,-4.645880699157715,-0.8930903077125549,1.3287830352783203
1772791702314098000,6.541097900390625,-4.913261890411377,-0.7285071015357971,0.38709014654159546
1772791702334199600,6.561199462890625,-5.360672473907471,-0.2744385302066803,-0.5636575818061829
1772791702354301000,6.581301025390625,-5.4309797286987305,0.9218524098396301,-0.7852323651313782
1772791702374402300,6.60140234375,-5.439768314361572,2.193244457244873,-0.4581964612007141
1772791702394503700,6.621503662109375,-5.1183247566223145,2.7668888568878174,0.079228974878788
1772791702414605000,6.64160498046875,-4.460258483886719,2.4137539863586426,0.6520744562149048
1772791702434706400,6.66170654296875,-3.735346555709839,2.012948513031006,0.8318376541137695
1772791702454808000,6.68180810546875,-3.765972852706909,2.010551691055298,0.17164058983325958
1772791702474909400,6.701909423828125,-4.315649032592773,2.6481120586395264,-0.30719536542892456
1772791702495010800,6.7220107421875,-4.916990280151367,2.5791361331939697,0.6020070314407349
1772791702515112200,6.7421123046875,-3.867971897125244,0.1572595238685608,1.6329158544540405
1772791702535213600,6.762213623046875,-1.217063546180725,-1.115197777748108,1.9815232753753662
1772791702555315000,6.78231494140625,0.8948213458061218,-0.9032102823257446,1.1982883214950562
1772791702575416600,6.80241650390625,1.0948245525360107,0.49761122465133667,-0.9082702994346619
1772791702595518000,6.82251806640625,0.9366329312324524,0.7599323391914368,-3.617501735687256
1772791702615619300,6.842619384765625,2.694051504135132,0.2683132588863373,-4.4968767166137695
1772791702635720700,6.862720703125,0.05459475517272949,-0.37670382857322693,-3.7426702976226807
1772791702655821600,6.882821533203125,-4.7311015129089355,-0.2960101068019867,-1.8478327989578247
1772791702675922400,6.90292236328125,-5.739639759063721,-0.10772477090358734,-2.056091785430908
1772791702696023300,6.923023193359375,-3.8370792865753174,0.977246105670929,-3.741605043411255
1772791702716124000,6.9431240234375,-3.037332534790039,2.3801982402801514,-4.798612594604492
1772791702736224800,6.963224853515625,-3.2386674880981445,2.3205435276031494,-4.887562274932861
1772791702756325600,6.98332568359375,-2.4831292629241943,-0.3085269629955292,-4.050797939300537
1772791702776426200,7.00342626953125,-1.0705899000167847,-2.3690128326416016,-3.3469247817993164
1772791702796527000,7.023527099609375,0.07962844520807266,-2.20096755027771,-3.3589091300964355
1772791702816628000,7.0436279296875,1.2556793689727783,-0.5791038870811462,-3.410574436187744
1772791702836728800,7.063728759765625,2.4386544227600098,1.129312515258789,-3.1674280166625977
1772791702856829400,7.083829345703125,3.395261287689209,1.5056167840957642,-2.9029762744903564
1772791702876930300,7.103930419921875,3.966508626937866,1.1120020151138306,-2.579935073852539
1772791702897031200,7.12403125,4.421908855438232,0.5695165395736694,-2.230794906616211
1772791702917131800,7.1441318359375,4.857335567474365,-0.20546270906925201,-1.593501091003418
1772791702937232600,7.164232666015625,5.831252574920654,-1.0640650987625122,-0.7538071274757385
1772791702957333500,7.18433349609375,7.3053107261657715,-2.9810068607330322,-0.18176059424877167
1772791702977434400,7.204434326171875,5.606215476989746,-4.745882034301758,-0.18948374688625336
1772791703017635800,7.2446357421875,-4.811529159545898,1.5895063877105713,-1.7511600255966187
1772791703037736700,7.26473681640625,-3.724161386489868,1.27871572971344,0.18335849046707153
1772791703057837600,7.284837646484375,-1.6165374517440796,0.8142607808113098,2.87954044342041
1772791703077938200,7.304938232421875,-1.3531509637832642,2.0030949115753174,1.8108148574829102
1772791703098039000,7.3250390625,-3.529484272003174,5.635110855102539,-1.0885661840438843
1772791703118140000,7.345139892578125,-6.29118013381958,6.760029315948486,1.6619442701339722
1772791703138240500,7.365240478515625,-7.466698169708252,5.112332820892334,6.169074058532715
1772791703158341000,7.385341064453125,-7.864307880401611,4.633230686187744,6.596244812011719
1772791703178441700,7.405441650390625,-7.170022487640381,5.368794918060303,4.625773906707764
1772791703198542300,7.425542236328125,-6.490384101867676,5.846831798553467,3.1391985416412354
1772791703218643200,7.445643310546875,-5.640570163726807,4.750675678253174,2.3386528491973877
1772791703238743600,7.46574365234375,-4.094074249267578,2.1021645069122314,1.9812569618225098
1772791703258844200,7.48584423828125,-2.290849208831787,0.11198582500219345,1.871534824371338
1772791703278945000,7.505945068359375,-1.250086784362793,-0.10905635356903076,1.6044200658798218
1772791703299045600,7.526045654296875,-0.8399602770805359,0.6339649558067322,1.1231871843338013
1772791703319146200,7.546146240234375,-0.20426428318023682,1.2848409414291382,0.4384891092777252
1772791703339246800,7.566246826171875,0.8090676665306091,0.9508808255195618,-0.3764374852180481
1772791703359347500,7.586347412109375,2.3632872104644775,-1.2100062370300293,-1.0805766582489014
1772791703379448000,7.606447998046875,4.380097389221191,-3.6696996688842773,-1.6662052869796753
1772791703399548700,7.626548583984375,5.647228240966797,-4.451602935791016,-1.771666407585144
1772791703419649300,7.646649169921875,6.600372791290283,-4.193542957305908,-1.794303297996521
1772791703439750000,7.66675,7.264031887054443,-3.6268227100372314,-1.921069622039795
1772791703479951000,7.706951171875,6.576937198638916,-3.850794553756714,-1.484311580657959
1772791703500051700,7.7270517578125,6.166810512542725,-4.324038028717041,-0.9828387498855591
1772791703520152300,7.74715234375,5.439501762390137,-5.870001316070557,0.05739107355475426
1772791703540253000,7.7672529296875,4.004591941833496,-5.7469635009765625,1.1740535497665405
1772791703560353500,7.787353515625,3.8400087356567383,-1.6156052350997925,-0.024634219706058502
1772791703580454100,7.8074541015625,5.417397499084473,0.5612607002258301,-3.3392016887664795
1772791703600554800,7.8275546875,5.384907245635986,-3.3261520862579346,-2.5205466747283936
1772791703620655400,7.8476552734375,3.4458611011505127,-5.178645610809326,0.199337437748909
1772791703640756000,7.867755859375,-0.7305044531822205,-1.957821249961853,-0.12743215262889862
1772791703660857000,7.887857177734375,-1.8255953788757324,0.9719198346138,-1.2808462381362915
1772791703680958000,7.9079580078125,-1.0106687545776367,-0.4312985837459564,-1.2195935249328613
1772791703701059000,7.92805908203125,-0.13342425227165222,-2.496311902999878,-0.9815071821212769
1772791703721160000,7.948159912109375,0.8583360910415649,-2.253964424133301,-1.5775221586227417
1772791703741261000,7.968260986328125,1.9848523139953613,-1.5026873350143433,-1.8086843490600586
1772791703781463000,8.008463134765625,3.0756821632385254,-2.059553861618042,-1.4901704788208008
1772791703801564000,8.02856396484375,2.655435562133789,-1.9013621807098389,-1.0829734802246094
1772791703821665000,8.0486650390625,2.058621644973755,-2.2944445610046387,-0.23981745541095734
1772791703841766000,8.068765869140625,2.001896381378174,-3.093658447265625,1.2046798467636108
1772791703861866800,8.08886669921875,2.198171377182007,-3.363436460494995,2.8124289512634277
1772791703881967900,8.1089677734375,2.61122727394104,-3.4161670207977295,3.7176365852355957
1772791703902068700,8.12906884765625,3.1782138347625732,-3.2270827293395996,3.9706366062164307
1772791703922169900,8.149169921875,3.852525472640991,-2.93786358833313,4.115246295928955
1772791703942270700,8.169270751953125,4.781701564788818,-2.5168182849884033,3.952260732650757
1772791703962371800,8.189371826171875,5.5271196365356445,-2.03505277633667,3.602588176727295
1772791703982472700,8.20947265625,6.125265121459961,-1.434776782989502,3.5336122512817383
1772791704002573800,8.22957373046875,6.359090805053711,-0.7572692036628723,3.6726291179656982
1772791704022674700,8.2496748046875,6.21128511428833,-0.36418697237968445,3.711245059967041
1772791704042775600,8.269775634765624,5.598492622375488,-0.5873596668243408,3.5434658527374268
1772791704062876700,8.289876708984375,4.604335308074951,-1.497094750404358,3.309108018875122
1772791704082977500,8.3099775390625,3.648793935775757,-1.5444989204406738,2.9852678775787354
1772791704103078700,8.33007861328125,3.0538442134857178,-0.4430164694786072,2.2662150859832764
1772791704123179500,8.350179443359375,2.218677520751953,0.11677951365709305,0.45180490612983704
1772791704143280400,8.3702802734375,1.1909645795822144,-0.865659773349762,-2.1953749656677246
1772791704163380700,8.390380615234376,0.3241064250469208,-1.4185315370559692,-3.578886032104492
1772791704183481000,8.410481201171875,-3.5667686462402344,-0.7551386952400208,-4.579434871673584
1772791704203581400,8.43058154296875,-7.258439540863037,1.189499855041504,-5.009801387786865
1772791704223681800,8.450681884765626,-8.249134063720703,4.617784023284912,-3.3099069595336914
1772791704243782000,8.470781982421874,-8.147135734558105,6.064678192138672,-1.4321136474609375
1772791704263882200,8.49088232421875,-8.149532318115234,5.181042194366455,-0.09467529505491257
1772791704283982600,8.510982666015625,-8.621710777282715,3.950662851333618,0.4544680416584015
1772791704304083000,8.5310830078125,-8.368976593017578,4.534693717956543,1.9274611473083496
1772791704324183300,8.551183349609374,-8.008118629455566,4.953075885772705,2.9333362579345703
1772791704344283600,8.57128369140625,-8.1386137008667,4.087549209594727,2.5647552013397217
1772791704364384000,8.591384033203125,-8.224367141723633,2.8670237064361572,1.6715316772460938
1772791704384484400,8.611484375,-8.253662109375,2.233191728591919,0.6499438881874084
1772791704404584700,8.631584716796874,-8.223301887512207,2.1493022441864014,-0.1290300488471985
1772791704424685000,8.65168505859375,-8.26644515991211,2.494447708129883,0.031558431684970856
1772791704444785200,8.67178515625,-8.902673721313477,2.6518404483795166,0.5759080648422241
1772791704484985900,8.71198583984375,-11.222551345825195,2.2502360343933105,0.09707213938236237
1772791704505086200,8.732086181640625,-11.203376770019531,2.2459750175476074,0.12423636019229889
1772791704525186600,8.7521865234375,-10.679533004760742,2.417482376098633,0.6414217948913574
1772791704545287000,8.772286865234374,-10.332523345947266,2.8515772819519043,0.7799060344696045
1772791704565387300,8.79238720703125,-10.175396919250488,3.405780553817749,1.1082735061645508
1772791704585487600,8.812487548828125,-10.299500465393066,2.587125539779663,1.9610170125961304
1772791704605588000,8.832587890625,-11.097116470336914,0.4653870165348053,2.5999088287353516
1772791704625688000,8.85268798828125,-11.554913520812988,-0.8475502729415894,2.7823352813720703
1772791704645788700,8.87278857421875,-10.176196098327637,-1.6441011428833008,3.079277276992798
1772791704665889500,8.8928896484375,-7.307707786560059,-1.7333168983459473,3.7365450859069824
1772791704685990100,8.912990234375,-2.979275703430176,-1.1133335828781128,4.1472039222717285
1772791704706091000,8.933091064453125,2.940659999847412,-0.6845649480819702,3.367431163787842
1772791704726191600,8.953191650390625,7.41077184677124,0.8337018489837646,0.7764439582824707
1772791704746292500,8.97329248046875,10.364748001098633,1.525856852531433,-1.7112126350402832
1772791704766393000,8.99339306640625,12.75946044921875,0.5769733786582947,-2.6244099140167236
1772791704786494000,9.013493896484375,14.533390045166016,-0.4384891092777252,-2.796449899673462
1772791704806594800,9.0335947265625,15.902520179748535,-2.283259153366089,-2.9035089015960693
1772791704826695400,9.0536953125,17.5672607421875,-4.46092414855957,-2.391383409500122
1772791704846796300,9.07379638671875,19.3206844329834,-6.281193256378174,-0.08482161164283752
1772791704866897000,9.09389697265625,20.373964309692383,-6.585858345031738,3.516035318374634
1772791704886997800,9.113997802734374,20.25039291381836,-5.623659133911133,5.4723920822143555
1772791704907098600,9.1340986328125,18.378992080688477,-4.458261013031006,3.1919291019439697
1772791704927199200,9.15419921875,17.521987915039062,-4.761594772338867,0.32397326827049255
1772791704947300000,9.174300048828124,17.160329818725586,-4.377034664154053,2.041710615158081
1772791704967400700,9.194400634765625,14.402362823486328,-3.235604763031006,4.322440147399902
1772791704987501600,9.21450146484375,12.50539493560791,-1.1777819395065308,2.945054054260254
1772791705007602200,9.234602294921874,11.805516242980957,1.5026873350143433,-1.6100126504898071
1772791705027703000,9.254703125,9.504814147949219,2.033987522125244,-5.039895057678223
1772791705047804000,9.274803955078125,6.404630661010742,0.8515450358390808,-4.775975704193115
1772791705067904500,9.294904541015624,3.6144392490386963,0.7940207719802856,-2.792987823486328
1772791705088005400,9.31500537109375,2.0074892044067383,1.6108115911483765,-0.9591366648674011
1772791705108106000,9.33510595703125,1.5456973314285278,3.0569069385528564,-0.4605933129787445
1772791705128206800,9.355206787109376,1.9286595582962036,4.639355659484863,-1.1924293041229248
1772791705148308500,9.37530859375,2.2868545055389404,5.377849578857422,-2.381263494491577
1772791705168410600,9.39541064453125,1.9052238464355469,4.740023136138916,-3.5700974464416504
1772791705188513000,9.415512939453125,1.2713919878005981,3.1743521690368652,-4.629235744476318
1772791705208615400,9.435615478515626,1.0620677471160889,1.2472903728485107,-6.1514973640441895
1772791705228717600,9.455717529296875,1.589905858039856,-0.16604794561862946,-7.399719715118408
1772791705248820000,9.475820068359376,2.31827974319458,-1.550890564918518,-5.397823333740234
1772791705268922400,9.49592236328125,1.5094784498214722,-3.2593069076538086,-1.3234567642211914
1772791705289024800,9.516024658203126,-0.039414748549461365,-3.115230083465576,1.8994979858398438
1772791705309127000,9.536126953125,-1.5126742124557495,-0.6621944308280945,3.2800796031951904
1772791705329229300,9.556229248046876,-3.3968591690063477,3.2055110931396484,4.2766337394714355
1772791705349331700,9.576331787109375,-5.638439655303955,6.04150915145874,4.666786193847656
1772791705369433900,9.596433837890626,-8.846214294433594,6.647111415863037,5.676656246185303
1772791705389536300,9.616536376953125,-11.95678424835205,5.134969711303711,6.861229419708252
1772791705409638700,9.636638671875,-14.361616134643555,2.2180118560791016,7.059900760650635
1772791705429740800,9.65674072265625,-14.984662055969238,0.03981422260403633,6.069738388061523
1772791705449843200,9.67684326171875,-14.035246849060059,-0.3836280405521393,4.4699788093566895
1772791705469945600,9.696945556640625,-15.496788024902344,1.7085494995117188,5.3376359939575195
1772791705490047700,9.7170478515625,-15.587601661682129,-6.1336541175842285,3.4739575386047363
1772791705510150100,9.737150146484375,-12.530295372009277,-1.6611453294754028,-1.8355822563171387
1772791705530252500,9.75725244140625,-9.251148223876953,6.866289138793945,-5.125648498535156
1772791705550354700,9.777354736328125,-6.778138637542725,8.736891746520996,-4.398606300354004
1772791705570457000,9.79745703125,-7.464301586151123,7.4058451652526855,-2.717620372772217
1772791705590559500,9.8175595703125,-9.17831039428711,4.963728427886963,-0.4243743419647217
1772791705610662000,9.837661865234375,-10.273667335510254,2.8071024417877197,1.558081030845642
1772791705630764000,9.857763916015625,-10.869949340820312,1.1373019218444824,2.578070878982544
1772791705650865700,9.87786572265625,-11.501916885375977,-0.33649012446403503,2.6803362369537354
1772791705670967000,9.897967041015624,-11.734676361083984,-1.8622138500213623,2.317880153656006
1772791705691068400,9.918068359375,-11.321087837219238,-3.1804773807525635,2.133057117462158
1772791705711169500,9.93816943359375,-10.644379615783691,-4.1280293464660645,1.6385084390640259
1772791705731271000,9.95827099609375,-9.080572128295898,-4.847881317138672,-0.018508953973650932
1772791705751372000,9.9783720703125,-6.808365345001221,-5.175982475280762,-2.469413995742798
1772791705771473400,9.998473388671876,-4.946551322937012,-3.565570116043091,-4.481696605682373
1772791705791574800,10.01857470703125,-3.5025863647460938,-0.8435555696487427,-5.832450866699219
1772791705811676000,10.038676025390625,-1.8104153871536255,1.359942078590393,-5.983451843261719
1772791705831777300,10.05877734375,-0.32943275570869446,1.4803168773651123,-3.707782745361328
1772791705851878700,10.078878662109375,1.0679266452789307,-1.298689365386963,-0.3285006284713745
1772791705871979800,10.098979736328126,2.0463712215423584,-3.443863868713379,1.4954968690872192
1772791705892081200,10.1190810546875,3.3348073959350586,-4.271040916442871,2.0425095558166504
1772791705912182500,10.1391826171875,4.973715305328369,-4.749077796936035,2.8750131130218506
1772791705932283600,10.15928369140625,6.877607822418213,-5.121387481689453,4.837494850158691
1772791705952385000,10.179385009765625,9.091757774353027,-5.14029598236084,7.414367198944092
1772791705972486400,10.199486328125,11.706713676452637,-3.8161733150482178,9.61546802520752
1772791705992587500,10.21958740234375,14.680130004882812,-1.0123997926712036,10.73106575012207
1772791706012689000,10.23968896484375,17.362462997436523,1.523992657661438,9.485772132873535
1772791706032790300,10.259790283203126,19.27328109741211,2.513089895248413,6.5304646492004395
1772791706052891400,10.279891357421874,19.05809783935547,1.8550232648849487,3.880621910095215
1772791706072992800,10.29999267578125,15.986942291259766,0.5378249287605286,3.283541679382324
1772791706093094100,10.32009423828125,12.686756134033203,-2.8499794006347656,4.6955485343933105
1772791706113195300,10.3401953125,10.531993865966797,-9.668731689453125,5.290764331817627
1772791706133296600,10.360296630859375,7.656048774719238,-14.320470809936523,8.175764083862305
1772791706153397200,10.380397216796876,3.8621129989624023,-13.09355354309082,11.899659156799316
1772791706173497600,10.40049755859375,3.23600435256958,-7.880420207977295,5.051346302032471
1772791706193598000,10.420597900390625,7.535408020019531,2.5442488193511963,-8.931835174560547
1772791706213698600,10.440698486328126,5.515934467315674,11.014691352844238,-13.988374710083008
1772791706233799000,10.460798828125,4.573442459106445,13.925790786743164,-10.028257369995117
1772791706253899300,10.480899169921875,5.414201736450195,12.822976112365723,-3.802058696746826
1772791706273999600,10.50099951171875,4.336155414581299,12.596075057983398,-1.4781862497329712
1772791706294100200,10.521100341796876,2.088449239730835,11.223483085632324,-2.007622241973877
1772791706314200600,10.54120068359375,-0.4492748975753784,7.7363433837890625,-3.275552272796631
1772791706334301000,10.561301025390625,-2.1435766220092773,4.4302978515625,-2.921085834503174
1772791706354401500,10.581401611328126,-2.5702145099639893,0.5127912163734436,-0.9173250794410706
1772791706374502000,10.601501953125,0.011185267008841038,-6.743251323699951,2.6571667194366455
1772791706394602200,10.621602294921875,2.792055606842041,-12.751070976257324,6.248702526092529
1772791706414702600,10.64170263671875,3.6485276222229004,-13.608874320983887,9.59975528717041
1772791706434803200,10.66180322265625,4.031489849090576,-10.084183692932129,11.323351860046387
1772791706454903600,10.681903564453124,4.778239727020264,-4.937097072601318,10.827205657958984
1772791706475004000,10.70200390625,4.675441741943359,-0.5751091241836548,7.906252861022949
1772791706495104300,10.722104248046875,2.865292549133301,0.7279744744300842,3.701124906539917
1772791706515204900,10.742204833984376,0.9017455577850342,1.2046798467636108,0.4262385666370392
1772791706535305200,10.76230517578125,-0.3747064471244812,1.0962892770767212,-1.7841832637786865
1772791706555405600,10.782405517578125,-1.1355708837509155,0.6187849640846252,-2.690988779067993
1772791706575506200,10.802506103515626,-1.4245235919952393,0.6446176171302795,-1.6345137357711792
1772791706595606500,10.8226064453125,-2.087383985519409,0.35566484928131104,-0.9732514023780823
1772791706615707000,10.842706787109375,-2.3829944133758545,0.4739091098308563,-0.8707197904586792
1772791706635807200,10.86280712890625,-2.1025638580322266,0.7298386693000793,-1.0582062005996704
1772791706655908600,10.88290869140625,-1.3028173446655273,0.7929555177688599,-0.8227829337120056
1772791706676009700,10.903009765625,-0.9701887369155884,0.9231839776039124,-0.27843326330184937
1772791706696111000,10.923111083984375,-1.1819099187850952,1.0917619466781616,0.27763429284095764
1772791706716218000,10.943218017578126,-1.7020248174667358,1.0962892770767212,0.4803006947040558
1772791706736319500,10.963319580078124,-2.281261920928955,0.5974797010421753,0.2376869171857834
1772791706756420900,10.9834208984375,-2.1608870029449463,0.7591333985328674,-0.005459475331008434
1772791706776522200,11.003522216796876,0.6253097057342529,-0.2227732390165329,-1.497094750404358
1772791706796623600,11.02362353515625,3.4421327114105225,-3.922433376312256,-4.359191417694092
1772791706816724700,11.043724853515625,2.073535442352295,-5.500887870788574,-5.298487663269043
1772791706836826000,11.063826171875,-1.4942984580993652,-4.642551422119141,-5.617001533508301
1772791706856927500,11.083927490234375,-4.576638221740723,-2.4339940547943115,-5.290231704711914
1772791706877028900,11.10402880859375,-6.202230453491211,0.06191844120621681,-3.0361342430114746
1772791706897130200,11.124130126953125,-6.384124279022217,2.114947557449341,-0.16258583962917328
1772791706917231400,11.1442314453125,-5.667468070983887,4.997817039489746,1.5916368961334229
1772791706937332700,11.164332763671876,-4.187018394470215,6.928074359893799,2.5610265731811523
1772791706957434000,11.18443408203125,-2.756103038787842,7.370158672332764,2.7450509071350098
1772791706977535500,11.204535400390625,-2.352368116378784,6.719815254211426,2.4401192665100098
1772791706997636900,11.224636962890624,-3.1289453506469727,4.701940059661865,2.2286643981933594
1772791707017738000,11.244738037109375,-4.857335567474365,2.037982225418091,2.2691445350646973
1772791707037839400,11.26483935546875,-6.445643424987793,0.5346291065216064,2.4537012577056885
1772791707057940700,11.284940673828125,-7.442996025085449,0.8203860521316528,1.2451598644256592
1772791707078042000,11.3050419921875,-7.8714985847473145,3.531748056411743,-0.8683229088783264
1772791707098143500,11.3251435546875,-8.226497650146484,7.600255966186523,-1.9391790628433228
1772791707118244600,11.34524462890625,-9.269657135009766,10.650904655456543,-0.5194491147994995
1772791707138346000,11.365345947265626,-10.456892967224121,10.433856964111328,2.9365320205688477
1772791707158446800,11.38544677734375,-11.417760848999023,7.895333766937256,5.438036918640137
1772791707178548000,11.4055478515625,-12.426831245422363,4.773046493530273,5.333374977111816
1772791707198648800,11.42564892578125,-12.065441131591797,2.0853865146636963,4.047069072723389
1772791707218750000,11.44575,-10.581528663635254,-0.02809632569551468,3.722696542739868
1772791707238850800,11.465850830078125,-9.706148147583008,-0.7639271020889282,4.138415813446045
1772791707258952000,11.485951904296876,-9.963676452636719,-0.8020102977752686,4.748811721801758
1772791707279052800,11.506052734375,-9.541032791137695,-0.8853671550750732,5.624191761016846
1772791707299154000,11.52615380859375,-7.689870834350586,-4.1418776512146,7.53633975982666
1772791707319254800,11.5462548828125,-3.8096487522125244,-9.930253028869629,10.49724006652832
1772791707339356000,11.56635595703125,1.8162742853164673,-10.849042892456055,14.263479232788086
1772791707359456800,11.586456787109375,6.3337907791137695,-6.272671222686768,14.732994079589844
1772791707379557600,11.6065576171875,10.420940399169922,-1.2161314487457275,11.696460723876953
1772791707399658800,11.62665869140625,14.5091552734375,2.8630287647247314,7.455113410949707
1772791707419759600,11.646759521484375,18.298030853271484,5.313933849334717,3.839609146118164
1772791707439860700,11.66686083984375,20.5316219329834,5.424188613891602,0.5061333179473877
1772791707459961600,11.686961669921875,20.363576889038086,3.9956703186035156,-1.5476948022842407
1772791707480062700,11.707062744140625,18.256486892700195,1.9993665218353271,-0.6547375917434692
1772791707500163600,11.72716357421875,15.157368659973145,-0.8424903154373169,2.637725591659546
1772791707520264700,11.7472646484375,12.666516304016113,-3.177281618118286,4.984234809875488
1772791707540365600,11.767365478515625,11.919233322143555,-4.744550704956055,4.4425482749938965
1772791707560466700,11.787466796875,12.489948272705078,-5.7325825691223145,2.7620952129364014
1772791707580567600,11.807567626953125,12.132019996643066,-6.708896636962891,2.7860636711120605
1772791707600668400,11.82766845703125,10.41588020324707,-7.340331554412842,4.944819927215576
1772791707620769500,11.84776953125,8.538886070251465,-7.480147361755371,7.044188022613525
1772791707640870700,11.86787060546875,7.6872076988220215,-5.916606903076172,7.090527057647705
1772791707660972000,11.887971923828125,7.35990571975708,-2.9189553260803223,5.161334991455078
1772791707681073400,11.908073486328124,6.466149806976318,-1.2760525941848755,2.8917911052703857
1772791707701175000,11.928175048828125,4.531098365783691,-0.3860248625278473,2.149035930633545
1772791707721276400,11.9482763671875,1.7073510885238647,1.229180932044983,2.637192964553833
1772791707741378000,11.9683779296875,-0.7057371139526367,3.810847043991089,2.5706140995025635
1772791707761479400,11.9884794921875,-2.5710134506225586,6.343245029449463,0.45846277475357056
1772791707781580800,12.008580810546874,-3.708448648452759,7.785611629486084,-2.792987823486328
1772791707801682400,12.028682373046875,-3.3388020992279053,8.62823486328125,-3.711245059967041
1772791707821783800,12.04878369140625,-3.533212900161743,7.284937858581543,-2.8670237064361572
1772791707841885400,12.068885498046875,-4.711394309997559,4.2987380027771,-1.6294537782669067
1772791707861986800,12.08898681640625,-6.199301242828369,1.3040157556533813,-0.5103943943977356
1772791707882088200,12.109088134765624,-6.987063407897949,-1.5791200399398804,-0.2520679831504822
1772791707902189800,12.12918994140625,-6.693849563598633,-3.6380081176757812,0.08748476952314377
1772791707922291200,12.149291259765626,-7.22914457321167,-5.980522632598877,0.8608660697937012
1772791707942392600,12.169392578125,-8.919717788696289,-8.022632598876953,1.146889328956604
1772791707962494200,12.189494140625,-9.878189086914062,-8.802938461303711,0.003595264395698905
1772791707982595600,12.209595703125,-10.240378379821777,-7.821830749511719,-1.9088190793991089
1772791708002697200,12.229697265625,-10.420940399169922,-6.166144847869873,-3.9818220138549805
1772791708022798600,12.249798583984376,-10.398303985595703,-4.0558576583862305,-5.846299171447754
1772791708042900000,12.26989990234375,-9.840638160705566,-1.4656693935394287,-6.667617321014404
1772791708063001600,12.290001708984375,-9.874460220336914,1.5828484296798706,-6.851641654968262
1772791708083103000,12.31010302734375,-10.212148666381836,3.888611316680908,-6.717418670654297
1772791708103204600,12.33020458984375,-10.323469161987305,5.099815845489502,-6.738990306854248
1772791708123306000,12.350305908203126,-10.066473960876465,5.410872936248779,-6.74191951751709
1772791708143407400,12.370407470703125,-9.440631866455078,5.470527648925781,-6.166144847869873
1772791708163508500,12.390508544921875,-8.87630844116211,5.365333080291748,-5.126713752746582
1772791708183609300,12.410609375,-9.10720443725586,5.157340049743652,-4.1948747634887695
1772791708203710500,12.43071044921875,-9.579915046691895,4.3733062744140625,-3.3208258152008057
1772791708223811300,12.450811279296875,-9.394558906555176,3.5610427856445312,-1.7080168724060059
1772791708243912400,12.470912353515626,-8.957268714904785,2.9221510887145996,0.26511746644973755
1772791708264013300,12.491013427734375,-9.40680980682373,2.9525110721588135,0.8797745108604431
1772791708284114400,12.511114501953125,-8.61238956451416,2.2536981105804443,0.9165260791778564
1772791708304215600,12.531215576171874,-5.4112725257873535,-1.538640022277832,1.940510630607605
1772791708324316400,12.55131640625,0.5829654932022095,-6.74937629699707,4.416449546813965
1772791708344417500,12.57141748046875,6.453898906707764,-8.142741203308105,7.331010341644287
1772791708364518400,12.591518310546874,10.198034286499023,-4.264649391174316,7.975494861602783
1772791708384619500,12.61161962890625,12.691816329956055,-0.2954774796962738,6.59837532043457
1772791708404720600,12.631720703125,14.57866382598877,2.0169432163238525,4.272905349731445
1772791708424821500,12.651821533203124,16.25565528869629,2.7626278400421143,1.9050906896591187
1772791708444922600,12.671922607421875,17.25327491760254,1.9421085119247437,-0.5410206913948059
1772791708465023500,12.6920234375,17.583240509033203,-0.36232274770736694,-1.8875137567520142
1772791708485124600,12.71212451171875,16.345670700073242,-2.48193097114563,-1.2257188558578491
1772791708505225700,12.732225830078125,13.035896301269531,-4.191679000854492,0.5002743601799011
1772791708525326600,12.75232666015625,11.028141021728516,-5.728587627410889,2.2590243816375732
1772791708545427700,12.772427734375,12.118171691894531,-6.710760593414307,3.497659683227539
1772791708565528600,12.792528564453125,13.088093757629395,-5.067325592041016,4.877442359924316
1772791708585629700,12.812629638671876,12.381558418273926,-0.7620629072189331,4.470511436462402
1772791708605730800,12.832730712890625,11.56157112121582,1.4222599267959595,0.6885597109794617
1772791708625831700,12.852831787109375,6.144972801208496,2.1351876258850098,-2.087517023086548
1772791708645932300,12.872932373046876,0.33182957768440247,3.2140331268310547,-2.5485098361968994
1772791708666032400,12.893032470703124,-1.7670059204101562,3.0425257682800293,-2.0473034381866455
1772791708686132500,12.913132568359375,-1.1688604354858398,2.668351888656616,-0.6882933974266052
1772791708706232600,12.933232666015625,-0.7906918525695801,2.109621286392212,0.42836910486221313
1772791708726332700,12.953332763671876,-1.276984691619873,1.9682074785232544,1.0321072340011597
1772791708746432800,12.973432861328124,-1.2418309450149536,2.027329683303833,1.4536852836608887
1772791708766532900,12.993532958984375,-0.2822948396205902,2.2670140266418457,1.2081420421600342
1772791708786633000,13.013633056640625,1.1843067407608032,2.4180150032043457,-0.23023007810115814
1772791708806733000,13.033733154296876,2.852775812149048,1.7551548480987549,-2.8726162910461426
1772791708826833200,13.053833251953124,4.920984745025635,-0.17643427848815918,-5.3727898597717285
1772791708846933200,13.073933349609375,6.986797332763672,-3.5826144218444824,-5.302748680114746
1772791708867033300,13.094033447265625,6.049098968505859,-6.658829212188721,-4.4132537841796875
1772791708887133400,13.114133544921875,2.3819291591644287,-7.523823261260986,-3.824695587158203
1772791708907233500,13.134233642578126,-2.5307998657226562,-5.553351879119873,-3.131208896636963
1772791708927333600,13.154333740234375,-8.012911796569824,-2.356229782104492,-1.5053504705429077
1772791708947433500,13.17443359375,-11.512036323547363,-0.6997449994087219,0.7087997198104858
1772791708967533600,13.194533447265625,-12.688620567321777,-1.0733861923217773,3.11043643951416
1772791708987633700,13.214633544921876,-11.920565605163574,-2.8981826305389404,3.90938401222229
1772791709007733800,13.234733642578124,-11.909379959106445,-3.6912713050842285,3.0403952598571777
1772791709027833900,13.254833740234375,-12.03614616394043,-4.069972515106201,2.260622262954712
1772791709047934000,13.274933837890625,-11.796462059020996,-4.167710304260254,1.7871127128601074
1772791709068034000,13.295033935546876,-11.203109741210938,-3.354381799697876,0.7080007791519165
1772791709088134100,13.315134033203124,-10.291510581970215,-1.4313147068023682,-1.0113345384597778
1772791709108234200,13.335234130859375,-9.46300220489502,0.8858997821807861,-3.451586961746216
1772791709128334300,13.355334228515625,-9.230508804321289,3.0087037086486816,-5.556814193725586
1772791709148435000,13.37543505859375,-9.367927551269531,4.548275947570801,-6.378132343292236
1772791709168536300,13.395536376953125,-9.832915306091309,5.108071804046631,-5.864941596984863
1772791709188637700,13.4156376953125,-10.15435791015625,4.941624164581299,-4.6382904052734375
1772791709208738800,13.43573876953125,-10.435054779052734,4.27556848526001,-3.312037467956543
1772791709228840200,13.455840087890625,-10.74238395690918,3.189798355102539,-2.2060275077819824
1772791709248941600,13.475941650390626,-10.795114517211914,2.020139217376709,-1.4411684274673462
1772791709269043000,13.49604296875,-10.616949081420898,0.8203860521316528,-0.7013428807258606
1772791709289144300,13.516144287109375,-9.995100975036621,0.290683776140213,0.05925528332591057
1772791709309245400,13.536245361328126,-9.086697578430176,0.18841849267482758,1.0012145042419434
1772791709329346800,13.556346923828125,-7.673625946044922,-0.8038744926452637,1.3719263076782227
1772791709349448200,13.5764482421875,-5.320192337036133,-2.954108953475952,1.117594599723816
1772791709369549600,13.596549560546874,-3.4242897033691406,-4.024698734283447,1.0398303270339966
1772791709389650700,13.616650634765625,-1.2903004884719849,-4.451070308685303,1.000415563583374
1772791709409752000,13.636751953125,1.1970899105072021,-4.341614723205566,1.392166256904602
1772791709429853400,13.656853515625,3.71883487701416,-3.877159833908081,2.027862310409546
1772791709449954800,13.676954833984375,5.607547283172607,-2.9626309871673584,2.523209810256958
1772791709470056000,13.697055908203126,7.4592413902282715,-1.952761173248291,2.6153550148010254
1772791709490157300,13.7171572265625,9.525320053100586,-1.3106735944747925,2.28166127204895
1772791709510258700,13.7372587890625,11.501117706298828,-1.4086778163909912,1.6382421255111694
1772791709530360000,13.757360107421874,13.20553970336914,-2.072070598602295,0.9910945296287537
1772791709550461200,13.777461181640625,14.508889198303223,-2.9027099609375,0.4022701382637024
1772791709570562600,13.7975625,15.794129371643066,-3.5778207778930664,1.1697925329208374
1772791709590664000,13.817663818359375,16.252193450927734,-2.8340003490448,1.9599517583847046
1772791709610765300,13.837765380859375,14.041504859924316,-1.7189358472824097,0.7958850264549255
1772791709630866400,13.857866455078126,12.000726699829102,-0.7199850082397461,-1.1167956590652466
1772791709650967800,13.8779677734375,11.616698265075684,-1.0952240228652954,-0.5649891495704651
1772791709671069200,13.898069091796875,9.009732246398926,-1.2558125257492065,-2.184722423553467
1772791709691170600,13.918170654296874,9.519993782043457,-2.9250805377960205,-2.4148192405700684
1772791709711272000,13.93827197265625,9.53171157836914,-4.003127098083496,-1.226251482963562
1772791709731373000,13.958373046875,9.046217918395996,-3.569298505783081,0.3964111804962158
1772791709751474400,13.978474365234375,8.171370506286621,-2.5146877765655518,0.7913576364517212
1772791709771575800,13.998575927734375,7.237133979797363,-1.407346248626709,-0.20493006706237793
1772791709791677200,14.01867724609375,4.739623546600342,-0.9708545207977295,-0.7000113129615784
1772791709811778600,14.038778564453125,0.5523391366004944,-2.1040287017822266,-0.611328125
1772791709831880000,14.0588798828125,-2.4485082626342773,-3.949863910675049,0.7285071015357971
1772791709851981000,14.07898095703125,-2.6317336559295654,-5.316863536834717,2.1708738803863525
1772791709872082400,14.09908251953125,-2.5917861461639404,-4.061983108520508,2.337054967880249
1772791709892183800,14.119183837890626,-1.4181320667266846,-1.4187978506088257,2.3319950103759766
1772791709912285200,14.13928515625,-0.6343644261360168,0.5218459963798523,1.461674690246582
1772791709932386600,14.159386474609375,-1.0157287120819092,1.2166640758514404,0.7330344915390015
1772791709952488000,14.179488037109374,-2.093775510787964,1.060336709022522,0.8539418578147888
1772791709972589000,14.199589111328125,-2.959035873413086,0.49441543221473694,1.0941587686538696
1772791709992690400,14.2196904296875,-3.5649044513702393,-0.6800376176834106,0.3069290518760681
1772791710012791800,14.239791748046875,-3.516967535018921,-2.752241373062134,-1.117594599723816
1772791710032893200,14.25989306640625,-3.0375988483428955,-4.749344348907471,-2.399106502532959
1772791710073096000,14.300095947265625,-4.332693099975586,-4.301667213439941,-3.5684995651245117
1772791710093197000,14.320197021484375,-6.001428604125977,-2.0736687183380127,-3.1834068298339844
1772791710113298400,14.34029833984375,-7.438468933105469,0.5495428442955017,-2.4382550716400146
1772791710133399800,14.36039990234375,-8.045402526855469,2.871018409729004,-1.5468957424163818
1772791710153501000,14.3805009765625,-7.539402484893799,4.196206092834473,-0.6909565329551697
1772791710173601800,14.400601806640625,-6.1721367835998535,4.218576908111572,-0.19534270465373993
1772791710193703000,14.420702880859375,-5.230710029602051,3.740007162094116,-0.09574055671691895
1772791710213803800,14.4408037109375,-5.070920467376709,2.6947171688079834,-0.03981422260403633
1772791710233905000,14.46090478515625,-5.263733386993408,1.3322452306747437,0.038216330111026764
1772791710254005800,14.481005859375,-5.615802764892578,0.058456335216760635,-0.5748428106307983
1772791710274107000,14.50110693359375,-7.0445876121521,1.4427663087844849,-3.52375864982605
1772791710294207700,14.521207763671875,-9.782048225402832,6.222603797912598,-6.074798583984375
1772791710314308900,14.541308837890625,-11.848926544189453,10.024263381958008,-3.5671679973602295
1772791710334409700,14.56140966796875,-12.91498851776123,9.982717514038086,1.6369105577468872
1772791710354510800,14.5815107421875,-13.513667106628418,6.008485794067383,3.418830156326294
1772791710374611700,14.60161181640625,-12.448935508728027,2.4065635204315186,2.257692813873291
1772791710394712800,14.621712890625,-10.84864330291748,-0.2779006361961365,1.573261022567749
1772791710414813700,14.641813720703125,-8.78203296661377,-0.6627270579338074,1.8896443843841553
1772791710434914600,14.66191455078125,-6.096236705780029,0.20200060307979584,2.0510318279266357
1772791710455015700,14.682015625,-3.8711676597595215,1.8619475364685059,1.3002872467041016
1772791710475116500,14.702116455078125,-2.419746160507202,5.40261697769165,-0.20253323018550873
1772791710495217700,14.7222177734375,3.586209774017334,5.603152751922607,-0.29387956857681274
1772791710515318500,14.742318603515624,14.136313438415527,1.7287895679473877,-0.7775092124938965
1772791710535419600,14.762419677734375,15.40371036529541,-3.2449257373809814,-3.149052143096924
1772791710555520500,14.7825205078125,11.210567474365234,-10.004289627075195,-2.688591957092285
1772791710575621600,14.80262158203125,9.466197967529297,-13.98358154296875,-0.8576703071594238
1772791710595722500,14.822722412109375,10.708028793334961,-14.032583236694336,2.100832939147949
1772791710615823600,14.84282373046875,12.346404075622559,-10.122000694274902,5.140562534332275
1772791710635924500,14.862924560546874,13.342159271240234,-4.409791469573975,6.375202655792236
1772791710656025000,14.883025146484375,13.193288803100586,0.5287702083587646,5.7099456787109375
1772791710676125400,14.90312548828125,12.199131965637207,2.9477174282073975,3.900861978530884
1772791710696225800,14.923225830078126,10.856367111206055,2.942657232284546,1.4454294443130493
1772791710716326100,14.943326171875,10.744247436523438,1.4411684274673462,-0.4352933168411255
1772791710736426500,14.963426513671875,11.689669609069824,-0.9759145379066467,-0.08269108086824417
1772791710756526800,14.98352685546875,11.332805633544922,-2.472609758377075,2.720816135406494
1772791710776627500,15.00362744140625,9.490965843200684,-2.482729911804199,3.039862632751465
1772791710796727800,15.023727783203125,9.180440902709961,-0.06857633590698242,-3.9288251399993896
1772791710816828200,15.043828125,5.5127387046813965,5.943238258361816,-7.363767147064209
1772791710836928500,15.063928466796876,2.3720755577087402,9.901225090026855,-6.79571533203125
1772791710857028900,15.08402880859375,1.0993520021438599,10.056221008300781,-3.6601123809814453
1772791710877129200,15.104129150390625,1.7563532590866089,6.2380499839782715,-2.0757992267608643
1772791710897229800,15.124229736328125,2.3686134815216064,0.5079975724220276,-3.4281511306762695
1772791710917330200,15.144330078125,2.49910831451416,-3.7892754077911377,-2.2334580421447754
1772791710937430500,15.164430419921874,1.4828468561172485,-4.010317802429199,0.556999683380127
1772791710957531000,15.18453076171875,-0.757668673992157,-1.110137701034546,2.224936008453369
1772791710977631200,15.20463134765625,-3.608313798904419,1.7351810932159424,4.460658073425293
1772791710997731600,15.224731689453124,-6.450703144073486,1.8494306802749634,7.226081848144531
1772791711017832200,15.244832275390625,-8.237150192260742,-0.9221187233924866,9.536638259887695
1772791711037932500,15.2649326171875,-9.228910446166992,-3.31976056098938,9.13929557800293
1772791711058033000,15.285032958984376,-8.89708137512207,-2.6316003799438477,6.336320400238037
1772791711078133200,15.30513330078125,-7.265896320343018,0.3524690568447113,3.088864803314209
1772791711098233600,15.325233642578125,-5.891173839569092,3.134937286376953,0.7293060421943665
1772791711118334000,15.345333984375,-5.358275413513184,4.5618577003479,-0.10639319568872452
1772791711138434300,15.365434326171876,-5.534043788909912,4.545346260070801,0.2685795724391937
1772791711158536200,15.3855361328125,-5.990242958068848,3.597261667251587,1.2592746019363403
1772791711178638000,15.40563818359375,-6.344443321228027,2.5533034801483154,2.2395834922790527
1772791711198739700,15.42573974609375,-6.595579147338867,1.880855917930603,2.7474477291107178
1772791711218841600,15.445841552734375,-6.756433963775635,1.7314527034759521,2.7554373741149902
1772791711238943200,15.465943115234374,-7.017423629760742,1.8025590181350708,2.3833940029144287
1772791711259045000,15.486045166015625,-7.368427753448486,2.0108180046081543,1.9780611991882324
1772791711279146800,15.506146728515626,-7.704784870147705,2.426004409790039,1.7695358991622925
1772791711299248600,15.52624853515625,-7.910114288330078,2.9035089015960693,1.7365126609802246
1772791711319350300,15.546350341796876,-8.06777286529541,3.246523857116699,1.7855148315429688
1772791711339452200,15.5664521484375,-8.136483192443848,3.2459912300109863,1.9421085119247437
1772791711359554000,15.586553955078125,-7.748993396759033,3.1674280166625977,2.3021676540374756
1772791711379655700,15.60665576171875,-7.209437370300293,3.1842057704925537,2.749844551086426
1772791711399757600,15.626757568359375,-6.748710632324219,3.383143901824951,3.4262869358062744
1772791711419859200,15.646859130859376,-6.99452018737793,3.264899492263794,4.080625057220459
1772791711439961000,15.666961181640625,-7.266695022583008,1.796700119972229,4.027894496917725
1772791711460062700,15.687062744140626,-6.291712760925293,0.6683197021484375,3.2848732471466064
1772791711480164600,15.70716455078125,-2.7893924713134766,-0.022503692656755447,2.072603464126587
1772791711500266200,15.727266357421875,3.9989993572235107,-3.3671648502349854,-0.0414121188223362
1772791711520368000,15.7473681640625,6.480796813964844,-4.536291599273682,-0.36525222659111023
1772791711540469800,15.7674697265625,6.2472381591796875,-3.165297508239746,0.583897590637207
1772791711560571600,15.787571533203124,6.872814178466797,-2.5413193702697754,0.7756450176239014
1772791711580673500,15.807673583984375,9.058734893798828,-3.424156427383423,-0.1596563756465912
1772791711600775200,15.827775146484376,11.377813339233398,-5.310205459594727,-0.9229176640510559
1772791711620877000,15.847876953125,12.876373291015625,-5.881719589233398,-0.9860345721244812
1772791711640978700,15.867978759765625,13.282771110534668,-5.096087455749512,-2.0299928188323975
1772791711661079300,15.888079345703124,12.9426851272583,-4.822847366333008,-3.6196322441101074
1772791711681180200,15.90818017578125,13.957348823547363,-4.556265354156494,-3.8643765449523926
1772791711701280800,15.92828076171875,12.126959800720215,-3.0126984119415283,-4.472375869750977
1772791711721381600,15.948381591796876,8.382292747497559,-0.5074648857116699,-5.166927337646484
1772791711741482500,15.968482421875,6.087981224060059,1.0970882177352905,-4.234555721282959
1772791711761583000,15.9885830078125,2.346242904663086,2.434792995452881,-3.7701008319854736
1772791711781684000,16.00868408203125,2.2381186485290527,1.943173885345459,-1.566603183746338
1772791711801784600,16.02878466796875,2.625608205795288,0.8843019008636475,0.4510059356689453
1772791711821885400,16.048885498046875,3.8730318546295166,0.18708691000938416,0.9149281978607178
1772791711841986300,16.068986328125,6.780402183532715,0.571647047996521,-1.1751188039779663
1772791711862087000,16.0890869140625,9.706415176391602,1.4177325963974,-5.370925426483154
1772791711882187800,16.109187744140623,10.032917976379395,0.133291095495224,-7.87030029296875
1772791711902288400,16.129288330078126,8.18655014038086,-3.706451177597046,-5.6407036781311035
1772791711922389200,16.14938916015625,3.025348424911499,-5.818868637084961,-0.7593997120857239
1772791711942490000,16.169489990234375,-2.494314432144165,-4.757333755493164,1.3447620868682861
1772791711962590700,16.1895908203125,-5.0711870193481445,-3.6137733459472656,0.5157207250595093
1772791711982691600,16.209691650390624,-4.552403450012207,-3.226816415786743,-0.08455529063940048
1772791712002792200,16.229792236328127,-3.091660976409912,-2.9288089275360107,-0.7285071015357971
1772791712022893000,16.24989306640625,-3.0362672805786133,-0.1543300598859787,-2.91469407081604
1772791712042993700,16.26999365234375,-4.285821437835693,6.345641613006592,-3.4989912509918213
1772791712063094500,16.290094482421875,-3.744933843612671,11.151311874389648,2.127464532852173
1772791712083195400,16.3101953125,-2.726275682449341,12.260784149169922,8.338483810424805
1772791712103296000,16.3302958984375,-3.718035936355591,11.348651885986328,10.418144226074219
1772791712123396900,16.35039697265625,-5.822197914123535,7.473489284515381,9.975260734558105
1772791712143498000,16.370498046875,-6.1577558517456055,4.874779224395752,9.320123672485352
1772791712163600000,16.390599853515624,-5.156141757965088,5.162133693695068,7.956852912902832
1772791712183702000,16.410701904296875,-4.337220668792725,6.759230136871338,5.892105579376221
1772791712203804200,16.43080419921875,-3.743868589401245,7.616767406463623,4.19860315322876
1772791712223906300,16.45090625,-3.3132357597351074,7.415699005126953,3.478484869003296
1772791712244008400,16.471008544921876,-3.1587727069854736,6.856435298919678,3.4262869358062744
1772791712264110600,16.491110595703127,-3.5012547969818115,6.180259704589844,3.6345460414886475
1772791712284212500,16.51121240234375,-3.7979307174682617,5.670530796051025,3.726158618927002
1772791712304314600,16.531314697265625,-3.956122398376465,5.743235111236572,3.2449257373809814
1772791712324416800,16.551416748046876,-3.237069606781006,6.175199508666992,2.730936288833618
1772791712344519000,16.571518798828127,-2.6431851387023926,6.2572245597839355,2.937330961227417
1772791712364621000,16.59162109375,-2.1963071823120117,5.018856048583984,3.556781768798828
1772791712384723200,16.61172314453125,-1.6889753341674805,2.870485782623291,4.232691287994385
1772791712404825300,16.631825439453124,-0.6641917824745178,1.168993592262268,4.061716556549072
1772791712424927200,16.65192724609375,0.2876211404800415,-0.03555316850543022,2.8302719593048096
1772791712445029400,16.672029296875,0.898017168045044,-1.2656662464141846,1.1551451683044434
1772791712465131500,16.692131591796876,1.5169352293014526,-2.1690096855163574,0.7335671186447144
1772791712485233700,16.712233642578123,1.750760555267334,-2.9309394359588623,0.9990840554237366
1772791712505335800,16.732335693359374,1.8311879634857178,-4.220440864562988,0.7032070755958557
1772791712525438000,16.75243798828125,2.9995157718658447,-5.153611660003662,-2.2781991958618164
1772791712545539800,16.772539794921876,3.98115611076355,-6.700640678405762,-6.31661319732666
1772791712565642000,16.79264208984375,1.8543574810028076,-8.268708229064941,-5.392763614654541
1772791712585744100,16.812744140625,1.1070750951766968,-4.257458686828613,-1.327984094619751
1772791712605846300,16.83284619140625,1.4974942207336426,-0.5181175470352173,0.7807050347328186
1772791712625948400,16.852948486328124,1.5486268997192383,0.9711208343505859,0.5165196657180786
1772791712646050600,16.873050537109375,1.4737920761108398,1.157275676727295,-0.5543364882469177
1772791712666152400,16.89315234375,1.0580730438232422,0.6299701929092407,-1.6097463369369507
1772791712686254600,16.913254638671877,0.6471475958824158,0.0552605465054512,-3.075282573699951
1772791712706356700,16.933356689453124,0.4269043505191803,-0.05685843899846077,-4.874512672424316
1772791712726459000,16.953458984375,0.3997401297092438,-0.4203796088695526,-6.192243576049805
1772791712746561000,16.97356103515625,0.3573959171772003,-0.8073365688323975,-6.924612522125244
1772791712766663000,16.993662841796876,0.23622219264507294,-0.8962860703468323,-7.251381874084473
1772791712786765000,17.01376513671875,0.24181482195854187,-1.0073398351669312,-7.194124221801758
1772791712806867200,17.0338671875,0.4119906723499298,-1.4227925539016724,-6.54457950592041
1772791712826969300,17.05396923828125,0.8474171161651611,-2.1594223976135254,-5.923797130584717
1772791712847071500,17.074071533203124,1.4223930835723877,-2.460625648498535,-5.548824310302734
1772791712867173400,17.09417333984375,1.9105501174926758,-2.0800602436065674,-5.545895099639893
1772791712887275500,17.114275634765626,2.3646187782287598,-2.324005603790283,-4.684629440307617
1772791712907377700,17.134377685546873,2.642119884490967,-2.7312026023864746,-2.528536081314087
1772791712927479800,17.154479736328124,2.552637815475464,-2.668884515762329,0.09254477173089981
1772791712947582000,17.17458203125,1.622130036354065,-1.0784461498260498,1.9026938676834106
1772791712967683800,17.194683837890626,0.6530065536499023,-0.35806170105934143,3.3314785957336426
1772791712987786000,17.214785888671877,0.8918918967247009,-0.4323638379573822,3.6691670417785645
1772791713007888100,17.23488818359375,1.130510926246643,0.5221123099327087,4.554933547973633
1772791713027990300,17.254990234375,1.0471540689468384,1.8702032566070557,5.108870506286621
1772791713048092400,17.275092529296874,0.6775075793266296,0.5506080985069275,5.087831974029541
1772791713068194300,17.2951943359375,-0.32091063261032104,-0.8371639847755432,4.867055892944336
1772791713088296400,17.31529638671875,-0.7765771150588989,1.1306440830230713,4.810330390930176
1772791713108398600,17.335398681640626,-0.6319676041603088,2.8486478328704834,3.611110210418701
1772791713128500700,17.355500732421874,-0.6452834010124207,1.9964369535446167,2.7019078731536865
1772791713148602400,17.375602294921876,-0.36245590448379517,0.18815216422080994,2.133057117462158
1772791713168704000,17.3957041015625,-0.1105210930109024,-0.6291712522506714,1.4662021398544312
1772791713188805600,17.4158056640625,-0.3427485525608063,0.05099949240684509,0.619850218296051
1772791713208907300,17.4359072265625,-0.4609927833080292,1.0909630060195923,-0.33302801847457886
1772791713229009000,17.4560087890625,-0.10945582389831543,1.343430519104004,-0.7293060421943665
1772791713249110300,17.4761103515625,0.31664958596229553,0.8571376800537109,-0.3926827609539032
1772791713269212000,17.4962119140625,0.30945906043052673,0.10932266712188721,0.3117227256298065
1772791713289313500,17.5163134765625,0.07590002566576004,-0.13409005105495453,0.38229644298553467
1772791713309415200,17.536415283203127,0.18642111122608185,0.6571344137191772,-0.07789739221334457
1772791713329516500,17.5565166015625,0.3901527523994446,1.1783145666122437,-0.1916142702102661
1772791713349618200,17.5766181640625,0.3619232773780823,0.6672544479370117,0.36898064613342285
1772791713389821400,17.616821533203126,0.07696528732776642,-0.12183951586484909,1.3221251964569092
1772791713409923000,17.636923095703125,0.2516685128211975,-0.3492732644081116,0.7498123645782471
1772791713430024400,17.6570244140625,0.21758008003234863,-0.2611227333545685,0.4408859312534332
1772791713450126000,17.6771259765625,0.05832317844033241,-0.5127912163734436,0.65953129529953
1772791713470227700,17.697227783203125,-0.07190528512001038,-0.5149217844009399,1.2004188299179077
1772791713490329300,17.717329345703124,0.11717899143695831,-0.4973449110984802,1.6414378881454468
1772791713510431000,17.737430908203127,0.3608580231666565,-0.32397326827049255,1.6172032356262207
1772791713530532400,17.757532470703126,0.11238530278205872,-0.24780692160129547,0.7593997120857239
1772791713550634000,17.777634033203125,-0.2756369411945343,0.18841849267482758,-0.16737952828407288
1772791713570735600,17.797735595703124,-0.33475905656814575,0.6302365064620972,-1.2936294078826904
1772791713590837200,17.817837158203126,0.023968428373336792,0.5916207432746887,-0.7247786521911621
1772791713610938600,17.837938720703125,0.5044022798538208,0.008655265904963017,0.9849692583084106
1772791713631040300,17.858040283203124,0.5131906867027283,-0.17670059204101562,1.6667379140853882
1772791713651141400,17.878141357421875,0.24154850840568542,-0.14314478635787964,1.0992188453674316
1772791713671242000,17.898241943359373,-0.19547586143016815,-0.20706059038639069,0.22117534279823303
1772791713691342600,17.918342529296876,-0.24101586639881134,-0.13116057217121124,-0.3415501117706299
1772791713731543800,17.958543701171877,-0.3038664162158966,0.33356064558029175,-0.8163913488388062
1772791713751644400,17.97864453125,-0.18642111122608185,0.30240169167518616,-1.2124030590057373
1772791713771745300,17.998745361328126,-0.05699159950017929,0.24940481781959534,-1.1135998964309692
1772791713791846000,18.018845947265625,0.1339568942785263,0.08668582141399384,-0.7511439323425293
1772791713811946500,18.038946533203124,0.0378168560564518,0.11571425199508667,-0.5370259881019592
1772791713832047000,18.059047119140626,-0.1368863582611084,0.5351617336273193,-0.5961480736732483
1772791713852147700,18.079147705078125,-0.14674004912376404,1.048086166381836,-0.6781733632087708
1772791713872248300,18.099248291015623,-0.08575371652841568,1.3913673162460327,-0.5098617672920227
1772791713892349200,18.11934912109375,0.11265161633491516,1.129312515258789,-0.10586056113243103
1772791713912449800,18.13944970703125,0.5954822897911072,0.7860313057899475,0.40733012557029724
1772791713932550400,18.15955029296875,0.8197202682495117,0.9362334609031677,0.9253145456314087
1772791713952651000,18.179651123046874,0.9957550764083862,1.2930967807769775,1.4350430965423584
1772791713972751600,18.199751708984376,1.4069467782974243,1.0267808437347412,2.421743392944336
1772791713992852200,18.219852294921875,1.562475323677063,-0.5279712080955505,2.6105613708496094
1772791714012952800,18.239952880859374,0.9827055931091309,-0.03795001283288002,2.223604440689087
1772791714033053700,18.2600537109375,-0.03728422522544861,2.2603559494018555,1.6622105836868286
1772791714053154300,18.280154296875,-0.5933517813682556,3.599125862121582,1.933320164680481
1772791714073255000,18.3002548828125,-0.48975491523742676,3.529883861541748,3.081141471862793
1772791714093355500,18.32035546875,-0.006125265266746283,2.650242567062378,3.4742238521575928
1772791714113456000,18.3404560546875,0.40932750701904297,2.449173927307129,2.610295057296753
1772791714133556700,18.360556640625,0.9805750846862793,1.8803232908248901,1.9005632400512695
1772791714153657900,18.380657958984376,1.1582077741622925,0.8459523916244507,1.6464979648590088
1772791714173758700,18.4007587890625,1.1672625541687012,0.16724637150764465,1.147421956062317
1772791714193859800,18.42085986328125,1.113999366760254,-0.30652958154678345,0.02756369300186634
1772791714213961000,18.4409609375,0.7590002417564392,-0.8599339723587036,-1.0185251235961914
1772791714234061800,18.461061767578126,0.3502053916454315,-1.304415225982666,-1.546363115310669
1772791714254163000,18.481162841796873,0.025566324591636658,-1.2713919878005981,-1.8504959344863892
1772791714274263800,18.501263916015624,-0.2660495638847351,-1.1552783250808716,-2.0275959968566895
1772791714294365000,18.521364990234375,-0.5081307291984558,-0.8303729295730591,-2.3469088077545166
1772791714314466000,18.541466064453125,-0.7677887082099915,-0.2929474711418152,-2.6124255657196045
1772791714334567000,18.56156689453125,-1.212802529335022,-0.10120003670454025,-2.4704792499542236
1772791714354668000,18.58166796875,-1.696432113647461,-0.43329593539237976,-2.1375844478607178
1772791714374769000,18.601768798828125,-1.8141437768936157,-0.8544744849205017,-1.536243200302124
1772791714394870000,18.6218701171875,-1.7249280214309692,-1.3895031213760376,-1.4387716054916382
1772791714414971100,18.64197119140625,-1.3691298961639404,-1.536243200302124,-1.7146748304367065
1772791714435072000,18.662072021484374,-0.9936245679855347,-1.6590148210525513,-1.8494306802749634
1772791714455173000,18.682173095703124,-0.5235770344734192,-2.6441171169281006,-1.4297168254852295
1772791714475274000,18.70227392578125,-0.40986013412475586,-4.749077796936035,-1.4305157661437988
1772791714495375000,18.722375,-1.1848393678665161,-5.652421474456787,-2.849713087081909
1772791714515476200,18.742476318359376,-2.038914442062378,-3.1421279907226562,-4.121371269226074
1772791714535577000,18.7625771484375,-2.593384027481079,1.4419673681259155,-4.979175090789795
1772791714555678200,18.78267822265625,-2.578470468521118,3.2550458908081055,-3.6252248287200928
1772791714575779300,18.802779296875,-1.6972310543060303,2.5523715019226074,-0.4917522668838501
1772791714595880200,18.822880126953127,-0.778441309928894,1.0905635356903076,1.7261264324188232
1772791714615981300,18.842981201171874,-0.22264008224010468,-0.1560611128807068,1.529318928718567
1772791714636082200,18.863082275390624,0.3028011620044708,-0.28495800495147705,0.37617117166519165
1772791714656183300,18.883183349609375,0.5227780938148499,-0.18455690145492554,-0.1290300488471985
1772791714676284700,18.90328466796875,0.4135885536670685,-0.6471475958824158,-0.06271739304065704
1772791714696385800,18.9233857421875,0.05006738752126694,-1.2112046480178833,-0.22809955477714539
1772791714716487000,18.94348681640625,-0.3403517007827759,-1.0293108224868774,-0.9844366312026978
1772791714736588300,18.96358837890625,-0.560594916343689,-0.3320958912372589,-1.8688716888427734
1772791714756689400,18.983689453125,-0.5360938906669617,0.31025800108909607,-2.5692825317382812
1772791714776790500,19.00379052734375,-0.22556954622268677,0.7776423692703247,-3.007105827331543
1772791714796892000,19.023891845703126,0.17976321280002594,0.7667233943939209,-2.9144277572631836
1772791714816993000,19.043992919921877,0.6372938752174377,0.4588622748851776,-2.34664249420166
1772791714837094100,19.06409423828125,1.103613018989563,0.23169481754302979,-1.6052190065383911
1772791714857195500,19.084195556640626,1.5395721197128296,0.04527369886636734,-0.7641934156417847
1772791714877296600,19.104296630859373,1.9347848892211914,-0.43089908361434937,0.43023329973220825
1772791714897397800,19.124397705078124,1.971802830696106,-1.0825740098953247,1.7873790264129639
1772791714917499100,19.1444990234375,1.5028204917907715,-1.8045563697814941,3.328016519546509
1772791714957701400,19.184701416015624,1.4309152364730835,-1.083905577659607,4.350403308868408
1772791714977802800,19.204802734375,0.9659277200698853,-0.04767054319381714,3.6870102882385254
1772791714997904000,19.22490380859375,0.03488738089799881,0.6878939270973206,3.5397374629974365
1772791715018005000,19.2450048828125,-0.7435539364814758,2.7225472927093506,3.4180312156677246
1772791715038106000,19.265106201171875,-0.9350350499153137,4.333491802215576,3.6691670417785645
1772791715058207500,19.28520751953125,-0.6143907308578491,4.270641326904297,4.756268501281738
1772791715078308600,19.30530859375,-0.19973690807819366,3.413104295730591,5.448689937591553
1772791715098409700,19.32540966796875,0.22849902510643005,2.8692872524261475,4.720848560333252
1772791715118511000,19.345510986328126,1.0628666877746582,2.626673460006714,4.342679977416992
1772791715138612200,19.3656123046875,1.6311848163604736,1.3946962356567383,4.584494590759277
1772791715158713600,19.385713623046875,1.529984712600708,-0.13528846204280853,3.66650390625
1772791715178815000,19.40581494140625,1.2807130813598633,-1.1784477233886719,1.6992285251617432
1772791715198916400,19.425916259765625,0.7986813187599182,-2.2975070476531982,-0.1002679318189621
1772791715219017500,19.446017578125,0.3837611973285675,-2.9073705673217773,-1.5583473443984985
1772791715239119000,19.466119140625,0.039414748549461365,-2.576073408126831,-2.8587677478790283
1772791715259220200,19.48622021484375,-0.2822948396205902,-1.7813869714736938,-3.955190420150757
1772791715279321600,19.506321533203124,-0.4612590968608856,-0.9603350758552551,-4.774377822875977
1772791715299423000,19.526423095703127,-0.3904190957546234,-0.37870118021965027,-5.049215793609619
1772791715319524400,19.5465244140625,-0.5374254584312439,-0.27350640296936035,-4.671313762664795
1772791715339625700,19.566625732421876,-1.074318289756775,-0.8631297945976257,-4.095005989074707
1772791715359727000,19.58672705078125,-1.5094784498214722,-1.8391774892807007,-3.9157755374908447
1772791715379828500,19.606828369140626,-1.309741497039795,-2.9736831188201904,-4.022568225860596
1772791715399929900,19.626929931640625,-0.5992107391357422,-4.1404128074646,-4.040144920349121
1772791715420031200,19.64703125,-0.3225085437297821,-5.053343772888184,-4.00126314163208
1772791715440132600,19.667132568359374,-0.612526535987854,-5.672261714935303,-3.970902919769287
1772791715460234000,19.68723388671875,-0.6490117907524109,-6.301300048828125,-5.866539478302002
1772791715480335400,19.70733544921875,-0.4018706679344177,-5.4434967041015625,-6.947515487670898
1772791715500436700,19.727436767578126,-0.45193806290626526,-1.596563696861267,-3.616969108581543
1772791715540639200,19.76763916015625,-0.03195790573954582,-0.20985691249370575,0.28961852192878723
1772791715560740600,19.78774072265625,0.4426169991493225,1.8389111757278442,0.2270342856645584
1772791715580842000,19.807842041015626,0.518517017364502,2.623744010925293,-0.18176059424877167
1772791715600943400,19.827943359375,0.7105307579040527,2.0809922218322754,-0.874181866645813
1772791715621044700,19.848044677734375,0.9246487617492676,1.2109383344650269,-0.8238481879234314
1772791715641146000,19.86814599609375,1.1150646209716797,0.40027275681495667,-0.3271690607070923
1772791715661246700,19.888246826171876,1.1587404012680054,-0.16777899861335754,-0.17377111315727234
1772791715681347300,19.908347412109375,1.1944267749786377,-0.20160111784934998,-0.38229644298553467
1772791715701448000,19.928447998046874,1.0847046375274658,0.17496953904628754,-0.7700523734092712
1772791715721548500,19.948548583984376,0.8772445321083069,0.42370855808258057,-0.8089345097541809
1772791715741649200,19.968649169921875,0.7432876229286194,0.4466117322444916,-0.4845617413520813
1772791715761749800,19.988749755859374,0.5238433480262756,0.41225698590278625,-0.09041424095630646
1772791715781850400,20.008850341796876,0.14434321224689484,0.5507412552833557,0.09680582582950592
1772791715801951000,20.028950927734375,0.04527369886636734,0.9648624658584595,-0.001997369108721614
1772791715822051600,20.049051513671873,0.3043990433216095,1.5395721197128296,-0.18575532734394073
1772791715842152200,20.069152099609376,0.7020086646080017,1.9829879999160767,0.09946898370981216
1772791715862252800,20.089252685546874,1.054078221321106,2.0349197387695312,0.6941523551940918
1772791715882353400,20.109353515625,1.2341078519821167,1.7377110719680786,1.5322483777999878
1772791715902454000,20.1294541015625,1.4719278812408447,1.0181256532669067,2.443315029144287
1772791715922554600,20.1495546875,1.4309152364730835,0.09294424206018448,3.2193596363067627
1772791715942655200,20.1696552734375,0.9451550841331482,-0.33955276012420654,4.193542957305908
1772791715962755800,20.189755859375,0.3374222218990326,0.40559908747673035,5.479848861694336
1772791715982856400,20.2098564453125,-0.2884201109409332,1.6743279695510864,4.972250461578369
1772791716002957000,20.22995703125,-0.5787044167518616,3.2623696327209473,4.551471710205078
1772791716023057700,20.2500576171875,-0.6937528848648071,3.7577171325683594,5.90036153793335
1772791716043158300,20.270158203125,-0.5587307214736938,3.3867390155792236,7.59306526184082
1772791716063259000,20.2902587890625,-0.29454535245895386,2.6114935874938965,8.847679138183594
1772791716083359500,20.310359375,-0.40080541372299194,1.8847174644470215,8.450602531433105
1772791716103460000,20.330460205078126,-0.3938812017440796,2.0074892044067383,6.973082065582275
1772791716123560700,20.350560791015624,-0.021305270493030548,2.297240734100342,5.640437126159668
1772791716143661600,20.37066162109375,0.3219758868217468,1.4676668643951416,4.51392126083374
1772791716163763700,20.390763671875,0.7890939712524414,-0.1579253226518631,2.99165940284729
1772791716183865600,20.410865478515625,1.1201245784759521,-1.7441027164459229,0.9689903259277344
1772791716203967700,20.4309677734375,0.95847088098526,-2.8383946418762207,-0.9695229530334473
1772791716224069600,20.451069580078126,0.7965508103370667,-2.9688894748687744,-2.3474414348602295
1772791716244171800,20.471171875,0.7462170720100403,-2.9880642890930176,-3.446260690689087
1772791716264273700,20.491273681640624,0.751543402671814,-3.1454567909240723,-4.451336860656738
1772791716284375800,20.511375732421875,0.843156099319458,-3.586742401123047,-5.086234092712402
1772791716304478000,20.53147802734375,0.9382308721542358,-4.108987808227539,-5.288900375366211
1772791716324579800,20.551579833984373,0.9025444984436035,-4.2559943199157715,-5.387969970703125
1772791716344682000,20.571681884765624,0.8378297686576843,-4.1934099197387695,-5.509675979614258
1772791716364783900,20.591783935546875,0.6261086463928223,-4.096737384796143,-5.5733256340026855
1772791716384886000,20.611885986328126,0.6340981125831604,-3.923365592956543,-5.377849578857422
1772791716404988000,20.63198779296875,0.9787108898162842,-3.62615704536438,-4.6185832023620605
1772791716425090000,20.652090087890624,0.7078676223754883,-4.9750471115112305,-2.873415231704712
1772791716445192000,20.67219189453125,0.5366265177726746,-8.552468299865723,-0.6358291506767273
1772791716465294000,20.692294189453126,2.250102996826172,-12.073163986206055,-1.1705914735794067
1772791716485396000,20.71239599609375,3.6903390884399414,-11.026808738708496,-5.758681297302246
1772791716505498000,20.732498046875,3.725226640701294,-6.657098293304443,-8.228228569030762
1772791716525600300,20.752600341796875,2.1531639099121094,-2.616020917892456,-6.76801872253418
1772791716545702100,20.7727021484375,0.8713855743408203,-3.3835432529449463,-1.9021612405776978
1772791716565804300,20.79280419921875,-0.10572740435600281,-4.21737813949585,0.9687240123748779
1772791716585906200,20.81290625,0.11424951255321503,-2.2309281826019287,0.5964143872261047
1772791716606008300,20.83300830078125,0.6809697151184082,-0.43143174052238464,-0.6177197098731995
1772791716626110200,20.853110107421877,0.7177212834358215,-0.2197106033563614,-0.6675207614898682
1772791716646212400,20.87321240234375,0.39494645595550537,-0.5017391443252563,-0.3585943281650543
1772791716666314500,20.893314453125,-0.1957421749830246,-0.5070654153823853,-0.14207951724529266
1772791716686416400,20.91341650390625,-0.2282327115535736,-1.063931941986084,-0.08269108086824417
1772791716706518500,20.9335185546875,-0.08761792629957199,-1.4777867794036865,-0.11331740766763687
1772791716726620700,20.95362060546875,0.3411506414413452,-1.6743279695510864,-0.09387634694576263
1772791716746722800,20.973722900390626,1.1443593502044678,-1.6748605966567993,-0.31012484431266785
1772791716766825000,20.993824951171874,1.946769118309021,-1.301751971244812,-0.8773776888847351
1772791716807029000,21.034029052734375,2.6407883167266846,-0.8713855743408203,-1.8584853410720825
1772791716827131100,21.054131103515626,2.6200156211853027,-0.9856351017951965,-1.8749970197677612
1772791716847233300,21.0742333984375,2.4879229068756104,-0.9789772033691406,-1.8196032047271729
1772791716867335400,21.09433544921875,1.7773921489715576,-0.8958866000175476,-1.9269285202026367
1772791716887437300,21.114437255859375,1.0673940181732178,-1.140897274017334,-1.6965652704238892
1772791716907539500,21.13453955078125,0.6442180871963501,-1.847965955734253,-0.8110650181770325
1772791716927641600,21.1546416015625,0.19254638254642487,-2.0524964332580566,0.0810931846499443
1772791716947743700,21.17474365234375,0.34727591276168823,-1.0729867219924927,0.42197751998901367
1772791716987947800,21.21494775390625,-1.4823142290115356,1.9212027788162231,-0.9383640289306641
1772791717008050000,21.2350498046875,-2.022402763366699,3.1134989261627197,-0.11811109632253647
1772791717028152000,21.255152099609376,-1.3041489124298096,3.3228232860565186,1.6893748044967651
1772791717048254200,21.275254150390627,-0.26871272921562195,2.093775510787964,3.168226957321167
1772791717068356400,21.2953564453125,0.3134537935256958,0.44341593980789185,3.879556655883789
1772791717088458500,21.31545849609375,0.47777068614959717,-1.113466739654541,4.038813591003418
1772791717108560400,21.335560302734375,0.4886896312236786,-2.2780661582946777,4.175167083740234
1772791717128662500,21.35566259765625,0.47590649127960205,-3.114297866821289,4.557064056396484
1772791717148764200,21.37576416015625,0.32810115814208984,-3.2911317348480225,5.076646327972412
1772791717168865300,21.395865234375,0.2628537714481354,-2.6269397735595703,5.185569763183594
1772791717188966100,21.415966064453126,0.06231791526079178,-1.7342489957809448,4.5767717361450195
1772791717209067300,21.4360673828125,-0.1789642721414566,-0.7845665812492371,3.652122735977173
1772791717229168400,21.45616845703125,-0.4631233215332031,-0.31611695885658264,3.2531816959381104
1772791717249269500,21.47626953125,-0.5355612635612488,-0.06950844824314117,3.4055142402648926
1772791717269370600,21.49637060546875,-0.4245075285434723,0.2972085177898407,3.345593214035034
1772791717289471700,21.5164716796875,-0.2937464118003845,0.515587568283081,2.883535146713257
1772791717309572900,21.53657275390625,-0.5006738305091858,-0.3824295997619629,2.781536102294922
1772791717329673700,21.556673828125,-1.066328763961792,-1.4948310852050781,2.3237392902374268
1772791717349774800,21.57677490234375,-1.148087739944458,-1.219460368156433,1.432379961013794
1772791717369876000,21.5968759765625,-0.7819034457206726,0.0684431791305542,0.40200382471084595
1772791717389977000,21.61697705078125,-0.6708496809005737,1.7699353694915771,-0.737561821937561
1772791717410078200,21.637078125,-1.8160079717636108,1.5065488815307617,-1.4917683601379395
1772791717430179300,21.657179443359375,-2.7017745971679688,-0.4593949019908905,-1.58364737033844
1772791717450280200,21.6772802734375,-2.572345018386841,-0.6620612740516663,-1.3985579013824463
1772791717470381300,21.69738134765625,-2.447709321975708,2.1544954776763916,-0.6430196762084961
1772791717490482400,21.717482421875,-3.0727527141571045,5.339366912841797,0.45366910099983215
1772791717510583600,21.73758349609375,-4.105259418487549,6.404630661010742,1.918672800064087
1772791717530684700,21.7576845703125,-4.648809909820557,5.26959228515625,3.525090217590332
1772791717550785500,21.77778564453125,-4.396875381469727,4.675974369049072,4.2497358322143555
1772791717570886700,21.79788671875,-3.9880802631378174,5.568931579589844,4.2934112548828125
1772791717590987800,21.81798779296875,-4.090079307556152,6.203029632568359,4.8273749351501465
1772791717611089000,21.8380888671875,-4.256260395050049,5.435507297515869,5.457211971282959
1772791717651291000,21.878290771484377,-3.5233590602874756,3.6902060508728027,4.834831714630127
1772791717671392000,21.89839208984375,-2.8245463371276855,3.1679606437683105,3.7743618488311768
1772791717691492900,21.918492919921874,-2.2628860473632812,2.2584917545318604,2.760763645172119
1772791717711593700,21.93859375,-2.041843891143799,1.0369008779525757,2.08512020111084
1772791717731694800,21.95869482421875,-1.8455690145492554,-0.11917635798454285,1.8342506885528564
1772791717751795700,21.978795654296874,-1.6370437145233154,-0.9876324534416199,1.6014904975891113
1772791717771896800,21.998896728515625,-1.4058815240859985,-1.5915037393569946,1.3215925693511963
1772791717791997700,22.018997802734376,-1.2215909957885742,-1.9949722290039062,0.8076028823852539
1772791717812098600,22.0390986328125,-0.9387634992599487,-2.0823237895965576,0.04540685936808586
1772791717832199700,22.05919970703125,-0.7006770968437195,-2.155294418334961,-0.6400902271270752
1772791717852300500,22.079300537109376,-0.5560675859451294,-2.3339924812316895,-1.0544776916503906
1772791717872401400,22.0994013671875,-0.3182474672794342,-2.3622219562530518,-1.378051519393921
1772791717892502500,22.11950244140625,0.03861580416560173,-2.247173309326172,-1.5460968017578125
1772791717912603400,22.139603271484376,0.5842970609664917,-2.0221364498138428,-1.5082800388336182
1772791717932704300,22.159704345703126,2.163816452026367,-2.0500996112823486,-1.9676748514175415
1772791717952805000,22.17980517578125,4.210453987121582,-2.5955145359039307,-4.100332260131836
1772791717972906200,22.19990625,4.174501419067383,-4.4243059158325195,-6.170139312744141
1772791717993007000,22.220007080078126,3.1569085121154785,-4.323638439178467,-6.003159523010254
1772791718013108200,22.240108154296873,2.9289419651031494,-0.8820381760597229,-5.656948566436768
1772791718033209000,22.260208984375,2.4927165508270264,2.543316602706909,-5.692102432250977
1772791718053310000,22.28031005859375,1.5510237216949463,3.543332815170288,-5.101413726806641
1772791718093512000,22.320511962890624,1.0543445348739624,1.1789803504943848,-5.803422451019287
1772791718113612800,22.34061279296875,1.2309119701385498,0.9550087451934814,-5.724859237670898
1772791718133714000,22.3607138671875,0.9155939817428589,0.9616666436195374,-4.459326267242432
1772791718153815000,22.38081494140625,0.11851056665182114,0.0942758247256279,-2.4965782165527344
1772791718173916400,22.40091650390625,-0.48682543635368347,-1.383510947227478,-0.6336986422538757
1772791718194017800,22.421017822265625,-0.4982770085334778,-2.4908523559570312,0.8605997562408447
1772791718214119200,22.441119140625,-0.4162517189979553,-2.8120293617248535,1.8933727741241455
1772791718234220500,22.461220458984375,-0.7696529030799866,-2.1174776554107666,2.4984424114227295
1772791718254321700,22.48132177734375,-0.9635308384895325,-1.1811109781265259,2.478468656539917
1772791718294524400,22.5215244140625,-0.39361485838890076,0.54781174659729,1.154878854751587
1772791718314625800,22.541625732421874,-0.28495800495147705,1.7342489957809448,1.0922945737838745
1772791718334727200,22.56172705078125,-0.5131906867027283,3.1193578243255615,1.3639367818832397
1772791718354828500,22.58182861328125,-0.7235802412033081,3.1640989780426025,1.2179956436157227
1772791718374929700,22.6019296875,-1.0306425094604492,1.3978921175003052,0.5577986240386963
1772791718395031000,22.622031005859377,-1.3571457862854004,0.4881570041179657,-0.3716438114643097
1772791718415132400,22.64213232421875,-1.45062255859375,3.4796833992004395,-0.00918789766728878
1772791718435233800,22.66223388671875,-0.9989508986473083,1.8889786005020142,-0.6203828454017639
1772791718455335200,22.682335205078125,-0.13555479049682617,0.45140540599823,-0.5487438440322876
1772791718495538000,22.722537841796875,0.6519412994384766,3.250385284423828,2.9658267498016357
1772791718515639000,22.74263916015625,-0.03169158846139908,2.756901979446411,4.078494548797607
1772791718535740400,22.762740478515624,-0.3747064471244812,1.5986942052841187,4.821249485015869
1772791718555841800,22.782841796875,-0.26924535632133484,1.6580827236175537,5.04681921005249
1772791718575943200,22.802943115234374,0.12756530940532684,2.3783340454101562,4.8244452476501465
1772791718596044500,22.82304443359375,0.7874960899353027,2.976745843887329,4.050797939300537
1772791718616146000,22.84314599609375,0.7187865376472473,3.7618448734283447,2.8020424842834473
1772791718636247000,22.8632470703125,0.7406244874000549,3.317363739013672,1.8196032047271729
1772791718656347400,22.883347412109377,0.9174582362174988,1.327451467514038,1.581250548362732
1772791718676447700,22.90344775390625,0.866858184337616,0.5402217507362366,1.7756611108779907
1772791718696547800,22.9235478515625,0.7779086828231812,0.15379741787910461,1.7596821784973145
1772791718716648200,22.943648193359376,0.4346275329589844,-0.2299637645483017,1.779389500617981
1772791718736748500,22.96374853515625,0.164583221077919,-0.3093259036540985,1.7921726703643799
1772791718756848600,22.9838486328125,0.008788423612713814,-0.39960697293281555,1.722131609916687
1772791718776949000,23.003948974609376,-0.01704421639442444,-0.33662328124046326,1.6164042949676514
1772791718797049000,23.024049072265626,-0.032224223017692566,0.004793685860931873,1.3663336038589478
1772791718817149400,23.0441494140625,-0.12223898619413376,0.45726436376571655,0.7623292207717896
1772791718837249800,23.064249755859375,-0.28069692850112915,0.875380277633667,0.06511422991752625
1772791718857350000,23.084349853515626,-0.5067991018295288,0.8026760816574097,-0.32397326827049255
1772791718877450200,23.1044501953125,-0.5251749157905579,0.5110601782798767,-0.48003438115119934
1772791718897550300,23.12455029296875,-0.5099949240684509,0.40746331214904785,-0.5764407515525818
1772791718917650700,23.144650634765625,-0.3771032989025116,0.38029909133911133,-0.5061333179473877
1772791718937751000,23.1647509765625,-0.16165374219417572,0.3086601197719574,-0.17457005381584167
1772791718957851100,23.18485107421875,0.022370534017682076,0.17070847749710083,0.22064270079135895
1772791718977951500,23.204951416015625,0.10546109080314636,-0.017976321280002594,0.4707133173942566
1772791718998051600,23.225051513671875,0.1728390008211136,-0.029694220051169395,0.5652554631233215
1772791719018152000,23.24515185546875,0.19654111564159393,-0.054195281118154526,0.4779038429260254
1772791719038252300,23.265252197265625,0.09134634584188461,-0.004660528153181076,0.36951327323913574
1772791719058352400,23.285352294921875,-0.07776423543691635,0.18708691000938416,0.4504733085632324
1772791719078452700,23.30545263671875,-0.17044216394424438,0.4078627824783325,0.5428849458694458
1772791719098552800,23.325552734375,-0.18269269168376923,0.6440849304199219,0.4826975464820862
1772791719118653200,23.345653076171875,-0.13422320783138275,0.8520776629447937,0.30240169167518616
1772791719138753500,23.36575341796875,-0.10546109080314636,0.8475502729415894,0.09467529505491257
1772791719158855400,23.38585546875,-0.20133480429649353,0.3793669641017914,-0.11145319789648056
1772791719178957300,23.405957275390627,-0.26338639855384827,-0.5191828012466431,-0.5809680819511414
1772791719199059200,23.42605908203125,0.025832640007138252,-0.9343692660331726,-1.0187914371490479
1772791719219161000,23.4461611328125,0.3736411929130554,-0.8052060604095459,-1.0462219715118408
1772791719239263000,23.466262939453124,0.4631233215332031,-0.4864259660243988,-0.8076028823852539
