time,seconds_elapsed,z,y,x
1772790902528398600,0.080398681640625,0.5631574988365173,1.0610874891281128,-0.3710143566131592
1772790902548431600,0.100431640625,0.7716662883758545,1.1847208738327026,-0.44567999243736267
1772790902568464600,0.120464599609375,0.9067765474319458,0.9625820517539978,-0.4728904068470001
1772790902588497700,0.14049755859375,1.0405915975570679,0.668740451335907,-0.3851141631603241
1772790902608530400,0.160530517578125,1.1861443519592285,0.4876070022583008,-0.2604617476463318
1772790902628562400,0.1805625,1.3045099973678589,0.06158003583550453,-0.1834115982055664
1772790902648595500,0.200595458984375,1.544442892074585,-0.22500739991664886,0.05002238228917122
1772790902668628500,0.22062841796875,1.6341689825057983,0.08294709026813507,0.2947272062301636
1772790902688661500,0.24066162109375,1.6824650764465332,0.6861456632614136,0.5014771819114685
1772790902708694500,0.260694580078125,1.6926109790802002,1.718239426612854,0.6012843251228333
1772790902728727600,0.2807275390625,1.4881126880645752,2.6238014698028564,0.45940738916397095
1772790902748760600,0.300760498046875,1.0925929546356201,2.384591579437256,0.36063629388809204
1772790902768793600,0.320793701171875,0.6024051308631897,2.4765920639038086,0.3699546158313751
1772790902788826400,0.340826416015625,0.10686162114143372,3.217437744140625,0.3187420964241028
1772790902808858600,0.360858642578125,-0.9358982443809509,2.8332226276397705,0.0646653026342392
1772790902828891400,0.380891357421875,-1.5526533126831055,2.484023094177246,-0.10557247698307037
1772790902848924700,0.400924560546875,-1.6494066715240479,2.7889509201049805,-0.6740235090255737
1772790902868957400,0.42095751953125,-1.6462230682373047,2.7034008502960205,-1.6586859226226807
1772790902888990700,0.44099072265625,-1.5055736303329468,2.1984119415283203,-2.577854871749878
1772790902909023500,0.4610234375,-1.2709141969680786,1.6280455589294434,-2.890711545944214
1772790902929056800,0.481056884765625,-0.837493896484375,1.6790807247161865,-2.736588716506958
1772790902949089500,0.501089599609375,-0.7409086227416992,1.482345700263977,-2.307758092880249
1772790902969122600,0.52112255859375,-0.49363085627555847,1.374143123626709,-1.7790757417678833
1772790902989154600,0.541154541015625,0.16684673726558685,1.6635361909866333,-1.8067752122879028
1772790903009187600,0.5611875,0.6363702416419983,1.1378257274627686,-2.105559825897217
1772790903029220600,0.581220703125,0.8366352319717407,0.9498063921928406,-2.3484301567077637
1772790903049253400,0.60125341796875,1.1195247173309326,0.934655487537384,-2.2064061164855957
1772790903069286700,0.62128662109375,1.4607051610946655,1.077717661857605,-1.6659510135650635
1772790903089319400,0.6413193359375,1.5048397779464722,0.9791280627250671,-1.1087254285812378
1772790903109352700,0.661352783203125,1.413211703300476,1.1840792894363403,-0.9221970438957214
1772790903129385500,0.681385498046875,1.3575605154037476,1.71016526222229,-0.604109525680542
1772790903149418500,0.70141845703125,1.4377542734146118,1.8824105262756348,-0.30075204372406006
1772790903169450500,0.721450439453125,1.491640567779541,1.6399856805801392,-0.29065343737602234
1772790903189483500,0.7414833984375,1.531500220298767,1.5826911926269531,-0.34819188714027405
1772790903209516500,0.7615166015625,1.2891030311584473,1.6781730651855469,-0.34802454710006714
1772790903229549600,0.781549560546875,0.9530201554298401,2.2499020099639893,0.27361932396888733
1772790903249582600,0.80158251953125,0.6470450162887573,2.6574528217315674,0.7230808138847351
1772790903269615600,0.82161572265625,0.7429060339927673,3.4881491661071777,0.9809427261352539
1772790903289648600,0.841648681640625,0.7151982188224792,4.629299640655518,1.4505823850631714
1772790903309681400,0.861681396484375,0.35622382164001465,6.093136310577393,1.88358736038208
1772790903329715200,0.881715087890625,0.04300946369767189,7.043137550354004,2.2565205097198486
1772790903349747200,0.901747314453125,-0.08006291091442108,7.487583160400391,2.4795873165130615
1772790903369780200,0.9217802734375,-0.45622706413269043,7.767266273498535,2.642676830291748
1772790903389813200,0.941813232421875,-0.9185320734977722,7.207658290863037,2.8374874591827393
1772790903409846300,0.96184619140625,-1.6145168542861938,6.572986125946045,2.962653398513794
1772790903429879300,0.98187939453125,-2.681685209274292,5.104456424713135,2.9750232696533203
1772790903449912300,1.001912353515625,-3.9818758964538574,3.2650303840637207,2.899526596069336
1772790903469945000,1.021945068359375,-5.167797565460205,1.5899512767791748,2.6801483631134033
1772790903489978400,1.041978271484375,-6.246592998504639,-0.23281218111515045,2.0523476600646973
1772790903510010400,1.06201025390625,-6.986283779144287,-1.901434302330017,1.238260269165039
1772790903530043100,1.082043212890625,-7.57520055770874,-2.4630115032196045,0.6107898354530334
1772790903550076200,1.102076171875,-7.9101667404174805,-1.861612319946289,0.5390356183052063
1772790903570109200,1.122109130859375,-8.090777397155762,-0.6919665336608887,1.0911900997161865
1772790903590142200,1.14214208984375,-8.18320083618164,0.9435244798660278,1.838498830795288
1772790903610175200,1.16217529296875,-8.32582950592041,2.5344762802124023,3.3149054050445557
1772790903630208300,1.182208251953125,-7.86708402633667,3.178415060043335,5.319477558135986
1772790903650241000,1.202240966796875,-7.030249118804932,2.762620687484741,6.640567302703857
1772790903670273300,1.222273193359375,-5.963900566101074,1.4668041467666626,6.33981466293335
1772790903690306300,1.242306396484375,-5.120095252990723,0.02950173057615757,5.064136981964111
1772790903710339300,1.26233935546875,-4.09822416305542,-0.7458012104034424,3.5894296169281006
1772790903730372000,1.2823720703125,-2.467998743057251,-1.0916247367858887,2.3556203842163086
1772790903750405400,1.3024052734375,-0.78789222240448,-1.1834168434143066,1.5086188316345215
1772790903770438100,1.322438232421875,0.7122480869293213,-1.3959463834762573,0.6359589099884033
1772790903790471400,1.342471435546875,1.9005422592163086,-1.942185401916504,-0.5301806330680847
1772790903810504200,1.362504150390625,2.559664726257324,-2.765550374984741,-1.9500699043273926
1772790903830536200,1.3825361328125,2.617063283920288,-3.937985420227051,-3.4234113693237305
1772790903850569200,1.4025693359375,2.1439669132232666,-5.651686668395996,-4.4545979499816895
1772790903870602200,1.422602294921875,1.3896222114562988,-7.355555534362793,-4.855233192443848
1772790903890635300,1.44263525390625,0.550021767616272,-8.249814987182617,-4.712486743927002
1772790903910668000,1.46266796875,-0.18268530070781708,-8.271248817443848,-4.206573963165283
1772790903930701300,1.482701416015625,-0.5214269757270813,-7.6240081787109375,-3.4106619358062744
1772790903950734000,1.502734130859375,-0.43095895648002625,-6.44689416885376,-2.5255210399627686
1772790903970767400,1.522767333984375,-0.08456365764141083,-4.8920512199401855,-1.7908483743667603
1772790903990799000,1.542799072265625,0.1783636212348938,-3.4041428565979004,-1.1906336545944214
1772790904010832400,1.562832275390625,0.20600691437721252,-2.1662917137145996,-0.8757056593894958
1772790904030865200,1.582865234375,0.06398941576480865,-1.2521121501922607,-0.6932188272476196
1772790904050898400,1.6028984375,-0.19176839292049408,-0.5680782198905945,-0.4774269759654999
1772790904070931200,1.62293115234375,-0.4979136884212494,-0.1074465811252594,-0.17447690665721893
1772790904090964000,1.6429638671875,-0.8217378854751587,0.03619634360074997,-0.056989431381225586
1772790904110997200,1.662997314453125,-1.1786487102508545,-0.03495034947991371,-0.08784119039773941
1772790904131030000,1.683030029296875,-1.4562463760375977,-0.2913365960121155,-0.0634974017739296
1772790904151062300,1.703062255859375,-1.6629966497421265,-0.5190470218658447,0.05887143686413765
1772790904171095000,1.723094970703125,-1.8343664407730103,-0.754406750202179,0.11141417175531387
1772790904191128300,1.74312841796875,-1.9767409563064575,-0.8626047372817993,0.08988890051841736
1772790904211161000,1.7631611328125,-2.006406545639038,-0.6526287198066711,0.11707651615142822
1772790904231194400,1.7831943359375,-1.9142568111419678,0.09109722077846527,0.2701025903224945
1772790904251227100,1.80322705078125,-1.7496315240859985,0.9087772369384766,0.3697247803211212
1772790904271260200,1.82326025390625,-1.4751156568527222,1.2727704048156738,0.20976896584033966
1772790904291293200,1.843293212890625,-1.128177523612976,1.1917295455932617,-0.062385037541389465
1772790904311325200,1.8633251953125,-0.6882809996604919,0.8374403119087219,-0.37633439898490906
1772790904331358500,1.8833583984375,-0.2745644748210907,0.4289015233516693,-0.58009272813797
1772790904351391200,1.90339111328125,0.07458791881799698,0.049241114407777786,-0.6046914458274841
1772790904371424500,1.923424560546875,0.42862269282341003,-0.3095618784427643,-0.5561744570732117
1772790904391457300,1.943457275390625,0.773021399974823,-0.5272085666656494,-0.5120527148246765
1772790904411490600,1.963490478515625,1.0290939807891846,-0.512584924697876,-0.44319021701812744
1772790904431523300,1.9835234375,1.2298635244369507,-0.2451094537973404,-0.31953495740890503
1772790904451556000,2.00355615234375,1.4574213027954102,0.25631827116012573,-0.036482613533735275
1772790904471588400,2.02358837890625,1.7599180936813354,0.9251795411109924,0.26302284002304077
1772790904491621400,2.043621337890625,2.084916591644287,1.644668698310852,0.47045668959617615
1772790904511654400,2.063654296875,2.3965041637420654,2.1735589504241943,0.577167809009552
1772790904531687200,2.083687255859375,2.6787264347076416,2.5156664848327637,0.5455800890922546
1772790904551720400,2.103720458984375,2.8896260261535645,2.6950745582580566,0.4240005910396576
1772790904571753200,2.123753173828125,2.9933717250823975,2.695405960083008,0.1957923322916031
1772790904591786500,2.143786376953125,3.049166440963745,2.4681413173675537,-0.09938166290521622
1772790904611819300,2.1638193359375,3.0343105792999268,2.0728518962860107,-0.4749308228492737
1772790904631851500,2.1838515625,2.9817395210266113,1.5712169408798218,-0.8510891199111938
1772790904651884300,2.20388427734375,2.9456350803375244,0.9631379842758179,-1.138778805732727
1772790904671917300,2.223917236328125,2.841993808746338,0.30177411437034607,-1.2626898288726807
1772790904691950300,2.243950439453125,2.643291711807251,-0.29364460706710815,-1.209251880645752
1772790904711983000,2.263983154296875,2.4578981399536133,-0.8905646800994873,-1.0946592092514038
1772790904732016400,2.284016357421875,2.2975003719329834,-1.3976969718933105,-0.9576516151428223
1772790904752049200,2.304049072265625,2.114865779876709,-1.7908210754394531,-0.7881434559822083
1772790904772081400,2.324081298828125,1.8330700397491455,-1.9594690799713135,-0.6230277419090271
1772790904792114200,2.3441142578125,1.4781923294067383,-1.8963807821273804,-0.47647330164909363
1772790904812147500,2.3641474609375,1.1901183128356934,-1.740321159362793,-0.2725744843482971
1772790904832180200,2.38418017578125,0.9613941311836243,-1.456064224243164,-0.0449514165520668
1772790904852213500,2.404213623046875,0.8976303935050964,-0.9908234477043152,-0.12664851546287537
1772790904872246300,2.424246337890625,0.9054219126701355,-0.4880271553993225,-0.570442259311676
1772790904892279300,2.444279296875,0.7921832799911499,-0.14192615449428558,-0.8585790395736694
1772790904912312300,2.464312255859375,0.4030230641365051,0.0900023877620697,-0.7841842174530029
1772790904932344300,2.48434423828125,-0.30867689847946167,0.22470781207084656,-0.18826621770858765
1772790904952377300,2.50437744140625,-1.1065889596939087,0.42646828293800354,0.9113612174987793
1772790904972410400,2.524410400390625,-1.6231013536453247,0.5943923592567444,2.0115184783935547
1772790904992443400,2.544443359375,-1.829451084136963,0.5997372269630432,2.7556984424591064
1772790905012476200,2.56447607421875,-1.782716989517212,0.5131391882896423,2.6278598308563232
1772790905032509400,2.584509521484375,-1.7206614017486572,0.2407592535018921,1.850682020187378
1772790905052542200,2.604542236328125,-1.6619946956634521,0.05144746974110603,0.6518798470497131
1772790905072575200,2.6245751953125,-1.6020904779434204,-0.0782640129327774,-0.5592414140701294
1772790905092607200,2.644607177734375,-1.622808575630188,0.023791145533323288,-1.4434605836868286
1772790905112640300,2.66464013671875,-1.7245266437530518,0.39861035346984863,-2.0341548919677734
1772790905132673300,2.68467333984375,-1.815646767616272,0.7873042821884155,-2.41098952293396
1772790905152706300,2.704706298828125,-1.7871471643447876,0.9629861116409302,-2.5629146099090576
1772790905172739300,2.7247392578125,-1.6673386096954346,0.8491035103797913,-2.6422860622406006
1772790905192772400,2.7447724609375,-1.5284086465835571,0.3515063226222992,-2.735670328140259
1772790905212805400,2.764805419921875,-1.5788326263427734,-0.3066129982471466,-2.6209301948547363
1772790905232838400,2.78483837890625,-1.6525912284851074,-1.051187515258789,-2.2690210342407227
1772790905252870400,2.804870361328125,-1.7162171602249146,-1.6452504396438599,-1.752286672592163
1772790905272903200,2.824903076171875,-1.7313168048858643,-1.9991812705993652,-1.2418235540390015
1772790905292936400,2.8449365234375,-1.7383772134780884,-2.143260955810547,-0.7291622757911682
1772790905312969200,2.86496923828125,-1.7750986814498901,-2.069143295288086,-0.2016831785440445
1772790905333001700,2.885001708984375,-1.8528350591659546,-1.786428689956665,0.38378939032554626
1772790905353034500,2.905034423828125,-1.8865883350372314,-1.248085856437683,0.9893510937690735
1772790905373067500,2.925067626953125,-1.9170736074447632,-0.32923683524131775,1.6919752359390259
1772790905393099500,2.945099609375,-2.0339839458465576,0.8303239941596985,2.3842880725860596
1772790905413132500,2.965132568359375,-2.1669576168060303,1.697442650794983,2.951495409011841
1772790905433165600,2.98516552734375,-2.1524031162261963,2.0907230377197266,3.3172693252563477
1772790905453198600,3.005198486328125,-1.8967736959457397,2.1030077934265137,3.3664000034332275
1772790905473231600,3.025231689453125,-1.6359182596206665,1.7439124584197998,3.0514512062072754
1772790905493264600,3.0452646484375,-1.5211071968078613,0.9628821015357971,2.3496878147125244
1772790905513297700,3.065297607421875,-1.4262551069259644,-0.0828978642821312,1.1943169832229614
1772790905533330700,3.08533056640625,-1.2401515245437622,-0.9289608597755432,0.03367869183421135
1772790905553362700,3.10536279296875,-1.1121355295181274,-1.4310017824172974,-0.7363882064819336
1772790905573395500,3.1253955078125,-1.098328948020935,-1.6633211374282837,-0.8287478685379028
1772790905593428700,3.1454287109375,-0.8574914336204529,-1.5328962802886963,-0.708001971244812
1772790905613461500,3.16546142578125,-0.21499516069889069,-1.1708362102508545,-0.5614923238754272
1772790905633494500,3.18549462890625,0.6332112550735474,-0.7385460734367371,-0.30129730701446533
1772790905653527600,3.205527587890625,1.424980640411377,-0.2721819281578064,-0.1543947160243988
1772790905673560600,3.225560546875,1.9519984722137451,0.2351638674736023,-0.19362890720367432
1772790905693593600,3.245593505859375,2.131228446960449,0.8092352151870728,-0.27794498205184937
1772790905713625600,3.26562548828125,2.1877174377441406,1.359697699546814,-0.16388939321041107
1772790905733658600,3.28565869140625,2.213087797164917,1.9672521352767944,0.015220693312585354
1772790905753691600,3.305691650390625,2.177950382232666,2.6288671493530273,0.26573291420936584
1772790905773724700,3.325724609375,2.1412863731384277,3.2203333377838135,0.4861678183078766
1772790905793757700,3.3457578125,2.1775705814361572,3.639103412628174,0.6460464596748352
1772790905813790500,3.36579052734375,2.275191307067871,3.923962116241455,0.6923536658287048
1772790905833823700,3.38582373046875,2.450594425201416,4.0188164710998535,0.6617661118507385
1772790905853855500,3.40585546875,2.6874160766601562,3.9472649097442627,0.5713756680488586
1772790905873888500,3.425888427734375,2.917895555496216,3.790804624557495,0.33873891830444336
1772790905893921500,3.445921630859375,3.0586118698120117,3.5186431407928467,-0.01594259962439537
1772790905913954600,3.46595458984375,3.0782644748687744,3.0734214782714844,-0.4556340277194977
1772790905933987600,3.485987548828125,3.0438272953033447,2.4516067504882812,-0.9594700336456299
1772790905954020600,3.5060205078125,2.93572998046875,1.7046458721160889,-1.3774555921554565
1772790905974053600,3.5260537109375,2.8111040592193604,0.9484925866127014,-1.718599557876587
1772790905994086400,3.54608642578125,2.7057580947875977,0.2574060559272766,-1.978095293045044
1772790906014118700,3.56611865234375,2.6077868938446045,-0.4978161156177521,-2.138568878173828
1772790906034151700,3.586151611328125,2.4824085235595703,-1.1929901838302612,-2.293971300125122
1772790906054184700,3.606184814453125,2.3398027420043945,-1.8469507694244385,-2.415944814682007
1772790906074217500,3.626217529296875,2.114074230194092,-2.386930227279663,-2.460193634033203
1772790906094250800,3.646250732421875,1.7711851596832275,-2.8013594150543213,-2.3810431957244873
1772790906114283500,3.666283447265625,1.430593729019165,-3.11427903175354,-2.2353599071502686
1772790906134316800,3.68631689453125,1.083687424659729,-3.259439706802368,-2.1246767044067383
1772790906154349600,3.706349609375,0.6398826241493225,-3.2803540229797363,-1.9087677001953125
1772790906174381600,3.726381591796875,0.18409615755081177,-3.089038133621216,-1.7585409879684448
1772790906194414600,3.74641455078125,-0.20121298730373383,-2.7024707794189453,-1.6506606340408325
1772790906214447600,3.766447509765625,-0.6087204813957214,-2.2787842750549316,-1.2131356000900269
1772790906234480600,3.786480712890625,-1.0762938261032104,-1.6817086935043335,-0.3963213860988617
1772790906254513400,3.806513427734375,-1.573515772819519,-0.8873276114463806,0.66046541929245
1772790906274546700,3.826546630859375,-2.0563087463378906,-0.04101809859275818,1.9099676609039307
1772790906294579500,3.846579345703125,-2.488589286804199,0.7952393889427185,3.3854923248291016
1772790906314611700,3.86661181640625,-2.769850492477417,1.5045740604400635,4.760954856872559
1772790906334644500,3.88664453125,-2.774876356124878,1.9948112964630127,5.564473628997803
1772790906354677500,3.906677490234375,-2.8384201526641846,2.1004867553710938,5.784830093383789
1772790906374710500,3.92671044921875,-3.1035168170928955,1.745600938796997,5.56671667098999
1772790906394743600,3.94674365234375,-3.331969976425171,1.0860446691513062,4.8899030685424805
1772790906414776600,3.966776611328125,-3.4988973140716553,0.4808746874332428,3.6714718341827393
1772790906434809300,3.986809326171875,-3.4694771766662598,0.058409612625837326,1.9660247564315796
1772790906454838500,4.006838623046875,-3.1310136318206787,-0.3071199357509613,0.22231020033359528
1772790906474871600,4.02687158203125,-2.619504928588867,-0.6642908453941345,-1.3186347484588623
1772790906494904600,4.046904541015625,-1.9483673572540283,-1.1581372022628784,-2.4602744579315186
1772790906514937600,4.0669375,-1.0970396995544434,-1.526735782623291,-3.2284557819366455
1772790906534970600,4.086970703125,-0.35771921277046204,-1.6671433448791504,-3.630784034729004
1772790906555003600,4.107003662109375,0.0684511587023735,-1.7909746170043945,-3.7026238441467285
1772790906575036400,4.127036376953125,0.23784881830215454,-2.0963001251220703,-3.559208869934082
1772790906595068400,4.147068359375,0.23002251982688904,-2.472248077392578,-3.228731155395508
1772790906615101700,4.167101806640625,0.06438615173101425,-2.59242582321167,-2.84529185295105
1772790906635134500,4.187134521484375,-0.2671818137168884,-2.4972169399261475,-2.6320409774780273
1772790906655167500,4.20716748046875,-0.6547800898551941,-2.3194406032562256,-2.304004669189453
1772790906675200500,4.227200439453125,-1.0390114784240723,-2.0185775756835938,-1.8743970394134521
1772790906695233500,4.247233642578125,-1.3399800062179565,-1.5133740901947021,-1.4287914037704468
1772790906715266600,4.2672666015625,-1.5387402772903442,-0.8719807267189026,-1.0252630710601807
1772790906735299600,4.287299560546875,-1.6552367210388184,-0.19943483173847198,-0.5405703783035278
1772790906755331600,4.30733154296875,-1.843157410621643,0.38610386848449707,0.1750541478395462
1772790906775364600,4.327364501953125,-2.0961334705352783,0.8899582028388977,0.9182877540588379
1772790906795397600,4.347397705078125,-2.2392196655273438,1.2192776203155518,1.4232702255249023
1772790906815430700,4.3674306640625,-2.1031715869903564,1.3398739099502563,1.6850353479385376
1772790906835463400,4.38746337890625,-1.6900858879089355,1.3065170049667358,1.5839794874191284
1772790906855498500,4.40749853515625,-1.3138906955718994,1.1485531330108643,1.1403820514678955
1772790906875531500,4.427531494140625,-1.1182260513305664,0.7687106132507324,0.7318227887153625
1772790906895564500,4.447564453125,-1.1132560968399048,0.35426458716392517,0.27994000911712646
1772790906915597300,4.467597412109375,-1.0891590118408203,-0.04012871906161308,-0.16783082485198975
1772790906935629600,4.487629638671875,-0.8353322744369507,-0.4499000012874603,-0.5520496964454651
1772790906955662600,4.50766259765625,-0.31963855028152466,-0.8485015034675598,-0.8026595711708069
1772790906975695600,4.527695556640625,0.3509669899940491,-1.1949962377548218,-0.8725923299789429
1772790906995728400,4.547728271484375,0.9790853261947632,-1.4812088012695312,-0.8767911195755005
1772790907015761700,4.56776171875,1.4918726682662964,-1.5724519491195679,-0.9635104537010193
1772790907035794400,4.58779443359375,1.839137077331543,-1.4336405992507935,-0.9360170364379883
1772790907055827700,4.60782763671875,2.0517849922180176,-1.0728483200073242,-0.7325226068496704
1772790907075859500,4.627859375,2.1122703552246094,-0.4758073687553406,-0.46779415011405945
1772790907095892500,4.647892578125,2.089242696762085,0.30049875378608704,-0.1939789056777954
1772790907115925500,4.667925537109375,2.0654962062835693,1.056815266609192,-0.0034534032456576824
1772790907135958500,4.68795849609375,2.048142671585083,1.740407943725586,0.15436452627182007
1772790907155991600,4.707991455078125,2.0919101238250732,2.187227725982666,0.3286980390548706
1772790907176024300,4.7280244140625,2.197493553161621,2.4618101119995117,0.5196197032928467
1772790907196057600,4.7480576171875,2.4064993858337402,2.5825002193450928,0.7762061357498169
1772790907216090400,4.76809033203125,2.725219964981079,2.6256561279296875,1.0127239227294922
1772790907236122600,4.78812255859375,3.0410211086273193,2.708354949951172,1.0996066331863403
1772790907256155400,4.8081552734375,3.209688425064087,2.6830027103424072,1.1038984060287476
1772790907276188700,4.828188720703125,3.213547706604004,2.512474298477173,0.9827704429626465
1772790907296221400,4.848221435546875,3.116651773452759,2.1875433921813965,0.809262216091156
1772790907316254700,4.868254638671875,2.977607250213623,1.7454744577407837,0.6747037768363953
1772790907336288500,4.88828857421875,2.8680946826934814,1.1722137928009033,0.580953061580658
1772790907356321300,4.9083212890625,2.7885003089904785,0.48448261618614197,0.4493540823459625
1772790907376354600,4.9283544921875,2.5422534942626953,0.004779074341058731,0.19318966567516327
1772790907396386300,4.94838623046875,2.167111396789551,-0.47870397567749023,0.03837708756327629
1772790907416419600,4.968419677734375,1.7297098636627197,-0.8857263326644897,-0.05424848198890686
1772790907436452400,4.988452392578125,1.334997534751892,-1.2179981470108032,-0.11353407800197601
1772790907456485600,5.008485595703125,1.031480073928833,-1.5771198272705078,-0.25598612427711487
1772790907476518400,5.028518310546875,0.7574905157089233,-1.741675853729248,-0.5403552055358887
1772790907496551400,5.048551513671875,0.5325350165367126,-1.8706895112991333,-0.7688716650009155
1772790907516584400,5.06858447265625,0.36353036761283875,-1.8481720685958862,-1.1301865577697754
1772790907536617500,5.088617431640625,0.11490105092525482,-1.7106781005859375,-1.4095144271850586
1772790907556649500,5.1086494140625,-0.37857314944267273,-1.59696626663208,-1.2431399822235107
1772790907576682200,5.12868212890625,-0.9721915125846863,-1.3318536281585693,-0.7292681336402893
1772790907596715500,5.148715576171875,-1.4343231916427612,-0.8744922876358032,0.06151378154754639
1772790907616748300,5.168748291015625,-1.6390604972839355,-0.18419945240020752,0.8726959824562073
1772790907636781600,5.188781494140625,-1.6826286315917969,0.39734071493148804,1.6100178956985474
1772790907656814300,5.208814453125,-1.7577979564666748,0.8356671929359436,2.179170846939087
1772790907676847400,5.228847412109375,-1.9438494443893433,1.0186415910720825,2.436394691467285
1772790907696879400,5.24887939453125,-2.2351763248443604,0.9208955764770508,2.201308250427246
1772790907716912400,5.268912353515625,-2.6491289138793945,0.7306104898452759,1.4029430150985718
1772790907736945400,5.2889453125,-3.0947916507720947,0.5358992218971252,0.19321471452713013
1772790907756978400,5.308978515625,-3.335637092590332,0.4765748977661133,-0.9128162860870361
1772790907777011500,5.329011474609375,-3.3587725162506104,0.4784529209136963,-1.6559597253799438
1772790907797044500,5.34904443359375,-3.1263980865478516,0.5550126433372498,-2.03285813331604
1772790907817077500,5.369077392578125,-2.686737060546875,0.4755690097808838,-2.143117666244507
1772790907837109500,5.389109619140625,-2.1326677799224854,0.22016076743602753,-2.106076955795288
1772790907857142500,5.409142578125,-1.5754917860031128,-0.3269909918308258,-1.934147596359253
1772790907877175300,5.42917529296875,-1.1227242946624756,-0.9205037951469421,-1.6459176540374756
1772790907897208600,5.44920849609375,-0.784674882888794,-1.5397143363952637,-1.3225635290145874
1772790907917241300,5.469241455078125,-0.5779293775558472,-2.041862726211548,-1.0879155397415161
1772790907937274400,5.4892744140625,-0.502848207950592,-2.422564744949341,-0.9262418746948242
1772790907957307400,5.509307373046875,-0.5502757430076599,-2.6473076343536377,-0.80774986743927
1772790907977340400,5.52934033203125,-0.6563348770141602,-2.679527759552002,-0.6621845960617065
1772790907997372400,5.549372314453125,-0.8143928050994873,-2.502319812774658,-0.5129907131195068
1772790908017405400,5.569405517578125,-0.9869848489761353,-2.1772053241729736,-0.35909441113471985
1772790908037438500,5.5894384765625,-1.1849464178085327,-1.7021751403808594,-0.19906096160411835
1772790908057471500,5.609471435546875,-1.364235520362854,-1.186334490776062,-0.05746728181838989
1772790908077504500,5.62950439453125,-1.522505521774292,-0.6599971652030945,0.03759172931313515
1772790908097537500,5.64953759765625,-1.7143057584762573,-0.21588993072509766,0.18702158331871033
1772790908117570300,5.6695703125,-1.8546680212020874,0.0702500194311142,0.41840413212776184
1772790908137603600,5.689603515625,-1.96589994430542,0.2401832938194275,0.7368167042732239
1772790908157635300,5.70963525390625,-2.166619062423706,0.310982882976532,0.9352565407752991
1772790908177668400,5.72966845703125,-2.252424716949463,0.16268698871135712,0.7769485712051392
1772790908197701400,5.749701416015625,-2.038761854171753,-0.23221366107463837,0.5691788792610168
1772790908217734400,5.769734375,-1.5452494621276855,-0.8256500363349915,0.5516260266304016
1772790908237767400,5.789767333984375,-0.9976197481155396,-1.601019024848938,0.7236112356185913
1772790908257800400,5.809800537109375,-0.6473127603530884,-2.282444477081299,0.9269972443580627
1772790908277833500,5.82983349609375,-0.6245185136795044,-2.62760066986084,0.82833331823349
1772790908297865500,5.849865478515625,-0.7463597059249878,-2.5692529678344727,0.358298659324646
1772790908317898000,5.86989794921875,-0.7833601832389832,-1.9853938817977905,-0.37561169266700745
1772790908337931000,5.889930908203125,-0.7351431846618652,-0.9421632289886475,-1.0056943893432617
1772790908357964000,5.909964111328125,-0.5792361497879028,0.23405307531356812,-1.258713960647583
1772790908377996800,5.929996826171875,-0.3368705213069916,1.3127553462982178,-1.1645151376724243
1772790908398030000,5.950030029296875,0.052631303668022156,2.0502967834472656,-0.9046040773391724
1772790908418062800,5.970062744140625,0.5246551036834717,2.3525712490081787,-0.5482833981513977
1772790908438096100,5.99009619140625,0.9930017590522766,2.296613931655884,-0.1984536498785019
1772790908458128000,6.0101279296875,1.3613719940185547,2.050605058670044,0.0030345143750309944
1772790908478161200,6.0301611328125,1.5531452894210815,1.9236054420471191,0.08905524015426636
1772790908498194000,6.05019384765625,1.7186789512634277,1.8751765489578247,0.21049825847148895
1772790908518227200,6.070227294921875,1.9175041913986206,2.0519309043884277,0.2922322750091553
1772790908538260000,6.090260009765625,2.1010165214538574,2.341256856918335,0.3687361180782318
1772790908558293000,6.11029296875,2.251544237136841,2.749934673309326,0.4001978039741516
1772790908578326000,6.130325927734375,2.3788304328918457,3.1173202991485596,0.39352235198020935
1772790908598358000,6.15035791015625,2.4256248474121094,3.412086009979248,0.3071826994419098
1772790908618391000,6.17039111328125,2.4536218643188477,3.5912389755249023,0.1623014509677887
1772790908638423800,6.190423828125,2.504572629928589,3.6417624950408936,-0.10263887792825699
1772790908658457000,6.21045703125,2.4991164207458496,3.4887173175811768,-0.3083326816558838
1772790908678489900,6.23048974609375,2.494581699371338,3.1703646183013916,-0.5824072957038879
1772790908698523100,6.250523193359375,2.5511960983276367,2.725818395614624,-0.9161301851272583
1772790908718556000,6.270555908203125,2.669536828994751,2.122518301010132,-1.2377177476882935
1772790908738588200,6.290588134765625,2.8374500274658203,1.3130600452423096,-1.4902805089950562
1772790908758621000,6.310620849609375,2.9843218326568604,0.3658636510372162,-1.6753684282302856
1772790908778654200,6.330654296875,3.0196263790130615,-0.631399393081665,-1.6517524719238281
1772790908798687000,6.35068701171875,2.9263362884521484,-1.4375152587890625,-1.5826724767684937
1772790908818720000,6.370719970703125,2.8887217044830322,-1.6098695993423462,-1.446598768234253
1772790908838753000,6.3907529296875,2.876099109649658,-1.2007312774658203,-1.053718090057373
1772790908858786000,6.4107861328125,2.829257011413574,-0.5741061568260193,-0.5751909613609314
1772790908878818000,6.430818115234375,2.692209482192993,-0.022141844034194946,-0.0953245535492897
1772790908898850800,6.450850830078125,2.4015607833862305,0.4214273691177368,0.41565483808517456
1772790908918884000,6.470884033203125,1.9582170248031616,0.683091402053833,0.8610300421714783
1772790908938916900,6.490916748046875,1.5121095180511475,0.7181050777435303,1.1314516067504883
1772790908958950100,6.5109501953125,1.1136343479156494,0.5852367877960205,1.2162301540374756
1772790908978983000,6.53098291015625,0.8473609089851379,0.435776948928833,0.9213122725486755
1772790908999016000,6.551015869140625,0.6234955191612244,0.25160452723503113,0.162354975938797
1772790909019049000,6.571049072265625,0.35585859417915344,-0.2021353542804718,-0.36078476905822754
1772790909039081200,6.591081298828125,0.10240885615348816,-0.7655657529830933,-0.4425806701183319
1772790909059114000,6.611114013671875,-0.17379449307918549,-1.3120607137680054,-0.17329759895801544
1772790909079147000,6.63114697265625,-0.6675124764442444,-1.7810587882995605,0.2455546259880066
1772790909099180000,6.651179931640625,-1.3084774017333984,-2.1023497581481934,0.3885694146156311
1772790909119213000,6.671213134765625,-1.8893780708312988,-2.2699906826019287,0.31864312291145325
1772790909139246000,6.69124609375,-2.3402469158172607,-2.3588693141937256,0.2397180050611496
1772790909159279000,6.711279052734375,-2.5799171924591064,-2.4421725273132324,0.10403067618608475
1772790909179311000,6.73131103515625,-2.7069716453552246,-2.501288652420044,-0.16272297501564026
1772790909199343900,6.75134375,-2.886817693710327,-2.4422647953033447,-0.44457510113716125
1772790909219377200,6.771377197265625,-3.1124069690704346,-2.1388251781463623,-0.7161157727241516
1772790909239410000,6.791409912109375,-3.3167757987976074,-1.491622805595398,-1.0227956771850586
1772790909259443000,6.81144287109375,-3.483647584915161,-0.5552404522895813,-1.3594425916671753
1772790909279476000,6.83147607421875,-3.5769636631011963,0.37385424971580505,-1.5869909524917603
1772790909299509000,6.851509033203125,-3.5875203609466553,1.0271663665771484,-1.594221830368042
1772790909319541000,6.871541015625,-3.532510757446289,1.3250257968902588,-1.3128812313079834
1772790909339573800,6.89157373046875,-3.440703868865967,1.3285467624664307,-0.776081383228302
1772790909359607000,6.91160693359375,-3.237015962600708,1.1920738220214844,-0.19247156381607056
1772790909379639800,6.931639892578125,-2.899433135986328,0.9689198136329651,0.28563424944877625
1772790909399673000,6.951673095703125,-2.502808094024658,0.5625967383384705,0.7663271427154541
1772790909419705900,6.971705810546875,-2.0958855152130127,0.03109808638691902,1.154141902923584
1772790909439739000,6.99173876953125,-1.7461175918579102,-0.5452218651771545,1.2470428943634033
1772790909459772000,7.01177197265625,-1.5206745862960815,-1.0858505964279175,1.0874748229980469
1772790909479804000,7.031803955078125,-1.4346884489059448,-1.7116718292236328,0.7709473967552185
1772790909499837000,7.0518369140625,-1.4763458967208862,-2.3071348667144775,0.3458477556705475
1772790909519869700,7.07186962890625,-1.6336638927459717,-2.751281261444092,0.035574547946453094
1772790909539903000,7.091903076171875,-1.7668625116348267,-2.973804235458374,-0.13327714800834656
1772790909559935700,7.111935791015625,-1.7639424800872803,-2.8885741233825684,-0.39620572328567505
1772790909579969000,7.131968994140625,-1.6562403440475464,-2.372307538986206,-0.8356491327285767
1772790909600001800,7.152001708984375,-1.644448161125183,-1.6190844774246216,-1.0131299495697021
1772790909620034000,7.172033935546875,-1.4721271991729736,-0.8688433766365051,-0.9934062957763672
1772790909640066800,7.19206689453125,-1.112000584602356,-0.1231178417801857,-0.8439057469367981
1772790909660100000,7.21210009765625,-0.68062824010849,0.38505080342292786,-0.33512401580810547
1772790909680132900,7.2321328125,-0.1302533745765686,0.6887426972389221,0.3965773284435272
1772790909700166000,7.252165771484375,0.49042582511901855,0.9067735075950623,1.0810043811798096
1772790909720199000,7.272198974609375,1.0831679105758667,1.1672701835632324,1.5393545627593994
1772790909740232000,7.29223193359375,1.6912050247192383,1.475484013557434,1.5587775707244873
1772790909760264000,7.312263916015625,2.164789915084839,1.9387109279632568,1.2890652418136597
1772790909780296700,7.332296630859375,2.492506265640259,2.2777099609375,0.9043610692024231
1772790909800330000,7.352330078125,2.8269481658935547,2.5324277877807617,0.4286603629589081
1772790909820362800,7.37236279296875,3.227926015853882,2.666243314743042,0.10605111718177795
1772790909840396000,7.39239599609375,3.713700532913208,2.6372177600860596,-0.01910378783941269
1772790909860428800,7.4124287109375,4.127562046051025,2.6244559288024902,-0.03318662568926811
1772790909880461800,7.4324619140625,4.252711296081543,2.478607177734375,-0.17116594314575195
1772790909900494800,7.452494873046875,4.081245422363281,2.1210579872131348,-0.5363717079162598
1772790909920527000,7.472527099609375,3.6501667499542236,1.356941819190979,-0.948749840259552
1772790909940560000,7.492559814453125,3.1312804222106934,0.29931047558784485,-1.3715423345565796
1772790909960593000,7.512593017578125,2.660517692565918,-0.736365020275116,-1.664375901222229
1772790909980626000,7.5326259765625,2.3047215938568115,-1.4802346229553223,-1.777715802192688
1772790910000659000,7.552658935546875,2.034618377685547,-1.8888630867004395,-1.6100116968154907
1772790910020692000,7.57269189453125,1.7452929019927979,-1.8290938138961792,-1.20771324634552
1772790910040725000,7.59272509765625,1.526313066482544,-1.4100676774978638,-0.7795519828796387
1772790910060757000,7.612757080078125,1.4840641021728516,-0.8276326656341553,-0.48174503445625305
1772790910080789800,7.632789794921875,1.5476914644241333,-0.2434423863887787,-0.25145384669303894
1772790910100823000,7.652822998046875,1.5891330242156982,0.2328115552663803,-0.09850677102804184
1772790910120855800,7.672855712890625,1.5233736038208008,0.4822651445865631,-0.027332738041877747
1772790910140888800,7.692888916015625,1.305295705795288,0.5300619602203369,-0.07899598032236099
1772790910160921900,7.712921875,0.9585844874382019,0.46968385577201843,-0.17436186969280243
1772790910180955000,7.732954833984375,0.5798785090446472,0.36648043990135193,-0.3486955165863037
1772790910200987000,7.75298681640625,0.28727632761001587,0.26280391216278076,-0.5532594323158264
1772790910221020000,7.77302001953125,0.11319967359304428,0.13893279433250427,-0.7434036135673523
1772790910241053000,7.793052978515625,0.036503974348306656,-0.06108551472425461,-0.9152569770812988
1772790910261086000,7.8130859375,-0.2364896833896637,-0.20240779221057892,-0.8996192216873169
1772790910281119000,7.833118896484375,-0.9003550410270691,-0.29605498909950256,-0.7688494920730591
1772790910301152000,7.853152099609375,-1.727448582649231,-0.4644847810268402,-0.6566446423530579
1772790910321184500,7.8731845703125,-2.6121623516082764,-0.558961033821106,-0.41635701060295105
1772790910341216500,7.893216552734375,-3.292660713195801,-0.6060574650764465,-0.22394217550754547
1772790910361249500,7.91324951171875,-3.621945858001709,-0.6373908519744873,-0.05791628733277321
1772790910381282600,7.933282470703125,-3.632549524307251,-0.5802115797996521,0.17928211390972137
1772790910401315300,7.9533154296875,-3.4104862213134766,-0.3904859125614166,0.43786144256591797
1772790910421348600,7.9733486328125,-3.0885961055755615,-0.20841632783412933,0.6180012822151184
1772790910441379600,7.993379638671875,-2.7767064571380615,-0.12837901711463928,0.6713502407073975
1772790910461412400,8.013412353515625,-2.559270143508911,-0.17254534363746643,0.6687209606170654
1772790910481444600,8.033444580078125,-2.4211692810058594,-0.32598116993904114,0.7141663432121277
1772790910501477400,8.053477294921874,-2.309413194656372,-0.5831056833267212,0.7011668682098389
1772790910521510700,8.0735107421875,-2.232248067855835,-0.9026625752449036,0.611283540725708
1772790910541543400,8.09354345703125,-2.138881206512451,-1.2614285945892334,0.4497242867946625
1772790910561576700,8.11357666015625,-1.9359108209609985,-1.61941397190094,0.2100038230419159
1772790910581609500,8.133609375,-1.625225305557251,-1.8829659223556519,-0.08307146281003952
1772790910601642500,8.153642578125,-1.3183066844940186,-2.0739309787750244,-0.4309321641921997
1772790910621674500,8.173674560546875,-1.103354811668396,-2.2038891315460205,-0.7978201508522034
1772790910641707500,8.19370751953125,-1.0174801349639893,-2.260693311691284,-1.079240322113037
1772790910661740500,8.213740478515625,-1.028084397315979,-2.2371110916137695,-1.237400770187378
1772790910681773300,8.233773193359376,-1.0332961082458496,-2.0755133628845215,-1.2400976419448853
1772790910701806600,8.253806640625,-0.9712717533111572,-1.8261321783065796,-1.0715028047561646
1772790910721839400,8.27383935546875,-0.8545882701873779,-1.5022543668746948,-0.727381706237793
1772790910741872600,8.29387255859375,-0.7503411769866943,-1.2217206954956055,-0.27923354506492615
1772790910761904400,8.313904296875,-0.7160322070121765,-1.0089726448059082,0.04840715229511261
1772790910781937700,8.333937744140625,-0.7454012036323547,-0.9450763463973999,0.21078522503376007
1772790910801970400,8.353970458984374,-0.8646965622901917,-0.996832549571991,0.17730940878391266
1772790910822003700,8.374003662109375,-1.0448647737503052,-1.063546061515808,-0.01746101677417755
1772790910842036500,8.394036376953125,-1.2214419841766357,-1.0969362258911133,-0.23086000978946686
1772790910862069500,8.414069580078126,-1.3393102884292603,-1.032724142074585,-0.3471947908401489
1772790910882103600,8.434103515625,-1.387122631072998,-0.8482378125190735,-0.30497094988822937
1772790910902136600,8.454136474609374,-1.342658519744873,-0.538858950138092,-0.11375829577445984
1772790910922168600,8.47416845703125,-1.2001512050628662,-0.09597068279981613,0.06860824674367905
1772790910942201600,8.49420166015625,-1.028166651725769,0.42939555644989014,0.22613447904586792
1772790910962234600,8.514234619140625,-0.84719318151474,1.0597426891326904,0.25913527607917786
1772790910982267600,8.534267578125,-0.6479402184486389,1.8143590688705444,0.26312631368637085
1772790911002300400,8.554300537109375,-0.44078317284584045,2.6008548736572266,0.3430633246898651
1772790911022333700,8.574333740234374,-0.16332769393920898,3.3834567070007324,0.5676952004432678
1772790911042366500,8.594366455078125,0.20893754065036774,4.087273597717285,0.9523336887359619
1772790911062399700,8.614399658203125,0.6995187997817993,4.6117682456970215,1.1430137157440186
1772790911082431500,8.634431396484375,1.2084201574325562,4.901872634887695,0.8905397057533264
1772790911102464500,8.654464599609375,1.7058489322662354,4.872946262359619,0.21404001116752625
1772790911122497500,8.67449755859375,2.0350372791290283,4.422759532928467,-0.5519728064537048
1772790911142530600,8.694530517578125,2.249314546585083,3.7256367206573486,-1.3475918769836426
1772790911162563600,8.7145634765625,2.4743690490722656,2.807537317276001,-2.1058263778686523
1772790911182596400,8.734596435546875,2.7155239582061768,1.7271925210952759,-2.682865619659424
1772790911202629600,8.754629638671876,2.9844186305999756,0.5677746534347534,-3.0676279067993164
1772790911222661400,8.774661376953125,3.2536778450012207,-0.5801376700401306,-3.2276031970977783
1772790911242694700,8.794694580078126,3.451367139816284,-1.6807142496109009,-3.1109113693237305
1772790911262727400,8.8147275390625,3.5574951171875,-2.6215450763702393,-2.8218634128570557
1772790911282760700,8.8347607421875,3.538799285888672,-3.328594446182251,-2.4426591396331787
1772790911302793500,8.85479345703125,3.352339267730713,-3.751943349838257,-1.9734184741973877
1772790911322827000,8.874826904296874,3.046226978302002,-3.8600549697875977,-1.4763013124465942
1772790911342860000,8.894860107421875,2.7033510208129883,-3.6969194412231445,-1.0204321146011353
1772790911362892000,8.91489208984375,2.430326223373413,-3.3160476684570312,-0.6825394630432129
1772790911382925000,8.934925048828125,2.2725741863250732,-2.761549711227417,-0.4751633107662201
1772790911402957800,8.954957763671874,2.166001081466675,-2.1085898876190186,-0.3696293234825134
1772790911422991000,8.9749912109375,2.0219650268554688,-1.418433666229248,-0.26651862263679504
1772790911443024000,8.99502392578125,1.7776801586151123,-0.7962754964828491,-0.14072947204113007
1772790911463057200,9.01505712890625,1.4517658948898315,-0.320160835981369,-0.019003981724381447
1772790911483090000,9.03508984375,1.1185367107391357,0.038989078253507614,0.09997116774320602
1772790911503123000,9.055123046875,0.8432983756065369,0.2403039038181305,0.33569732308387756
1772790911523155000,9.075155029296875,0.5704764723777771,0.3118944764137268,0.5909058451652527
1772790911543188000,9.09518798828125,0.3617420196533203,0.153639018535614,0.806874692440033
1772790911563221000,9.115220947265625,0.21598802506923676,-0.3436630070209503,1.0769084692001343
1772790911583254000,9.13525390625,0.06299975514411926,-1.1101763248443604,1.2364059686660767
1772790911603287000,9.155287109375,-0.16314193606376648,-2.054105520248413,0.9881128072738647
1772790911623320000,9.175320068359374,-0.5277292132377625,-3.009638786315918,0.28878381848335266
1772790911643353000,9.19535302734375,-0.9966849684715271,-3.84482741355896,-0.5996906161308289
1772790911663384800,9.215384765625,-1.4990280866622925,-4.347121238708496,-1.4075031280517578
1772790911683418000,9.235418212890625,-1.932072639465332,-4.676121711730957,-2.221984386444092
1772790911703451000,9.255450927734374,-2.2667555809020996,-4.39622163772583,-3.0755269527435303
1772790911723484200,9.275484130859375,-2.492600202560425,-3.6163463592529297,-3.9052417278289795
1772790911743517000,9.295516845703125,-2.4909510612487793,-2.0804202556610107,-5.110010623931885
1772790911763550000,9.315550048828126,-2.4926559925079346,-0.31516027450561523,-6.103761672973633
1772790911783583000,9.3355830078125,-2.780430316925049,1.2247356176376343,-6.175276756286621
1772790911803615000,9.355614990234375,-3.136260747909546,2.6980926990509033,-5.680785179138184
1772790911823648000,9.37564794921875,-3.4792568683624268,4.099123001098633,-4.725566387176514
1772790911843681000,9.395680908203126,-3.7443881034851074,5.33406400680542,-3.482011556625366
1772790911863714000,9.415714111328125,-3.864685297012329,6.078111171722412,-2.21467924118042
1772790911883747000,9.4357470703125,-3.9112110137939453,6.130829811096191,-0.9469236731529236
1772790911903780000,9.455780029296875,-3.7956244945526123,5.428629398345947,0.14004983007907867
1772790911923813000,9.475813232421874,-3.561110258102417,4.036113739013672,1.0340572595596313
1772790911943845000,9.49584521484375,-3.3380560874938965,2.305778980255127,1.6396782398223877
1772790911963878000,9.5158779296875,-3.201815366744995,0.5360914468765259,1.9162614345550537
1772790911983911000,9.535910888671875,-3.0946409702301025,-1.0873037576675415,1.9146078824996948
1772790912003944000,9.55594384765625,-2.81457781791687,-2.331303358078003,1.6533679962158203
1772790912023977000,9.57597705078125,-2.295707941055298,-3.14620041847229,1.3091447353363037
1772790912044010000,9.596010009765624,-1.5891578197479248,-3.5425808429718018,0.9596654176712036
1772790912064043000,9.61604296875,-0.8038526177406311,-3.5593369007110596,0.6696954369544983
1772790912084076000,9.636075927734375,-0.09732253104448318,-3.3537824153900146,0.5324762463569641
1772790912104108000,9.65610791015625,0.4768725335597992,-3.063758611679077,0.4510546326637268
1772790912124141000,9.67614111328125,0.8762966394424438,-2.7912609577178955,0.3040558695793152
1772790912144174000,9.696174072265626,1.0878394842147827,-2.577214002609253,0.11628887802362442
1772790912164207000,9.71620703125,1.0927852392196655,-2.4679341316223145,0.01839679852128029
1772790912184240000,9.736240234375,0.9023992419242859,-2.3328728675842285,0.012736445292830467
1772790912204273000,9.75627294921875,0.5264140367507935,-2.1666789054870605,0.12747305631637573
1772790912224306200,9.77630615234375,0.05096173286437988,-2.0392327308654785,0.2922767698764801
1772790912244338000,9.796337890625,-0.3141895532608032,-1.9075322151184082,0.42679837346076965
1772790912264371000,9.816370849609376,-0.4220321476459503,-1.5490459203720093,0.5188384056091309
1772790912284404000,9.836404052734375,-0.4840686321258545,-1.006335735321045,0.5033445358276367
1772790912304437000,9.85643701171875,-0.5950989723205566,-0.3722165822982788,0.3479376435279846
1772790912324469800,9.8764697265625,-0.6230795979499817,0.37580451369285583,0.1116892620921135
1772790912344502800,9.896502685546874,-0.3029114902019501,1.1879099607467651,-0.20040379464626312
1772790912364535800,9.916535888671875,0.5471091270446777,2.10227108001709,-0.8258482217788696
1772790912384567800,9.93656787109375,1.5098750591278076,2.8356611728668213,-1.5849699974060059
1772790912404600600,9.9566005859375,2.263522148132324,2.6433563232421875,-1.9608813524246216
1772790912424633900,9.9766337890625,2.822392702102661,1.1547614336013794,-1.8741363286972046
1772790912444666600,9.99666650390625,3.264697313308716,-0.671197235584259,-1.6108198165893555
1772790912464699600,10.01669970703125,3.843036651611328,-1.2047849893569946,-1.42845618724823
1772790912484732700,10.036732666015626,3.9871420860290527,-0.057418834418058395,-1.0588555335998535
1772790912504765700,10.056765625,3.641841411590576,0.9377570748329163,-0.7566338181495667
1772790912524797700,10.076797607421875,3.110785961151123,0.5322124361991882,-0.39409294724464417
1772790912544830700,10.096830810546875,2.500082492828369,-0.8135040402412415,-0.20508374273777008
1772790912564863700,10.11686376953125,1.8709790706634521,-2.1269421577453613,-0.11759430170059204
1772790912584896800,10.136896728515625,1.2388452291488647,-3.0344860553741455,0.20013591647148132
1772790912604929800,10.1569296875,0.6409143805503845,-3.464224100112915,0.5247046947479248
1772790912624962800,10.176962890625,0.14665158092975616,-3.450223684310913,0.773908257484436
1772790912644995600,10.19699560546875,-0.1909792274236679,-3.0604248046875,0.9921758770942688
1772790912665028900,10.21702880859375,-0.24212999641895294,-2.283412218093872,1.0840826034545898
1772790912685060900,10.237060791015624,0.1790888011455536,-1.0281063318252563,1.0030699968338013
1772790912705093600,10.25709375,1.0240532159805298,0.8042809367179871,0.9306302070617676
1772790912725126700,10.277126708984374,1.9453773498535156,2.7918412685394287,0.9747926592826843
1772790912745159700,10.29715966796875,2.5828258991241455,4.4452104568481445,0.9612641930580139
1772790912765192700,10.317192626953124,2.755277395248413,5.425624847412109,0.8015974760055542
1772790912785225700,10.337225830078125,2.619798421859741,5.668166160583496,0.5439824461936951
1772790912805258800,10.3572587890625,2.3947386741638184,5.070836544036865,0.21203646063804626
1772790912825290800,10.377290771484375,2.2411258220672607,3.710343360900879,-0.2520913779735565
1772790912845323800,10.39732373046875,2.195586681365967,1.70524263381958,-0.7958154678344727
1772790912865356800,10.417356689453126,2.1468262672424316,-0.564540684223175,-1.2536540031433105
1772790912885389800,10.437389892578125,1.9878736734390259,-2.640878915786743,-1.4361015558242798
1772790912905422600,10.457422607421876,1.5503654479980469,-4.033646583557129,-1.1768463850021362
1772790912925456000,10.477455810546875,0.8536387085914612,-4.547176361083984,-0.6910739541053772
1772790912945488600,10.497488525390626,-0.1470794975757599,-4.131091594696045,-0.1314079314470291
1772790912965520600,10.517520751953125,-1.137781023979187,-3.351417303085327,0.4348556697368622
1772790912985553700,10.5375537109375,-1.4926809072494507,-2.711806535720825,0.8618959188461304
1772790913005586700,10.557586669921875,-1.1929823160171509,-1.7816095352172852,1.123611569404602
1772790913025619700,10.57761962890625,-0.7023257613182068,-0.7246906757354736,1.3326689004898071
1772790913045652700,10.59765283203125,-0.43391963839530945,0.050390876829624176,1.2406346797943115
1772790913065685800,10.617685791015624,-0.44078144431114197,0.5933209657669067,0.3735058903694153
1772790913085718500,10.637718505859375,-0.8060539364814758,0.6565779447555542,-0.7085574865341187
1772790913105750800,10.657750732421874,-1.230486512184143,0.3233984410762787,-1.4469900131225586
1772790913125783800,10.67778369140625,-1.5474177598953247,-0.0451553575694561,-1.594948649406433
1772790913145816800,10.69781689453125,-2.0130858421325684,-0.36152681708335876,-1.314765453338623
1772790913165849600,10.717849609375,-2.69974946975708,-0.6775428056716919,-1.1236085891723633
1772790913185883000,10.7378828125,-3.5964083671569824,-0.9609882831573486,-1.25008225440979
1772790913205915600,10.75791552734375,-4.538548469543457,-1.2021875381469727,-1.6160928010940552
1772790913225949000,10.777948974609375,-5.296947956085205,-1.1785377264022827,-2.0051777362823486
1772790913245980700,10.797980712890626,-5.760294437408447,-0.7994824051856995,-2.1521427631378174
1772790913266013700,10.818013671875,-5.898056507110596,0.0937807708978653,-2.028318405151367
1772790913286046700,10.838046630859376,-5.542872905731201,1.055351734161377,-1.6420873403549194
1772790913306079700,10.858079833984375,-4.787776470184326,1.791060209274292,-0.9742772579193115
1772790913326113000,10.878113037109374,-3.6276183128356934,2.0319125652313232,-0.28916314244270325
1772790913346145800,10.898145751953125,-2.165452241897583,1.7096524238586426,0.030666282400488853
1772790913366179000,10.918178955078124,-0.7855926752090454,1.063400387763977,0.10555978864431381
1772790913386211800,10.9382119140625,0.2661117911338806,0.22559194266796112,-0.004295199178159237
1772790913406244000,10.958244140625,0.9254449605941772,-0.634271502494812,-0.18389572203159332
1772790913426276900,10.97827685546875,1.2008544206619263,-1.5266379117965698,-0.20903216302394867
1772790913446310100,10.99831005859375,1.112654685974121,-2.4092369079589844,-0.12163258343935013
1772790913466343000,11.018343017578125,0.7200161814689636,-3.0368001461029053,-0.07967763394117355
1772790913486376000,11.0383759765625,0.06934839487075806,-3.4452338218688965,0.06606485694646835
1772790913506409000,11.058408935546876,-0.6380165815353394,-3.5393612384796143,0.2308168262243271
1772790913526442000,11.07844189453125,-1.2109020948410034,-3.288581132888794,0.34209707379341125
1772790913546474000,11.098473876953125,-1.5233631134033203,-2.8001348972320557,0.40242868661880493
1772790913566506800,11.1185068359375,-1.5907331705093384,-2.1415464878082275,0.4848383069038391
1772790913586540000,11.1385400390625,-1.4839208126068115,-1.4224143028259277,0.5793119072914124
1772790913606572800,11.15857275390625,-1.340137243270874,-0.6715810894966125,0.6363354921340942
1772790913626606000,11.178606201171876,-1.319387674331665,0.12690573930740356,0.6084227561950684
1772790913646638800,11.198638916015625,-1.6730295419692993,0.8832712173461914,0.6136673092842102
1772790913666671900,11.218671875,-2.4389519691467285,1.008762001991272,0.5691438317298889
1772790913686703900,11.238703857421875,-2.6329526901245117,1.6493258476257324,0.6896200776100159
1772790913706737200,11.258737060546874,-2.2379331588745117,2.011049270629883,0.4984976053237915
1772790913726770000,11.27877001953125,-1.6793239116668701,1.8029645681381226,0.1341596096754074
1772790913746803000,11.298802978515624,-1.1090271472930908,1.092779278755188,-0.270967960357666
1772790913766836000,11.3188359375,-0.7196341156959534,-0.04632825404405594,-0.6446309685707092
1772790913786869000,11.338868896484374,-0.3972780108451843,-1.036934733390808,-0.8571324944496155
1772790913806902000,11.358902099609375,-0.028514325618743896,-1.6854218244552612,-0.9795071482658386
1772790913826933800,11.378933837890624,0.31062251329421997,-1.8444511890411377,-1.0215409994125366
1772790913846967000,11.398967041015625,0.5639022588729858,-1.6335465908050537,-0.863620936870575
1772790913866999800,11.418999755859375,0.8674513697624207,-1.2436974048614502,-0.6878957152366638
1772790913887033000,11.439033203125,1.279402256011963,-0.9467417597770691,-0.5413128733634949
1772790913907065900,11.45906591796875,1.7665141820907593,-0.7992241382598877,-0.5074099898338318
1772790913927099000,11.479098876953126,2.340273141860962,-0.7109751105308533,-0.415403813123703
1772790913947132000,11.4991318359375,2.958108901977539,-0.2504441440105438,-0.19982878863811493
1772790913967164200,11.5191640625,3.415426254272461,0.6568302512168884,0.2215750813484192
1772790913987197000,11.539197021484375,3.665222644805908,1.7470691204071045,0.694411039352417
1772790914007230000,11.55922998046875,3.79363751411438,2.7064616680145264,1.0872297286987305
1772790914027263000,11.579262939453125,3.8538999557495117,3.3142306804656982,1.3399149179458618
1772790914047296000,11.5992958984375,3.856919765472412,3.682100534439087,1.3952280282974243
1772790914067329000,11.6193291015625,3.707977771759033,3.803556442260742,1.3790438175201416
1772790914087362000,11.639362060546874,3.3894827365875244,3.7128493785858154,1.2982511520385742
1772790914107394000,11.65939404296875,2.9234628677368164,3.390850782394409,1.148579716682434
1772790914127426800,11.6794267578125,2.3478546142578125,2.850254535675049,0.7810034155845642
1772790914147460000,11.699460205078125,1.7702088356018066,2.1851491928100586,0.26361703872680664
1772790914167492900,11.719492919921874,1.3039790391921997,1.4997247457504272,-0.21245689690113068
1772790914187526000,11.73952587890625,1.011750340461731,0.8943876028060913,-0.5881054997444153
1772790914207559000,11.759558837890625,0.9082812070846558,0.34305521845817566,-0.8660936951637268
1772790914227592000,11.779592041015626,0.9742172360420227,-0.194438174366951,-1.088086724281311
1772790914247624000,11.7996240234375,1.1580278873443604,-0.7571160197257996,-1.2614431381225586
1772790914267657000,11.819656982421876,1.3924258947372437,-1.3690003156661987,-1.4319546222686768
1772790914287690000,11.83968994140625,1.578383207321167,-2.0352630615234375,-1.520486831665039
1772790914307723000,11.859722900390626,1.592857837677002,-2.5892810821533203,-1.4968831539154053
1772790914327756300,11.87975634765625,1.3387994766235352,-2.9039409160614014,-1.373140811920166
1772790914347789000,11.8997890625,1.0179438591003418,-3.0500173568725586,-1.274103045463562
1772790914367822000,11.919822021484375,0.7646718621253967,-2.950040102005005,-1.0705301761627197
1772790914387855000,11.939855224609374,0.6156341433525085,-2.6362462043762207,-0.648903489112854
1772790914407887000,11.95988720703125,0.575206995010376,-2.0956673622131348,-0.12141783535480499
1772790914427920100,11.979920166015624,0.5487567782402039,-1.3331774473190308,0.39796334505081177
1772790914447952400,11.999952392578125,0.5178498029708862,-0.5287314653396606,0.6477959752082825
1772790914467985200,12.019985107421874,0.41698595881462097,0.10872170329093933,0.5189376473426819
1772790914488018200,12.04001806640625,0.12008896470069885,0.36636412143707275,0.4629381597042084
1772790914508051200,12.06005126953125,-0.22035986185073853,0.28055116534233093,0.4362371265888214
1772790914528083200,12.080083251953125,-0.606994092464447,-0.03208761289715767,0.4828025996685028
1772790914548116200,12.1001162109375,-1.2165592908859253,-0.4362192153930664,0.5832147598266602
1772790914568149000,12.12014892578125,-1.988939642906189,-0.9867724776268005,0.46847400069236755
1772790914588182300,12.140182373046875,-2.720888137817383,-1.5583438873291016,0.13489463925361633
1772790914608215000,12.160215087890625,-3.2294607162475586,-1.9890129566192627,-0.22714684903621674
1772790914628248300,12.180248291015625,-3.440159559249878,-2.2115631103515625,-0.5562258362770081
1772790914648281000,12.200281005859376,-3.4559454917907715,-2.066582441329956,-0.9388872981071472
1772790914668314000,12.220314208984375,-3.3536224365234375,-1.5747019052505493,-1.4214240312576294
1772790914688346000,12.24034619140625,-3.251970052719116,-0.8231445550918579,-1.955749273300171
1772790914708379400,12.26037939453125,-3.22147536277771,-0.02161000669002533,-2.3974690437316895
1772790914728412200,12.280412109375,-3.295271396636963,0.6480817794799805,-2.6281816959381104
1772790914748445200,12.300445068359375,-3.358870267868042,1.076469898223877,-2.5959107875823975
1772790914768478200,12.320478271484374,-3.2978155612945557,1.271985411643982,-2.410059928894043
1772790914788511000,12.340510986328125,-3.093191385269165,1.2493934631347656,-2.148250102996826
1772790914808544300,12.360544189453124,-2.8131637573242188,0.9570057988166809,-1.7901852130889893
1772790914828576000,12.380575927734375,-2.4781394004821777,0.4155108332633972,-1.386858344078064
1772790914848609300,12.400609375,-2.07155179977417,-0.28848642110824585,-1.0009154081344604
1772790914868644400,12.420644287109376,-1.6679282188415527,-1.0168209075927734,-0.6553379893302917
1772790914888677000,12.440677001953125,-1.388008952140808,-1.6438182592391968,-0.32603368163108826
1772790914908710100,12.460710205078126,-1.2374448776245117,-2.1441826820373535,-0.04497409984469414
1772790914928743200,12.4807431640625,-1.2032127380371094,-2.5028674602508545,0.12873730063438416
1772790914948776200,12.500776123046874,-1.3206980228424072,-2.678179979324341,0.27631524205207825
1772790914968809200,12.520809326171875,-1.6049540042877197,-2.6374146938323975,0.4065772294998169
1772790914988842200,12.54084228515625,-2.0001132488250732,-2.4125592708587646,0.4817461669445038
1772790915008874200,12.560874267578125,-2.235100507736206,-2.026998996734619,0.49305644631385803
1772790915028907000,12.580906982421874,-2.2550737857818604,-1.4627960920333862,0.6016172170639038
1772790915048940300,12.600940185546875,-2.1394317150115967,-0.6781286001205444,0.7460415363311768
1772790915068973000,12.62097314453125,-1.9624627828598022,0.1499597281217575,0.8058288097381592
1772790915089006000,12.641006103515625,-1.7996788024902344,0.8366687297821045,0.8779553771018982
1772790915109039000,12.6610390625,-1.6183921098709106,1.30128812789917,0.9896512627601624
1772790915129072000,12.681072021484376,-1.27833890914917,1.452633261680603,1.1119709014892578
1772790915149104000,12.701104248046875,-0.7774342894554138,1.2533689737319946,1.1740299463272095
1772790915169137200,12.72113720703125,-0.26347023248672485,0.7218729257583618,1.0698490142822266
1772790915189170200,12.741170166015625,0.03570219874382019,-0.01446154247969389,0.8128355145454407
1772790915209203200,12.761203125,0.18502002954483032,-0.8096603155136108,0.4847147464752197
1772790915229236200,12.781236328125,0.3953229784965515,-1.2524306774139404,0.040579989552497864
1772790915249269200,12.801269287109376,0.7048036456108093,-0.8998805284500122,-0.7284636497497559
1772790915269302000,12.821302001953125,0.7380406260490417,-0.14434033632278442,-0.5589879751205444
1772790915289334000,12.841333984375,1.254092812538147,0.6636004447937012,-0.32955583930015564
1772790915309367300,12.8613671875,1.9746298789978027,1.2795721292495728,-0.11169373989105225
1772790915329399300,12.8813994140625,2.7333483695983887,1.360567569732666,-0.04814155027270317
1772790915349432300,12.901432373046875,3.3720335960388184,1.074067234992981,-0.16133014857769012
1772790915369465300,12.92146533203125,3.846219301223755,0.7873603105545044,-0.387023389339447
1772790915389498000,12.941498046875,4.142334461212158,0.7867011427879333,-0.548875093460083
1772790915409531400,12.961531494140624,4.382258892059326,1.075549840927124,-0.4054713547229767
1772790915429564200,12.981564208984375,4.684151649475098,1.628089427947998,-0.032674163579940796
1772790915449596400,13.001596435546874,4.989792823791504,2.3551225662231445,0.4092862606048584
1772790915469629200,13.021629150390625,5.131851673126221,3.05745530128479,0.706614077091217
1772790915489662500,13.041662353515624,5.074382305145264,3.5700416564941406,0.7659682631492615
1772790915509695200,13.0616953125,4.805395126342773,3.7408130168914795,0.6304177045822144
1772790915529728500,13.081728515625,4.385931968688965,3.4385037422180176,0.24566008150577545
1772790915549761300,13.10176123046875,3.8807806968688965,2.7198848724365234,-0.23553705215454102
1772790915569794300,13.121794189453125,3.397433042526245,1.9081264734268188,-0.5734954476356506
1772790915589826300,13.141826416015626,3.0034940242767334,1.1747182607650757,-0.7445557713508606
1772790915609859300,13.161859375,2.7219951152801514,0.6006963849067688,-0.7926157116889954
1772790915629892400,13.181892333984376,2.522538900375366,0.1329616904258728,-0.7979544401168823
1772790915649925000,13.201925048828125,2.3512446880340576,-0.32518425583839417,-0.8050158619880676
1772790915669958400,13.22195849609375,2.176525831222534,-0.7974604368209839,-0.8573211431503296
1772790915689991200,13.2419912109375,1.9748508930206299,-1.2367219924926758,-0.9229917526245117
1772790915710024400,13.2620244140625,1.7273741960525513,-1.6247446537017822,-0.9691164493560791
1772790915730056200,13.28205615234375,1.448925495147705,-1.8947210311889648,-0.9756611585617065
1772790915750089500,13.30208935546875,1.1106152534484863,-1.9436030387878418,-0.8577633500099182
1772790915770122200,13.322122314453125,0.77028489112854,-1.8007185459136963,-0.6030818819999695
1772790915790155500,13.342155517578124,0.48809128999710083,-1.4440631866455078,-0.19817039370536804
1772790915810188300,13.362188232421875,0.2894688844680786,-0.9399285912513733,0.2628229558467865
1772790915830221300,13.38222119140625,0.16461965441703796,-0.42057687044143677,0.6923258304595947
1772790915850254300,13.40225439453125,0.03445304557681084,0.017345570027828217,1.0489790439605713
1772790915870287400,13.422287353515625,-0.21671739220619202,0.29520854353904724,1.3853241205215454
1772790915890319400,13.4423193359375,-0.6371989250183105,0.4174097180366516,1.703615665435791
1772790915910352100,13.46235205078125,-1.235223412513733,0.5180517435073853,1.9939078092575073
1772790915930385400,13.482385498046876,-1.9357788562774658,0.5796073079109192,2.2647454738616943
1772790915950418200,13.502418212890625,-2.5876758098602295,0.6457863450050354,2.4059383869171143
1772790915970451500,13.522451416015626,-3.107665538787842,0.688207745552063,2.5051028728485107
1772790915990484200,13.542484130859375,-3.542814254760742,0.683941125869751,2.5946295261383057
1772790916010517200,13.562517333984376,-3.924163579940796,0.6958820819854736,2.5684919357299805
1772790916030549200,13.58254931640625,-4.2635579109191895,0.6893551349639893,2.449310302734375
1772790916050582500,13.60258251953125,-4.588957786560059,0.7404133081436157,2.4542574882507324
1772790916070615300,13.622615234375,-4.772453308105469,0.818122923374176,2.5928738117218018
1772790916090648300,13.6426484375,-4.4291510581970215,0.9695565700531006,2.4112720489501953
1772790916110681300,13.662681396484375,-4.28691291809082,0.6540794372558594,1.6004478931427002
1772790916130714400,13.68271435546875,-4.621694087982178,-0.2186790555715561,1.2333053350448608
1772790916150747400,13.702747314453125,-4.885893821716309,-1.8523072004318237,0.501398503780365
1772790916170779100,13.722779052734374,-5.102389335632324,-3.9554426670074463,0.30223792791366577
1772790916190812400,13.7428125,-4.996822357177734,-6.07681131362915,0.4670944809913635
1772790916210845200,13.76284521484375,-4.807284832000732,-7.591701984405518,0.13363714516162872
1772790916230878500,13.78287841796875,-4.488155364990234,-8.098837852478027,-0.6255002021789551
1772790916250911200,13.8029111328125,-3.808697462081909,-7.467982769012451,-1.02090322971344
1772790916270944300,13.8229443359375,-2.665524959564209,-6.020390033721924,-0.6859731674194336
1772790916290977300,13.842977294921875,-1.3501585721969604,-3.952904462814331,0.08612459897994995
1772790916311009300,13.86300927734375,0.03279680013656616,-1.4740132093429565,0.5074529051780701
1772790916331043300,13.883043212890625,0.9784660935401917,0.5580378770828247,0.4716380536556244
1772790916351076000,13.903076171875,1.3623086214065552,1.671219825744629,0.005466442555189133
1772790916371109000,13.923109130859375,1.3522964715957642,1.9845092296600342,-0.6901630759239197
1772790916391142100,13.94314208984375,1.169211745262146,1.7726346254348755,-1.2777934074401855
1772790916411175200,13.963175048828125,1.007598638534546,1.2843897342681885,-1.6255624294281006
1772790916431208200,13.983208251953124,1.006484031677246,0.694679319858551,-1.7203917503356934
1772790916451241200,14.0032412109375,1.1514766216278076,0.019984956830739975,-1.6212010383605957
1772790916471273200,14.023273193359374,1.3616443872451782,-0.7466075420379639,-1.4482592344284058
1772790916491306000,14.043305908203125,1.5522843599319458,-1.4281768798828125,-1.369321346282959
1772790916511339300,14.06333935546875,1.6934562921524048,-2.017329216003418,-1.2108979225158691
1772790916531372000,14.0833720703125,1.8202050924301147,-2.460042715072632,-0.8081201910972595
1772790916551405300,14.1034052734375,1.9923220872879028,-2.69281268119812,-0.23505671322345734
1772790916571438000,14.12343798828125,2.2322022914886475,-2.728893518447876,0.4320661425590515
1772790916591471000,14.14347119140625,2.4423508644104004,-2.503657102584839,0.919821560382843
1772790916611503000,14.163503173828126,2.6208369731903076,-2.0176923274993896,1.1300219297409058
1772790916631536000,14.1835361328125,2.6415786743164062,-1.4381788969039917,1.2837135791778564
1772790916651569200,14.203569091796876,2.519174337387085,-0.8057038187980652,1.45003342628479
1772790916671602200,14.223602294921875,2.340532064437866,-0.11026401072740555,1.5467257499694824
1772790916691635200,14.24363525390625,2.0775952339172363,0.4860144853591919,1.6907432079315186
1772790916711668200,14.263668212890625,1.7463895082473755,0.9361265301704407,1.8967331647872925
1772790916731701200,14.283701171875,1.448427677154541,1.2366523742675781,2.0717592239379883
1772790916751734300,14.303734375,1.230715036392212,1.369522213935852,2.231696605682373
1772790916771766300,14.323766357421874,1.075141429901123,1.323278546333313,2.378931760787964
1772790916791799000,14.343799072265625,0.9645547270774841,1.135719895362854,2.376319408416748
1772790916811832000,14.36383203125,0.8724018335342407,0.8032815456390381,2.1273598670959473
1772790916831865000,14.383864990234375,0.742585301399231,0.3454214334487915,1.626305341720581
1772790916851898000,14.403898193359375,0.4908227026462555,-0.03624735027551651,0.9730451107025146
1772790916871931100,14.42393115234375,0.2676384150981903,-0.10004819929599762,-0.20056846737861633
1772790916891964200,14.443964111328125,-0.15031827986240387,-0.060857005417346954,-1.7984585762023926
1772790916911996200,14.46399609375,-0.9790909886360168,-0.10165093839168549,-2.7761876583099365
1772790916932029200,14.484029296875,-2.182048797607422,0.30156490206718445,-2.727226734161377
1772790916952062200,14.504062255859376,-3.282292604446411,1.1741023063659668,-1.7217607498168945
1772790916972095200,14.52409521484375,-3.7910821437835693,2.41945219039917,-0.340294748544693
1772790916992128300,14.544128173828126,-3.535421848297119,3.748311996459961,0.9296924471855164
1772790917012161300,14.564161376953125,-2.4502923488616943,4.954854488372803,2.0713143348693848
1772790917032194000,14.584194091796874,-0.5014913082122803,5.846766471862793,3.223702907562256
1772790917052226000,14.60422607421875,1.3563625812530518,6.813775062561035,4.199389457702637
1772790917072259000,14.624259033203124,2.3521060943603516,7.6514434814453125,4.5362653732299805
1772790917092292000,14.6442919921875,2.5658187866210938,7.865137577056885,4.077051162719727
1772790917112325000,14.6643251953125,2.326866626739502,7.015140533447266,3.087491035461426
1772790917132358100,14.684358154296875,1.4743572473526,5.440008640289307,1.8009190559387207
1772790917152391200,14.70439111328125,0.47571682929992676,3.5015814304351807,0.4439186453819275
1772790917172424200,14.724424072265625,0.0389462411403656,1.7058947086334229,-0.8886473774909973
1772790917192456200,14.744456298828124,0.15496531128883362,0.26352882385253906,-1.9400620460510254
1772790917212489200,14.7644892578125,0.5841566324234009,-0.7633250951766968,-2.51747727394104
1772790917232522200,14.784522216796875,1.023696780204773,-1.6061044931411743,-2.6484010219573975
1772790917252555000,14.804554931640626,1.4334156513214111,-2.4314591884613037,-2.5182876586914062
1772790917272588300,14.82458837890625,1.690709114074707,-3.2019481658935547,-2.1735832691192627
1772790917292621000,14.84462109375,1.814683437347412,-3.8472020626068115,-1.8003350496292114
1772790917312654300,14.864654296875,1.903863549232483,-4.377139568328857,-1.514044165611267
1772790917332686300,14.884686279296876,1.9151618480682373,-4.606995582580566,-1.3354178667068481
1772790917352718300,14.90471826171875,1.8769341707229614,-4.462324619293213,-1.1272869110107422
1772790917372751400,14.92475146484375,1.8541851043701172,-3.9498844146728516,-0.759304404258728
1772790917392784400,14.944784423828125,1.8999133110046387,-2.9794156551361084,-0.3492687940597534
1772790917412817200,14.964817138671876,1.9878333806991577,-1.6344949007034302,0.13309094309806824
1772790917432850400,14.984850341796875,2.0335702896118164,-0.34872186183929443,0.6714288592338562
1772790917452883200,15.00488330078125,2.003244161605835,0.5342658162117004,0.7647809386253357
1772790917472916500,15.02491650390625,1.6993286609649658,0.9038365483283997,0.38559484481811523
1772790917492948200,15.0449482421875,1.0896615982055664,0.6592018604278564,-0.11849453300237656
1772790917512981500,15.0649814453125,0.19292645156383514,0.01772933080792427,-0.4843962490558624
1772790917533014300,15.08501416015625,-0.8034930229187012,-0.6871152520179749,-0.656119704246521
1772790917553047300,15.10504736328125,-1.6182284355163574,-1.1017755270004272,-0.8046841621398926
1772790917573080300,15.125080322265624,-2.1665821075439453,-1.2421185970306396,-0.995786190032959
1772790917593113300,15.14511328125,-2.508836507797241,-1.2074674367904663,-1.2417758703231812
1772790917613146400,15.165146484375,-2.6692538261413574,-1.0563760995864868,-1.5389814376831055
1772790917633179400,15.185179443359376,-2.662903070449829,-0.7822970151901245,-1.8629812002182007
1772790917653211400,15.20521142578125,-2.5785980224609375,-0.3355383574962616,-2.1372222900390625
1772790917673244200,15.225244140625,-2.457503318786621,0.24835895001888275,-2.329221248626709
1772790917693277400,15.24527734375,-2.3263068199157715,1.0393307209014893,-2.532493829727173
1772790917713310200,15.265310302734376,-2.254598379135132,1.8397029638290405,-2.6361682415008545
1772790917733343500,15.285343505859375,-2.2632131576538086,2.489528179168701,-2.574991226196289
1772790917753376300,15.305376220703126,-2.22166109085083,2.80678391456604,-2.372267246246338
1772790917773409300,15.3254091796875,-2.0770418643951416,2.639768600463867,-2.1017589569091797
1772790917793441300,15.345441162109376,-1.8147464990615845,2.0263824462890625,-1.8384233713150024
1772790917813474300,15.365474365234375,-1.4395312070846558,1.1300067901611328,-1.6246808767318726
1772790917833507300,15.38550732421875,-1.0544146299362183,0.1201813742518425,-1.4210618734359741
1772790917853540400,15.405540283203125,-0.6772523522377014,-0.8759183883666992,-1.0753593444824219
1772790917873573400,15.425573486328124,-0.400611937046051,-1.7575647830963135,-0.5374845862388611
1772790917893606400,15.4456064453125,-0.31242918968200684,-2.452899217605591,0.056010521948337555
1772790917913639400,15.465639404296875,-0.379964679479599,-2.944420099258423,0.6421886086463928
1772790917933671200,15.485671142578125,-0.5350085496902466,-3.385629653930664,1.239361047744751
1772790917953704400,15.505704345703125,-0.8076160550117493,-3.637110471725464,1.7654118537902832
1772790917973737200,15.5257373046875,-1.1363924741744995,-3.681419610977173,2.02687668800354
1772790917993770200,15.545770263671875,-1.3670365810394287,-3.508429765701294,1.9584826231002808
1772790918013803300,15.56580322265625,-1.5858319997787476,-3.0419509410858154,1.7115740776062012
1772790918033836300,15.585836181640625,-1.9149304628372192,-2.4796481132507324,1.3640459775924683
1772790918053869300,15.605869384765626,-2.3123414516448975,-1.9336692094802856,0.9871017932891846
1772790918073901300,15.6259013671875,-2.6388535499572754,-1.288217544555664,0.6004030704498291
1772790918093934300,15.645934326171876,-2.8314576148986816,-0.48277682065963745,0.41985926032066345
1772790918113967400,15.66596728515625,-2.7980403900146484,0.4734799861907959,0.49680259823799133
1772790918134000400,15.68600048828125,-2.640115261077881,1.274006724357605,0.7828382253646851
1772790918154033400,15.706033447265625,-2.399864435195923,1.6666245460510254,1.1808475255966187
1772790918174066400,15.72606640625,-2.0147860050201416,1.595882534980774,1.6464215517044067
1772790918194099500,15.746099365234375,-1.528052568435669,1.086463451385498,1.950057029724121
1772790918214132200,15.76613232421875,-1.0927135944366455,0.35916373133659363,1.7543113231658936
1772790918234164200,15.786164306640625,-0.8003760576248169,-0.5588982701301575,0.9945089817047119
1772790918254197200,15.806197265625,-0.5174746513366699,-1.270824909210205,-0.19543692469596863
1772790918274230300,15.826230224609375,-0.2810896933078766,-1.5707613229751587,-1.2644238471984863
1772790918294263300,15.84626318359375,-0.08099469542503357,-1.4128589630126953,-1.8184078931808472
1772790918314296300,15.86629638671875,0.38845667243003845,-0.9537570476531982,-1.9156876802444458
1772790918334330000,15.886330078125,1.0227198600769043,-0.5914801955223083,-1.786373496055603
1772790918354363100,15.906363037109376,1.6630306243896484,-0.4846174120903015,-1.556095004081726
1772790918374395100,15.92639501953125,2.270901918411255,-0.5066321492195129,-1.3817033767700195
1772790918394428200,15.94642822265625,2.8084540367126465,-0.528045117855072,-1.30593740940094
1772790918414461200,15.966461181640625,3.2644259929656982,-0.3731921315193176,-1.215888500213623
1772790918434494200,15.986494140625,3.4869961738586426,0.050180330872535706,-0.909588098526001
1772790918454525200,16.006525146484375,3.585758686065674,0.7583039402961731,-0.6693451404571533
1772790918474558200,16.02655810546875,3.7374935150146484,1.618323802947998,-0.530133843421936
1772790918494590000,16.04658984375,3.903367757797241,2.469874382019043,-0.44517210125923157
1772790918514623200,16.066623291015624,3.9159743785858154,3.1979079246520996,-0.3806322515010834
1772790918534656000,16.086656005859375,3.677060604095459,3.6307432651519775,-0.23605285584926605
1772790918554689300,16.106689208984374,3.126920223236084,3.572345018386841,-0.05203887075185776
1772790918574722000,16.12672216796875,2.3196911811828613,2.902146100997925,0.06979727745056152
1772790918594755000,16.146755126953124,1.4668984413146973,1.7398359775543213,0.1060868576169014
1772790918614788000,16.1667880859375,0.7800752520561218,0.467777818441391,0.07643820345401764
1772790918634821000,16.186821044921874,0.3171674907207489,-0.483772873878479,0.02330467291176319
1772790918654853000,16.20685302734375,0.14522986114025116,-0.984623372554779,0.018587954342365265
1772790918674886100,16.22688623046875,0.23061709105968475,-0.9937726855278015,0.1198333203792572
1772790918694919200,16.246919189453124,0.5237826108932495,-0.6349401473999023,0.2558172345161438
1772790918714952200,16.2669521484375,0.8972923159599304,-0.10498422384262085,0.37423303723335266
1772790918734985200,16.286985107421874,1.2167763710021973,0.3655189573764801,0.45208507776260376
1772790918755018200,16.307018310546876,1.4522874355316162,0.7199799418449402,0.5020771026611328
1772790918775051000,16.327051025390624,1.5979634523391724,0.9527804255485535,0.5176941752433777
1772790918795083000,16.3470830078125,1.6671100854873657,0.9855965375900269,0.496916264295578
1772790918815116300,16.3671162109375,1.6687630414962769,0.8592883944511414,0.417405366897583
1772790918835149000,16.387149169921877,1.6121712923049927,0.54405277967453,0.3530443608760834
1772790918855182000,16.40718212890625,1.4693448543548584,0.0974731519818306,0.3000679016113281
1772790918875216100,16.427216064453123,1.2050206661224365,-0.4507684111595154,0.1259312480688095
1772790918895249200,16.447249267578126,0.8861873745918274,-1.0412853956222534,-0.08269970864057541
1772790918915282200,16.4672822265625,0.5686253309249878,-1.5837888717651367,-0.2890782058238983
1772790918935315200,16.487315185546876,0.29154542088508606,-1.9537007808685303,-0.40330052375793457
1772790918955347000,16.507346923828123,0.0924474224448204,-2.073359251022339,-0.5087608695030212
1772790918975380200,16.527380126953126,-0.13691647350788116,-2.048630475997925,-0.5927282571792603
1772790918995413000,16.5474130859375,-0.49139851331710815,-1.9959039688110352,-0.5928319692611694
1772790919015446300,16.5674462890625,-0.938224732875824,-1.9737764596939087,-0.3113516569137573
1772790919035479000,16.58747900390625,-1.6229515075683594,-1.840335488319397,0.2653709053993225
1772790919055512000,16.607511962890626,-2.4840636253356934,-1.7457934617996216,0.7911813855171204
1772790919075545000,16.627545166015626,-3.264371156692505,-1.8459206819534302,1.0712636709213257
1772790919095577300,16.647577392578125,-3.848050355911255,-1.943973183631897,0.9997697472572327
1772790919115610000,16.667610107421876,-4.274349212646484,-1.9141021966934204,0.5115445852279663
1772790919135643100,16.68764306640625,-4.5126824378967285,-1.4672980308532715,-0.30447205901145935
1772790919155676200,16.70767626953125,-4.45561408996582,-0.6537104845046997,-1.2331161499023438
1772790919175709200,16.727709228515625,-4.418551445007324,0.4352310001850128,-1.8018393516540527
1772790919195742200,16.7477421875,-4.276147842407227,1.9468716382980347,-2.055311918258667
1772790919215775200,16.767775146484375,-4.0879011154174805,3.3194172382354736,-1.9142780303955078
1772790919235807200,16.78780712890625,-3.7249033451080322,4.678086280822754,-1.4514013528823853
1772790919255840000,16.807840087890625,-3.2595973014831543,4.905238628387451,-0.993413507938385
1772790919275873300,16.827873291015624,-2.599705934524536,4.092548370361328,-0.793647289276123
1772790919295906000,16.847906005859375,-1.773913860321045,2.6557276248931885,-0.8966621160507202
1772790919315939000,16.86793896484375,-0.9085233807563782,0.9228305816650391,-1.300047755241394
1772790919335972600,16.88797265625,-0.12794283032417297,-0.9087944626808167,-1.71138596534729
1772790919356005400,16.90800537109375,0.3741857409477234,-2.6651175022125244,-1.7941582202911377
1772790919376038700,16.92803857421875,0.5157451629638672,-4.194039821624756,-1.4945616722106934
1772790919396070400,16.9480703125,0.3347303569316864,-5.278559684753418,-1.0369436740875244
1772790919416103700,16.968103759765626,-0.10714707523584366,-5.792387962341309,-0.5627281665802002
1772790919436136400,16.988136474609377,-0.7100894451141357,-5.658109664916992,-0.19961772859096527
1772790919456169700,17.008169677734376,-1.3627434968948364,-5.043059825897217,-0.04328720644116402
1772790919476202500,17.028202392578127,-1.6933469772338867,-4.150911331176758,-0.06901823729276657
1772790919496235500,17.048235595703126,-1.5990263223648071,-3.091853380203247,-0.1011030375957489
1772790919516268500,17.0682685546875,-1.2323377132415771,-1.9101561307907104,-0.0369572639465332
1772790919536300500,17.088300537109376,-0.7023962736129761,-0.5414581298828125,-0.023949982598423958
1772790919556333600,17.10833349609375,-0.39150166511535645,0.6675124168395996,-0.048418886959552765
1772790919576366300,17.128366455078126,-0.26328226923942566,1.6082179546356201,0.06861922144889832
1772790919596399600,17.148399658203125,-0.21952274441719055,2.2779576778411865,0.24076984822750092
1772790919616432400,17.168432373046876,-0.17223414778709412,2.564790725708008,0.4881378710269928
1772790919636465700,17.188465576171875,-0.023556843400001526,2.3408427238464355,0.8287383913993835
1772790919656498400,17.20849853515625,0.2558952271938324,1.650206208229065,1.088712215423584
1772790919676530700,17.22853076171875,0.6559373140335083,0.9169560074806213,0.9559122920036316
1772790919696563500,17.2485634765625,1.120229959487915,0.5164253115653992,0.5280038118362427
1772790919716596500,17.268596435546876,1.466586709022522,0.6049019694328308,0.21379445493221283
1772790919736629500,17.28862939453125,1.7524722814559937,0.6794289946556091,0.14432640373706818
1772790919756662500,17.30866259765625,2.0052292346954346,0.7944866418838501,-0.014230452477931976
1772790919776695600,17.328695556640625,2.2807703018188477,0.7398738265037537,-0.2476254254579544
1772790919796728600,17.348728515625,2.5929033756256104,0.569809079170227,-0.414908766746521
1772790919816760600,17.368760498046875,2.871181011199951,0.4163986146450043,-0.4013093411922455
1772790919836793300,17.38879345703125,3.1494898796081543,0.47115975618362427,-0.3098944425582886
1772790919856826600,17.40882666015625,3.344313859939575,0.7463768720626831,-0.2189757525920868
1772790919876859400,17.428859375,3.482478618621826,1.1577517986297607,-0.05210819095373154
1772790919896892700,17.448892578125,3.5555408000946045,1.6428256034851074,0.1411277800798416
1772790919916925400,17.468925537109374,3.5856142044067383,2.117506265640259,0.38013097643852234
1772790919936958500,17.48895849609375,3.6195929050445557,2.5920841693878174,0.564063549041748
1772790919956990500,17.508990478515624,3.599849224090576,3.0584843158721924,0.7947496175765991
1772790919977023500,17.5290234375,3.4474968910217285,3.322476387023926,1.0636392831802368
1772790919997056500,17.549056396484374,3.123579740524292,3.37604022026062,1.1593472957611084
1772790920017089500,17.569089599609374,2.6919515132904053,3.1854407787323,1.052435278892517
1772790920037122600,17.58912255859375,2.2492687702178955,2.735806703567505,0.8288021087646484
1772790920057155600,17.609155517578124,1.9211046695709229,2.053384780883789,0.5438262224197388
1772790920077188600,17.629188720703127,1.6574008464813232,1.277677297592163,0.3414436876773834
1772790920097220400,17.649220458984374,1.4647144079208374,0.6278154850006104,0.18813273310661316
1772790920117253600,17.669253662109377,1.2635421752929688,0.1731330305337906,0.08242776244878769
1772790920137286400,17.689286376953124,1.0369369983673096,-0.11611954867839813,-0.0031947290990501642
1772790920157319400,17.7093193359375,0.8013797402381897,-0.3098977506160736,-0.09442409127950668
1772790920177352400,17.7293525390625,0.5977398753166199,-0.4325959384441376,-0.18832099437713623
1772790920197385500,17.749385498046873,0.4233185946941376,-0.5313931703567505,-0.3095655143260956
1772790920217418500,17.76941845703125,0.3028455674648285,-0.6924222111701965,-0.42633411288261414
1772790920237450500,17.789450439453127,0.24538898468017578,-0.9224275946617126,-0.5131699442863464
1772790920257483500,17.8094833984375,0.23928843438625336,-1.1502212285995483,-0.5294721126556396
1772790920277516500,17.8295166015625,0.36668065190315247,-1.3340239524841309,-0.6337689757347107
1772790920297549600,17.849549560546876,0.5500462055206299,-1.579099416732788,-0.6947105526924133
1772790920317582600,17.86958251953125,0.669183611869812,-1.9542733430862427,-0.41982561349868774
1772790920337615000,17.889614990234374,0.6176192164421082,-2.2661778926849365,0.07874497026205063
1772790920357648100,17.909648193359374,0.34954580664634705,-2.3463785648345947,0.6820945143699646
1772790920377680100,17.92968017578125,-0.24581800401210785,-2.017313241958618,1.458258867263794
1772790920397713000,17.949712890625,-0.9910979866981506,-1.393661618232727,2.3108131885528564
1772790920417746200,17.96974609375,-1.5393505096435547,-0.7583010792732239,2.8891851902008057
1772790920437779000,17.989779052734374,-1.7940951585769653,-0.1323564201593399,3.2897636890411377
1772790920457812000,18.00981201171875,-1.9676533937454224,0.32052284479141235,3.5524139404296875
1772790920477845000,18.029844970703124,-2.194658041000366,0.45656198263168335,3.4681272506713867
1772790920497878000,18.0498779296875,-2.5132596492767334,0.1433657854795456,2.6943695545196533
1772790920517910000,18.069909912109374,-2.959303140640259,-0.2205955982208252,1.2664835453033447
1772790920537943000,18.089943115234377,-3.2953176498413086,-0.6552611589431763,-0.5629935264587402
1772790920557976000,18.10997607421875,-3.4316599369049072,-0.8727826476097107,-2.123746156692505
1772790920578009000,18.130009033203127,-3.351079225540161,-0.886198878288269,-3.1805694103240967
1772790920598042000,18.1500419921875,-3.1525590419769287,-0.735449492931366,-3.646469831466675
1772790920618075100,18.1700751953125,-3.022066354751587,-0.5507516860961914,-3.348116397857666
1772790920638108000,18.19010791015625,-2.9367737770080566,-0.3739303946495056,-2.577568292617798
1772790920658140000,18.210139892578123,-2.735323190689087,-0.01488910336047411,-1.7024179697036743
1772790920678173200,18.230173095703126,-2.290762186050415,0.30021798610687256,-0.9973175525665283
1772790920698206000,18.2502060546875,-1.7048912048339844,0.29440686106681824,-0.404102087020874
1772790920718239000,18.270239013671876,-1.080518126487732,0.0035228878259658813,0.06894470006227493
1772790920738272000,18.29027197265625,-0.5195760130882263,-0.42772290110588074,0.3295399248600006
1772790920758305000,18.310304931640626,-0.06611965596675873,-0.8862899541854858,0.3817915916442871
1772790920778338000,18.330338134765626,0.2625090479850769,-1.31710684299469,0.2632765769958496
1772790920798370000,18.3503701171875,0.4955184757709503,-1.7199645042419434,0.06065747141838074
1772790920818403000,18.370403076171876,0.6254726648330688,-2.0508081912994385,-0.19385938346385956
1772790920838436000,18.39043603515625,0.6484320759773254,-2.332287549972534,-0.47724467515945435
1772790920858469000,18.41046923828125,0.5566844940185547,-2.5489821434020996,-0.7312250733375549
1772790920878502100,18.430502197265625,0.3575080335140228,-2.72904896736145,-0.9252694249153137
1772790920898535000,18.450534912109376,0.028632914647459984,-2.811718702316284,-1.055646538734436
1772790920918568200,18.470568115234375,-0.4607897996902466,-2.748387336730957,-1.0288712978363037
1772790920938600000,18.490599853515626,-1.160204529762268,-2.502936601638794,-0.7836751341819763
1772790920958633000,18.510633056640625,-1.834982991218567,-2.029852867126465,-0.42161238193511963
1772790920978666000,18.530666015625,-2.1233153343200684,-1.330045223236084,0.030704811215400696
1772790920998699000,18.550698974609375,-2.038874626159668,-0.4477090537548065,0.5642032623291016
1772790921018732000,18.57073193359375,-1.6819255352020264,0.5408815145492554,0.8416098952293396
1772790921038765000,18.59076513671875,-1.2326298952102661,1.4662139415740967,0.5982989072799683
1772790921058798000,18.610798095703124,-0.9622607231140137,2.132357358932495,0.25642669200897217
1772790921078830000,18.630830078125,-0.9759506583213806,2.3462629318237305,0.24800421297550201
1772790921098863000,18.650863037109374,-0.9983213543891907,2.154228448867798,0.397758424282074
1772790921118896000,18.670896240234374,-0.74943608045578,1.5400400161743164,0.5118186473846436
1772790921138929200,18.69092919921875,-0.16139759123325348,0.5551086664199829,0.6210114359855652
1772790921158962000,18.7109619140625,0.5552135109901428,-0.5281213521957397,0.7229965925216675
1772790921178995200,18.7309951171875,1.1570912599563599,-1.2620700597763062,0.7372689247131348
1772790921199028000,18.751028076171874,1.5023971796035767,-1.5056384801864624,0.6433041095733643
1772790921219060000,18.77106005859375,1.6547727584838867,-1.2361780405044556,0.4495927095413208
1772790921239093000,18.791093017578124,1.8210495710372925,-0.5267384052276611,0.36418452858924866
1772790921259126000,18.8111259765625,2.00516939163208,0.5589991211891174,0.4670141935348511
1772790921279159000,18.831158935546874,2.2286431789398193,1.8019871711730957,0.6758848428726196
1772790921299192000,18.851192138671873,2.401679515838623,2.936192512512207,0.7924085259437561
1772790921319225000,18.87122509765625,2.527043342590332,3.7610692977905273,0.8294591903686523
1772790921339258400,18.89125830078125,2.639011859893799,4.145191192626953,0.8231152892112732
1772790921359290400,18.911290283203126,2.701174020767212,4.144066333770752,0.6655327081680298
1772790921379323400,18.931323486328125,2.670894145965576,3.815236806869507,0.27539071440696716
1772790921399356400,18.9513564453125,2.5327844619750977,3.1788084506988525,-0.23535031080245972
1772790921419389400,18.971389404296875,2.2734856605529785,2.203416347503662,-0.7107311487197876
1772790921439422500,18.99142236328125,2.050128936767578,1.0814982652664185,-1.1528551578521729
1772790921459455500,19.01145556640625,1.9139225482940674,-0.003938906826078892,-1.4557150602340698
1772790921479488300,19.03148828125,1.8637245893478394,-0.7833150625228882,-1.5797276496887207
1772790921499520500,19.0515205078125,1.8553552627563477,-1.331019639968872,-1.573504090309143
1772790921519553500,19.071553466796875,1.8372052907943726,-1.7065014839172363,-1.4055285453796387
1772790921539586600,19.091586669921874,1.7767239809036255,-1.9290028810501099,-1.1803072690963745
1772790921559619300,19.111619384765625,1.7034870386123657,-2.020885467529297,-0.9644525051116943
1772790921579652600,19.131652587890624,1.5249799489974976,-1.9476161003112793,-0.7296398282051086
1772790921599685400,19.151685302734375,1.2635735273361206,-1.7534769773483276,-0.607641875743866
1772790921619718700,19.17171875,1.0295147895812988,-1.4890646934509277,-0.5805602669715881
1772790921639750400,19.19175048828125,0.8816016316413879,-1.1759133338928223,-0.5877878665924072
1772790921659783400,19.211783447265624,0.7631550431251526,-0.8524344563484192,-0.5645768046379089
1772790921679816400,19.23181640625,0.6281861066818237,-0.5458124876022339,-0.5206989645957947
1772790921699849500,19.251849365234374,0.42796996235847473,-0.26965659856796265,-0.4431692361831665
1772790921719882500,19.271882568359374,0.07853726297616959,-0.05024880915880203,-0.25880005955696106
1772790921739915300,19.291915283203124,-0.38243532180786133,0.0831967145204544,0.028051555156707764
1772790921759948500,19.311948486328124,-0.783616304397583,0.18322603404521942,-0.0074906619265675545
1772790921779980500,19.33198046875,-1.2197381258010864,0.3546103537082672,-0.7256642580032349
1772790921800013600,19.352013671875,-1.8973709344863892,0.42265284061431885,-1.4539397954940796
1772790921820046300,19.37204638671875,-2.743596076965332,0.3752499520778656,-1.6371899843215942
1772790921840079600,19.39207958984375,-3.5432848930358887,0.4102470278739929,-1.392807960510254
1772790921860112400,19.4121123046875,-4.226659297943115,0.5635144710540771,-0.8133681416511536
1772790921880145700,19.432145751953126,-4.65366268157959,0.641279935836792,0.02506888657808304
1772790921900178400,19.452178466796877,-4.720898151397705,0.4935190975666046,0.8006694316864014
1772790921920210400,19.47221044921875,-4.534100532531738,0.15984587371349335,1.2190775871276855
1772790921940243500,19.492243408203127,-4.295826435089111,-0.24114012718200684,1.2259421348571777
1772790921960276500,19.5122763671875,-4.144870281219482,-0.5246583223342896,1.1089015007019043
1772790921980309500,19.5323095703125,-4.027529716491699,-0.6216141581535339,1.1043282747268677
1772790922000342300,19.55234228515625,-3.8303661346435547,-0.31713059544563293,1.0235828161239624
1772790922020375600,19.57237548828125,-3.434724807739258,0.3931032717227936,0.7996376156806946
1772790922040408300,19.592408203125,-2.7239975929260254,1.1843781471252441,0.4978635907173157
1772790922060440600,19.612440673828125,-1.7359285354614258,1.569839596748352,0.11385849118232727
1772790922080473300,19.632473388671876,-0.803429126739502,1.2877683639526367,-0.3095397353172302
1772790922100506600,19.652506591796875,-0.12223558127880096,0.4673405587673187,-0.7667615413665771
1772790922120539400,19.672539306640626,0.31943464279174805,-0.6048343181610107,-1.224433183670044
1772790922140572700,19.69257275390625,0.5237514972686768,-1.7203121185302734,-1.4023900032043457
1772790922160605400,19.71260546875,0.43709075450897217,-2.7322192192077637,-1.244996428489685
1772790922180638500,19.732638427734376,0.14198394119739532,-3.5310020446777344,-0.967090904712677
1772790922200670500,19.75267041015625,-0.18797753751277924,-3.9653546810150146,-0.6965249180793762
1772790922220703500,19.772703369140626,-0.39493969082832336,-3.995920419692993,-0.42394381761550903
1772790922240736500,19.792736572265625,-0.4458498954772949,-3.592055082321167,-0.139131098985672
1772790922260769300,19.812769287109376,-0.3921440839767456,-2.7693021297454834,0.16263967752456665
1772790922280802600,19.832802490234375,-0.31505095958709717,-1.6268311738967896,0.48996537923812866
1772790922300835300,19.85283544921875,-0.28980132937431335,-0.3285616934299469,0.8575721383094788
1772790922320868600,19.87286865234375,-0.31498438119888306,0.892327606678009,1.260653018951416
1772790922340899800,19.89289990234375,-0.36748006939888,1.8788533210754395,1.568993330001831
1772790922360933000,19.91293310546875,-0.40498748421669006,2.6963837146759033,1.7536126375198364
1772790922380966000,19.9329658203125,-0.41171568632125854,3.2073004245758057,1.937780499458313
1772790922400999200,19.952999267578125,-0.3404602110385895,3.4114720821380615,2.1536710262298584
1772790922421032000,19.973031982421876,-0.18517720699310303,3.2803170680999756,2.3835361003875732
1772790922441065000,19.99306494140625,0.025626199319958687,2.825929880142212,2.4673328399658203
1772790922461096000,20.013095947265626,0.21447430551052094,2.1205174922943115,2.2481493949890137
1772790922481129000,20.03312890625,0.3014802634716034,1.3408899307250977,1.6457841396331787
1772790922501162000,20.053161865234376,0.3321942687034607,0.7177172303199768,0.7526222467422485
1772790922521195000,20.073195068359375,0.3721730709075928,0.3438216745853424,-0.18568022549152374
1772790922541228000,20.09322802734375,0.5221813917160034,0.265288382768631,-1.0035697221755981
1772790922561261000,20.113260986328125,0.7986557483673096,0.5962042212486267,-1.822905421257019
1772790922581294000,20.133294189453125,1.2388519048690796,1.48147451877594,-3.082042932510376
1772790922601326000,20.153326171875,1.4309091567993164,2.4457969665527344,-3.8829758167266846
1772790922621359000,20.173359130859374,1.1759988069534302,3.3459715843200684,-3.4693973064422607
1772790922641391900,20.193391845703125,0.5763111710548401,4.23174524307251,-2.3694851398468018
1772790922661425200,20.213425048828125,-0.0023149605840444565,4.906125068664551,-1.2052786350250244
1772790922681458000,20.2334580078125,-0.18382875621318817,5.120198726654053,-0.33342647552490234
1772790922701491200,20.2534912109375,0.286434143781662,4.713286876678467,-0.014543232508003712
1772790922721524000,20.27352392578125,1.4149421453475952,3.8745665550231934,-0.0013062108773738146
1772790922741556000,20.293555908203125,2.7296228408813477,3.04783034324646,0.07669313997030258
1772790922761589000,20.313589111328124,3.94490385055542,2.377849817276001,-0.09535965323448181
1772790922781622000,20.3336220703125,4.901183128356934,1.7667710781097412,-0.4821416735649109
1772790922801655000,20.353655029296874,5.352769374847412,1.2205300331115723,-0.889894425868988
1772790922821688000,20.37368798828125,5.308937072753906,0.6018415093421936,-1.224275827407837
1772790922841721000,20.39372119140625,4.9333882331848145,-0.08177006244659424,-1.528698205947876
1772790922861756200,20.413756103515624,4.448030948638916,-0.7346945405006409,-1.7439384460449219
1772790922881789000,20.433788818359375,4.064515113830566,-1.2735707759857178,-1.9328200817108154
1772790922901821200,20.4538212890625,3.8524341583251953,-1.7303853034973145,-1.9491063356399536
1772790922921854000,20.47385400390625,3.81150484085083,-2.103163719177246,-1.7337989807128906
1772790922941887200,20.49388720703125,3.8428022861480713,-2.3748881816864014,-1.3305644989013672
1772790922961920000,20.513919921875,3.8180012702941895,-2.499861717224121,-0.8052055239677429
1772790922981953000,20.533953125,3.641378402709961,-2.470994234085083,-0.2506798803806305
1772790923001986000,20.553986083984373,3.30440616607666,-2.2872862815856934,0.2888006269931793
1772790923022019000,20.57401904296875,2.9038469791412354,-1.973297119140625,0.7793490886688232
1772790923042051000,20.594051025390623,2.5305328369140625,-1.5459247827529907,1.2327016592025757
1772790923062083800,20.614083740234374,2.221679449081421,-1.027040719985962,1.6739248037338257
1772790923082117000,20.6341171875,2.0637052059173584,-0.5813359618186951,2.1669349670410156
1772790923102150000,20.65414990234375,2.0551843643188477,-0.4064294099807739,2.7190377712249756
1772790923122183200,20.67418310546875,2.2039241790771484,-0.7462274432182312,3.2921195030212402
1772790923142216000,20.6942158203125,2.275312900543213,-1.5814236402511597,3.7583611011505127
1772790923162249200,20.714249267578126,2.037269353866577,-2.749312400817871,3.764801502227783
1772790923182281000,20.734281005859376,1.4102764129638672,-4.139865875244141,3.2084944248199463
1772790923202314200,20.754314208984376,0.2544412314891815,-5.621018409729004,2.1581122875213623
1772790923222347000,20.774346923828126,-1.2306393384933472,-6.884210109710693,0.6678982377052307
1772790923242380000,20.794380126953126,-2.7725560665130615,-7.572879791259766,-1.0947058200836182
1772790923262413000,20.8144130859375,-3.620539903640747,-7.168459415435791,-3.0904009342193604
1772790923282446000,20.834446044921876,-3.4747836589813232,-5.36033821105957,-5.203214168548584
1772790923302479000,20.85447900390625,-2.579457998275757,-2.646732807159424,-7.225128650665283
1772790923322510800,20.8745107421875,-1.97764253616333,0.05560259521007538,-9.063430786132812
1772790923342543600,20.894543701171877,-2.642340660095215,2.5372660160064697,-10.485756874084473
1772790923362576600,20.91457666015625,-4.491749286651611,4.598193168640137,-10.59069538116455
1772790923382609700,20.934609619140623,-6.842756271362305,6.417244911193848,-8.34347152709961
1772790923402642700,20.954642578125,-8.60789680480957,8.409626007080078,-4.907291412353516
1772790923422675700,20.97467578125,-9.461280822753906,10.377288818359375,-1.4748812913894653
1772790923442708700,20.994708740234376,-9.228405952453613,10.552645683288574,1.8382567167282104
1772790923462740700,21.01474072265625,-7.530198574066162,9.203022956848145,4.217362880706787
1772790923482773500,21.0347734375,-4.889881610870361,6.462611675262451,5.836101055145264
1772790923502806800,21.054806884765625,-2.120058536529541,3.8778367042541504,6.502867221832275
1772790923522839600,21.074839599609376,0.38009801506996155,2.2749297618865967,6.178503513336182
1772790923542872600,21.09487255859375,1.9516931772232056,0.8605517745018005,5.110090255737305
1772790923562905600,21.114905517578126,2.337982654571533,-0.8479210138320923,3.4024107456207275
1772790923582937600,21.1349375,2.395676612854004,-2.648374557495117,1.004520058631897
1772790923602970600,21.154970703125,2.467636823654175,-4.08750057220459,-1.2713567018508911
1772790923623003600,21.175003662109376,2.5996146202087402,-5.038893222808838,-2.9788715839385986
1772790923643036700,21.19503662109375,2.6981043815612793,-5.827471733093262,-3.9229636192321777
1772790923663069700,21.215069580078126,2.7695679664611816,-6.530540466308594,-4.165714263916016
1772790923683102700,21.235102783203125,2.7743630409240723,-6.899718284606934,-3.941805601119995
1772790923703135700,21.2551357421875,2.635780096054077,-6.870940685272217,-3.5478878021240234
1772790923723167700,21.275167724609375,2.388784885406494,-6.587756633758545,-3.237154006958008
1772790923743200500,21.295200439453126,1.9899489879608154,-6.252720355987549,-3.009777784347534
1772790923763233500,21.315233642578125,1.5572617053985596,-5.802184581756592,-2.869199275970459
1772790923783266600,21.3352666015625,1.2321257591247559,-5.277933120727539,-2.8654422760009766
1772790923803299600,21.355299560546875,0.9061539173126221,-4.5287370681762695,-3.019414186477661
1772790923823332600,21.37533251953125,0.2878090739250183,-3.718113660812378,-2.9519667625427246
1772790923843365600,21.39536572265625,-0.5523611903190613,-2.9046969413757324,-2.6416516304016113
1772790923863397600,21.415397705078124,-1.4760758876800537,-1.8769983053207397,-2.256361722946167
1772790923883430700,21.4354306640625,-2.3738067150115967,-0.6044752597808838,-1.7290834188461304
1772790923903463700,21.455463623046874,-2.8596749305725098,0.9708017110824585,-0.6993876099586487
1772790923923496700,21.47549658203125,-2.6132328510284424,2.4906344413757324,0.5294981598854065
1772790923943529700,21.49552978515625,-1.7857420444488525,3.580854654312134,1.738499402999878
1772790923963562800,21.515562744140624,-0.7657816410064697,4.14251708984375,2.7776987552642822
1772790923983595500,21.535595458984375,0.07796838879585266,4.42917013168335,3.4538180828094482
1772790924003627500,21.55562744140625,0.7774183750152588,4.054579734802246,3.7004618644714355
1772790924023660500,21.57566064453125,1.467625617980957,2.454102039337158,2.9300577640533447
1772790924043693600,21.595693603515624,1.9375896453857422,0.2907140254974365,0.6634184122085571
1772790924063726600,21.6157265625,2.0812227725982666,-1.0995389223098755,-1.3215506076812744
1772790924083759600,21.635759521484374,1.9037545919418335,-1.2999801635742188,-2.3196699619293213
1772790924103792600,21.655792724609373,1.6975725889205933,-1.1734585762023926,-2.3400650024414062
1772790924123825700,21.67582568359375,1.417816400527954,-1.041365623474121,-1.691504955291748
1772790924143857700,21.695857666015623,1.3149468898773193,-1.006956934928894,-1.238185167312622
1772790924163890700,21.715890625,1.3280367851257324,-0.9464097619056702,-1.0439716577529907
1772790924183923700,21.735923828125,1.3242594003677368,-0.7627366185188293,-0.8006865978240967
1772790924203956500,21.75595654296875,1.2952831983566284,-0.4039869010448456,-0.4356756806373596
1772790924223989800,21.77598974609375,1.2416064739227295,0.19158309698104858,0.016755126416683197
1772790924244022500,21.7960224609375,1.234212875366211,0.9791898727416992,0.45221126079559326
1772790924264054800,21.8160546875,1.3673442602157593,1.834003210067749,0.7567579746246338
1772790924284087600,21.836087646484376,1.6285419464111328,2.6759393215179443,0.8650577664375305
1772790924304120600,21.85612060546875,1.8951897621154785,3.263354539871216,0.8025102615356445
1772790924324153600,21.876153564453126,2.1119139194488525,3.499115228652954,0.605127215385437
1772790924344186600,21.8961865234375,2.2193360328674316,3.465968608856201,0.27644431591033936
1772790924364219400,21.916219482421877,2.246587038040161,3.2247893810272217,-0.14738358557224274
1772790924384252700,21.936252685546876,2.1915385723114014,2.778369665145874,-0.5793573260307312
1772790924404284400,21.956284423828127,2.1139485836029053,2.1634738445281982,-0.965644359588623
1772790924424317700,21.976317626953126,2.0774331092834473,1.3917291164398193,-1.2467799186706543
1772790924444350500,21.9963505859375,2.1087512969970703,0.5309100151062012,-1.4178663492202759
1772790924464383500,22.016383544921876,2.1711652278900146,-0.3400050699710846,-1.4257398843765259
1772790924484416500,22.03641650390625,2.2480459213256836,-1.1634376049041748,-1.297379493713379
1772790924504449500,22.056449462890626,2.2922751903533936,-1.8172186613082886,-1.035189151763916
1772790924524482600,22.076482666015625,2.2419793605804443,-2.2866246700286865,-0.7289976477622986
1772790924544514300,22.096514404296876,2.0731306076049805,-2.593083143234253,-0.4018683135509491
1772790924564547600,22.116547607421875,1.7704765796661377,-2.575988292694092,-0.09742321074008942
1772790924584580400,22.136580322265626,1.4238343238830566,-2.364471673965454,0.10750410705804825
1772790924604613600,22.156613525390625,1.1367329359054565,-1.967984914779663,0.09478405117988586
1772790924624646400,22.176646484375,0.800289511680603,-1.4746277332305908,0.13090737164020538
1772790924644679400,22.196679443359375,0.42608213424682617,-0.8376206755638123,0.4627433717250824
1772790924664711400,22.21671142578125,0.045808158814907074,-0.15464921295642853,1.0685275793075562
1772790924684744700,22.23674462890625,-0.24258609116077423,0.5505053997039795,1.7023615837097168
1772790924704777500,22.256777587890625,-0.41630834341049194,1.1321064233779907,2.262725830078125
1772790924724810500,22.276810546875,-0.5572986602783203,1.5532970428466797,2.73671293258667
1772790924744843500,22.296843505859375,-0.7297804355621338,1.7219916582107544,3.2688393592834473
1772790924764876500,22.31687646484375,-1.1252292394638062,1.6265757083892822,4.105652332305908
1772790924784909600,22.33690966796875,-1.7037923336029053,1.1706792116165161,4.49206018447876
1772790924804941300,22.35694140625,-2.336662530899048,0.3380451500415802,4.045389652252197
1772790924824974600,22.376974609375,-2.9302542209625244,-0.4855274260044098,2.7400076389312744
1772790924845007400,22.39700732421875,-3.362672805786133,-0.9755789637565613,1.0997111797332764
1772790924865040600,22.41704052734375,-3.3920788764953613,-1.0814825296401978,-0.29741793870925903
1772790924885073400,22.437073486328124,-3.0316548347473145,-0.8460264205932617,-1.115473747253418
1772790924905106400,22.4571064453125,-2.467607259750366,-0.6373008489608765,-1.265723705291748
1772790924925139500,22.477139404296874,-1.8728240728378296,-0.5146312713623047,-1.1190752983093262
1772790924945171700,22.497171630859373,-1.3436616659164429,-0.5234717130661011,-0.9120242595672607
1772790924965204500,22.51720458984375,-0.9259018898010254,-0.6258581280708313,-0.6389126777648926
1772790924985237500,22.537237548828124,-0.6243541836738586,-0.7279655933380127,-0.44232049584388733
1772790925005270500,22.5572705078125,-0.3997572064399719,-0.8249992728233337,-0.35947057604789734
1772790925025303600,22.577303466796874,-0.26056310534477234,-0.9462053179740906,-0.366408109664917
1772790925045336600,22.597336669921877,-0.2407616674900055,-1.057405948638916,-0.36053571105003357
1772790925065368300,22.617368408203124,-0.37236207723617554,-1.1405279636383057,-0.3655543029308319
1772790925085401600,22.637401611328126,-0.5678355097770691,-1.167741298675537,-0.3340545892715454
1772790925105434400,22.657434326171874,-0.7721530199050903,-1.0638054609298706,-0.2587437927722931
1772790925125467600,22.677467529296877,-0.9241084456443787,-0.8765247464179993,-0.14291340112686157
1772790925145500400,22.69750048828125,-1.0437207221984863,-0.582230806350708,-0.06942054629325867
1772790925165533400,22.717533447265627,-1.1504610776901245,-0.2659175992012024,0.0286738108843565
1772790925185566500,22.73756640625,-1.281125545501709,0.04885464161634445,0.15356282889842987
1772790925205598700,22.7575986328125,-1.3919214010238647,0.2937459349632263,0.2763676345348358
1772790925225631500,22.777631591796876,-1.4385769367218018,0.5075332522392273,0.43711864948272705
1772790925245664500,22.79766455078125,-1.4952205419540405,0.6791231036186218,0.6148248314857483
1772790925265697500,22.817697509765626,-1.5425746440887451,0.8460701107978821,0.7965641617774963
1772790925285730600,22.83773046875,-1.4516382217407227,1.1125500202178955,0.7246557474136353
1772790925305763600,22.857763671875,-1.3468838930130005,1.3867275714874268,0.8097225427627563
1772790925325795300,22.87779541015625,-1.0729594230651855,1.5967291593551636,1.0283883810043335
1772790925345828900,22.897828857421874,-0.5567005276679993,1.709433674812317,1.1173945665359497
1772790925365862000,22.91786181640625,0.11022739112377167,1.7063010931015015,0.9715147614479065
1772790925385894700,22.937894775390625,0.8117629885673523,1.511281967163086,0.6173315644264221
1772790925405928000,22.957927978515624,1.4183156490325928,1.1051199436187744,0.17627771198749542
1772790925425960700,22.977960693359375,1.8487886190414429,0.6580147743225098,-0.2282213419675827
1772790925445994000,22.997993896484374,2.0718142986297607,0.2740064561367035,-0.44454872608184814
1772790925466025700,23.018025634765625,2.1474030017852783,0.06473354250192642,-0.46601375937461853
1772790925486058800,23.038058837890624,2.163470983505249,0.0714331865310669,-0.312057763338089
1772790925506091800,23.058091796875,2.2073845863342285,0.3616131842136383,-0.1437235176563263
1772790925526124800,23.078124755859374,2.2858877182006836,0.8297595977783203,-0.024583693593740463
1772790925546157800,23.09815771484375,2.3428571224212646,1.383408784866333,0.04789605364203453
1772790925566190600,23.118190673828124,2.3095014095306396,1.9029004573822021,0.05738113820552826
1772790925586222800,23.138222900390623,2.220804452896118,2.32680606842041,0.04832376167178154
1772790925606255900,23.158255859375,2.0619449615478516,2.6426162719726562,0.051619112491607666
1772790925626289000,23.178288818359373,1.8871939182281494,2.795226573944092,0.05974596366286278
1772790925646321700,23.19832177734375,1.7551912069320679,2.87876033782959,0.05222194269299507
1772790925666355000,23.21835498046875,1.681239366531372,2.9298455715179443,0.08324670046567917
1772790925686387700,23.2383876953125,1.6808165311813354,2.9328761100769043,0.07663232833147049
1772790925706421000,23.2584208984375,1.740640640258789,2.836702585220337,0.03175289183855057
1772790925726452700,23.27845263671875,1.84763503074646,2.6013715267181396,-0.05778298154473305
1772790925746485800,23.29848583984375,1.9862104654312134,2.208064556121826,-0.20524074137210846
1772790925766518800,23.318518798828126,2.1117653846740723,1.6764463186264038,-0.3782850503921509
1772790925786551800,23.3385517578125,2.1781206130981445,1.0524213314056396,-0.540992021560669
1772790925806584800,23.358584716796877,2.1807913780212402,0.42323634028434753,-0.6687503457069397
1772790925826617600,23.37861767578125,2.1024811267852783,-0.14157043397426605,-0.7202668190002441
1772790925846649900,23.39864990234375,1.951974868774414,-0.6471912860870361,-0.709809422492981
1772790925866683000,23.418682861328126,1.7663179636001587,-1.055313229560852,-0.6132449507713318
1772790925886716000,23.4387158203125,1.556174635887146,-1.3314460515975952,-0.48394209146499634
1772790925906748700,23.458748779296876,1.3315826654434204,-1.5190290212631226,-0.3175375759601593
1772790925926782000,23.478781982421875,1.0699450969696045,-1.5972578525543213,-0.14022889733314514
1772790925946814700,23.498814697265626,0.7239477634429932,-1.577048897743225,0.04991491138935089
1772790925966846700,23.5188466796875,0.34828174114227295,-1.4637415409088135,0.29536089301109314
1772790925986879700,23.538879638671876,-0.03066733106970787,-1.275028944015503,0.553884744644165
1772790926006912800,23.558912841796875,-0.3669659197330475,-1.131192684173584,0.7350648641586304
1772790926026945800,23.57894580078125,-0.6612581610679626,-0.9364015460014343,0.7766926288604736
1772790926046978800,23.598978759765625,-0.8729997873306274,-0.6175033450126648,0.6911711096763611
1772790926067011800,23.61901171875,-1.0162570476531982,-0.34319868683815,0.6796331405639648
1772790926087044600,23.639044677734375,-1.1733248233795166,-0.06360136717557907,0.9259402751922607
1772790926107076900,23.659076904296874,-1.369720697402954,0.1302531659603119,1.594090461730957
1772790926127110000,23.67910986328125,-1.5797032117843628,0.32574212551116943,2.511817693710327
1772790926147143000,23.699142822265625,-1.6933892965316772,0.44671952724456787,3.4174864292144775
1772790926167175700,23.71917578125,-1.7467529773712158,0.3900967240333557,4.025041103363037
1772790926187209000,23.739208984375,-1.9258381128311157,-0.005685912445187569,4.043367385864258
1772790926207241700,23.75924169921875,-2.398681879043579,-0.8326024413108826,3.399092435836792
1772790926227275000,23.77927490234375,-3.000903606414795,-1.6098551750183105,1.9780793190002441
1772790926247306800,23.799306640625,-3.4331307411193848,-1.9277913570404053,0.13948966562747955
1772790926267339800,23.81933984375,-3.607937812805176,-1.8135424852371216,-1.308938980102539
1772790926287372800,23.839372802734374,-3.5615243911743164,-1.252797245979309,-2.274064779281616
1772790926307405800,23.85940576171875,-3.2500462532043457,-0.19777143001556396,-2.808875322341919
1772790926327438800,23.87943896484375,-2.7030744552612305,0.9645510911941528,-2.831674337387085
1772790926347471400,23.899471435546875,-2.120711326599121,1.6742428541183472,-2.5620360374450684
1772790926367503600,23.919503662109374,-1.5567536354064941,1.6969268321990967,-2.2129242420196533
1772790926387536600,23.93953662109375,-0.9952739477157593,1.1430383920669556,-1.9844629764556885
1772790926407569700,23.959569580078124,-0.40858569741249084,0.29515087604522705,-1.903160810470581
1772790926427602400,23.9796025390625,0.16074952483177185,-0.4921415150165558,-1.8860715627670288
1772790926447635700,23.9996357421875,0.6432709693908691,-1.3209530115127563,-1.8341965675354004
1772790926467668500,24.01966845703125,0.9820843935012817,-2.0720698833465576,-1.656966209411621
1772790926487700500,24.039700439453124,1.1603741645812988,-2.7017412185668945,-1.289760947227478
1772790926507733500,24.0597333984375,1.1932729482650757,-3.1108999252319336,-0.8614362478256226
1772790926527766500,24.0797666015625,1.1586906909942627,-3.2586605548858643,-0.42870309948921204
1772790926547799600,24.099799560546874,1.07647705078125,-3.2003061771392822,-0.058123160153627396
1772790926567832600,24.11983251953125,0.9457745552062988,-2.9104208946228027,0.2523224353790283
1772790926587865600,24.139865478515624,0.8205587267875671,-2.5052647590637207,0.49448442459106445
1772790926607897600,24.159897705078127,0.7021204829216003,-1.9731522798538208,0.6551936268806458
1772790926627930600,24.1799306640625,0.5027443766593933,-1.4713330268859863,0.7721677422523499
1772790926647963600,24.199963623046877,0.24465568363666534,-1.0041182041168213,0.7679630517959595
1772790926667996700,24.21999658203125,-0.19335271418094635,-0.7231711149215698,0.7874730229377747
1772790926688029400,24.240029541015623,-0.6577528715133667,-0.4565165042877197,0.7648941874504089
1772790926708062700,24.260062744140626,-0.8428740501403809,-0.09066563099622726,0.6654291152954102
1772790926728095500,24.280095458984373,-0.7323493361473083,0.3686503767967224,0.7791199684143066
1772790926748127500,24.30012744140625,-0.5622092485427856,0.8239966034889221,1.383316993713379
1772790926768160500,24.320160400390623,-0.5076882839202881,1.0475808382034302,2.1283228397369385
1772790926788193500,24.340193603515626,-0.5667926669120789,0.9934102296829224,2.4310383796691895
1772790926808226600,24.3602265625,-0.689948320388794,0.7730283141136169,1.9726831912994385
1772790926828259600,24.380259521484376,-0.8315444588661194,0.35816508531570435,1.0430331230163574
1772790926848292600,24.400292724609375,-1.0549774169921875,0.13184653222560883,-0.05591324716806412
1772790926868324600,24.42032470703125,-1.1795580387115479,0.16185909509658813,-1.0564404726028442
1772790926888357600,24.440357666015625,-1.060160517692566,0.41117343306541443,-1.7543612718582153
1772790926908390400,24.460390380859376,-0.737250030040741,0.9020459055900574,-2.084331750869751
1772790926928423700,24.480423583984376,-0.32041144371032715,1.3218451738357544,-2.146480083465576
1772790926948456400,24.50045654296875,0.04773055389523506,1.4164334535598755,-1.9324899911880493
1772790926968489700,24.52048974609375,0.2660679519176483,1.2350292205810547,-1.5311951637268066
1772790926988521500,24.540521484375,0.3678279221057892,0.8527576327323914,-1.0812286138534546
1772790927008554500,24.560554443359376,0.47417882084846497,0.5079386234283447,-0.660819411277771
1772790927028587500,24.58058740234375,0.6616443395614624,0.35354527831077576,-0.2974514663219452
1772790927048620500,24.60062060546875,0.8578518629074097,0.44682613015174866,-0.03851514309644699
1772790927068653600,24.620653564453125,1.075738787651062,0.708920955657959,0.13491161167621613
1772790927088686600,24.6406865234375,1.2783620357513428,1.0096449851989746,0.2772306203842163
1772790927108719600,24.6607197265625,1.396992802619934,1.3995815515518188,0.4059767723083496
1772790927128751600,24.680751708984374,1.4453160762786865,1.728633165359497,0.5506021976470947
1772790927148784600,24.70078466796875,1.4398804903030396,2.0505802631378174,0.681829571723938
1772790927168817400,24.7208173828125,1.4047268629074097,2.260997772216797,0.741344690322876
1772790927188850700,24.7408505859375,1.4184706211090088,2.368518590927124,0.7017648816108704
1772790927208883500,24.760883544921874,1.4718785285949707,2.428022623062134,0.6525222659111023
1772790927228916700,24.780916748046874,1.5868974924087524,2.374648094177246,0.6091259717941284
1772790927248948500,24.800948486328124,1.7708518505096436,2.2426493167877197,0.5663891434669495
1772790927268981500,24.8209814453125,1.9792191982269287,1.971145749092102,0.5667208433151245
1772790927289014500,24.8410146484375,2.1585917472839355,1.5754399299621582,0.6037015914916992
1772790927309047600,24.861047607421874,2.280247211456299,1.0500446557998657,0.5948172211647034
1772790927329080600,24.88108056640625,2.3195314407348633,0.4734545648097992,0.5451703071594238
1772790927349113300,24.90111328125,2.2582972049713135,-0.1493896245956421,0.5029250383377075
1772790927369145300,24.921145263671875,2.1474456787109375,-0.7716318368911743,0.42085734009742737
1772790927389178400,24.941178466796874,2.0002524852752686,-1.3214890956878662,0.3118192255496979
1772790927409211400,24.96121142578125,1.8041805028915405,-1.7697480916976929,0.2703413963317871
1772790927429244200,24.981244140625,1.5761798620224,-2.037759304046631,0.31398531794548035
1772790927449277200,25.001277099609375,1.3810333013534546,-2.1304399967193604,0.38116782903671265
1772790927469310200,25.021310302734374,1.2254040241241455,-2.0777316093444824,0.4254676401615143
1772790927489342200,25.04134228515625,1.061667799949646,-1.9300845861434937,0.43365490436553955
1772790927509375200,25.061375244140624,0.9284868240356445,-1.7298251390457153,0.5056171417236328
1772790927529408300,25.081408203125,0.8641206622123718,-1.4864345788955688,0.6551213264465332
1772790927549441300,25.101441162109374,0.8883162140846252,-1.1659362316131592,0.8376952409744263
1772790927569474300,25.121474365234373,0.8938639760017395,-0.8083751797676086,0.9899967908859253
1772790927589507300,25.14150732421875,0.7069591283798218,-0.5741255879402161,1.1374759674072266
