time,seconds_elapsed,z,y,x
1772790273902940000,0.07193994140625,0.858788251876831,0.7366266250610352,-0.42133793234825134
1772790273922973700,0.0919736328125,0.8193262815475464,0.6992782354354858,-0.4076897203922272
1772790273943008800,0.1120087890625,0.7842342853546143,0.7425801157951355,-0.3520507514476776
1772790273963042800,0.132042724609375,0.757578432559967,0.7587404251098633,-0.21274539828300476
1772790273983076600,0.15207666015625,0.7801366448402405,0.6378360390663147,-0.0716761127114296
1772790274003111700,0.172111572265625,0.93065345287323,0.5455225706100464,-0.21514247357845306
1772790274023145700,0.192145751953125,0.9778105616569519,0.35121986269950867,-0.3219183385372162
1772790274043179800,0.2121796875,0.9893360137939453,0.08532626181840897,-0.2865886092185974
1772790274063214800,0.23221484375,1.0509775876998901,0.08288237452507019,-0.28704801201820374
1772790274083248600,0.25224853515625,1.0361958742141724,0.1369013786315918,-0.18991702795028687
1772790274103282700,0.27228271484375,0.9122516512870789,0.2380174845457077,-0.027775505557656288
1772790274123317800,0.29231787109375,0.693874180316925,0.5362557768821716,0.08839038759469986
1772790274143351800,0.312351806640625,0.5865875482559204,1.0787568092346191,0.07890128344297409
1772790274163386600,0.33238671875,0.6526704430580139,1.4517351388931274,0.00614110566675663
1772790274183420700,0.352420654296875,0.764580488204956,1.7838249206542969,-0.19083398580551147
1772790274203454700,0.372454833984375,1.0705864429473877,1.9639097452163696,-0.19793741405010223
1772790274223489800,0.39248974609375,1.5509727001190186,2.2728641033172607,-0.023411130532622337
1772790274243523600,0.412523681640625,1.9655042886734009,2.270205020904541,0.3594761788845062
1772790274263557600,0.4325576171875,2.412708282470703,1.9415085315704346,0.42821794748306274
1772790274283592700,0.4525927734375,2.752744197845459,1.5953965187072754,0.25082170963287354
1772790274303626800,0.472626708984375,2.6437642574310303,1.3093314170837402,0.3379414975643158
1772790274323660500,0.49266064453125,2.4194414615631104,1.1341955661773682,0.7834873795509338
1772790274343695600,0.512695556640625,2.3248419761657715,1.650284767150879,1.0497125387191772
1772790274363729700,0.532729736328125,2.2735321521759033,2.700052499771118,1.0812842845916748
1772790274383763700,0.552763671875,2.0521836280822754,3.795365333557129,1.3148720264434814
1772790274403798500,0.572798583984375,1.8965215682983398,4.568411827087402,1.9380426406860352
1772790274423832600,0.59283251953125,2.0251078605651855,4.796469688415527,2.759209632873535
1772790274443866600,0.61286669921875,1.7516859769821167,5.074619293212891,3.354985475540161
1772790274463901700,0.632901611328125,1.105841040611267,5.214231014251709,3.6557047367095947
1772790274483935500,0.652935546875,0.307249516248703,5.076481819152832,3.6186273097991943
1772790274503969800,0.6729697265625,-0.6008973121643066,4.647045612335205,3.3794848918914795
1772790274524004600,0.693004638671875,-1.5367941856384277,4.172922134399414,3.175421714782715
1772790274544038700,0.71303857421875,-2.378847122192383,3.4658076763153076,3.1135692596435547
1772790274564073700,0.73307373046875,-3.188739776611328,2.837953805923462,3.014662265777588
1772790274584107500,0.753107421875,-3.931715488433838,2.211846113204956,3.007779598236084
1772790274604141800,0.773141845703125,-4.654280185699463,1.7925487756729126,3.029635429382324
1772790274624176600,0.7931767578125,-5.224938869476318,1.4861738681793213,3.0209124088287354
1772790274644210700,0.813210693359375,-5.622723579406738,1.1509931087493896,3.350206136703491
1772790274664244700,0.83324462890625,-5.839437007904053,0.8688715696334839,4.07098388671875
1772790274684279800,0.85327978515625,-6.299131870269775,0.8336507081985474,4.84073543548584
1772790274704312800,0.873312744140625,-7.00602912902832,1.0953900814056396,5.50632381439209
1772790274724347000,0.893346923828125,-7.719364643096924,0.9939401149749756,5.912795543670654
1772790274744382000,0.9133818359375,-8.49553108215332,0.16805623471736908,5.68043851852417
1772790274764415700,0.933415771484375,-9.498818397521973,-0.885134756565094,4.43790864944458
1772790274784449800,0.95344970703125,-10.22187328338623,-1.3073372840881348,2.1607346534729004
1772790274804484900,0.97348486328125,-10.772139549255371,-1.0990163087844849,0.4370115399360657
1772790274824519000,0.993518798828125,-10.26633071899414,-1.177917242050171,-0.017489489167928696
1772790274844552700,1.013552734375,-9.496374130249023,-0.6889985203742981,0.2910815477371216
1772790274864587800,1.033587890625,-7.874852657318115,-0.4495716094970703,0.7793156504631042
1772790274884621800,1.053621826171875,-5.25639533996582,-0.31838497519493103,1.2661478519439697
1772790274904655600,1.073655517578125,-2.8239524364471436,-0.5197700262069702,1.7159727811813354
1772790274924690700,1.093690673828125,-1.2160769701004028,-1.1833211183547974,1.6438349485397339
1772790274944724700,1.113724853515625,-0.5336161255836487,-2.100710868835449,0.9091537594795227
1772790274964758800,1.1337587890625,-0.601179838180542,-3.148653507232666,-0.35970690846443176
1772790274984793900,1.1537939453125,-1.0832669734954834,-4.1398539543151855,-1.977897047996521
1772790275004827600,1.17382763671875,-2.1540658473968506,-4.96900749206543,-3.6046266555786133
1772790275024861700,1.19386181640625,-3.5230324268341064,-5.608579635620117,-4.771940231323242
1772790275044896800,1.213896728515625,-4.65173864364624,-5.757988929748535,-5.573878288269043
1772790275064930800,1.233930908203125,-5.2304487228393555,-5.176904678344727,-6.091042995452881
1772790275084964900,1.25396484375,-5.237028121948242,-4.022075653076172,-6.274805545806885
1772790275104999700,1.273999755859375,-4.851665496826172,-2.494502067565918,-6.047095775604248
1772790275125033700,1.29403369140625,-4.260310649871826,-0.9972577095031738,-5.365548133850098
1772790275145067800,1.31406787109375,-3.5893595218658447,0.2629530429840088,-4.249480247497559
1772790275165102800,1.334102783203125,-2.7752881050109863,1.0700650215148926,-2.8977138996124268
1772790275185137000,1.354136962890625,-1.9184931516647339,1.2794742584228516,-1.538274884223938
1772790275205171700,1.374171630859375,-1.1126493215560913,0.870012640953064,-0.5794488191604614
1772790275225206000,1.3942060546875,-0.38611915707588196,-0.09178978949785233,-0.11252809315919876
1772790275245239800,1.41423974609375,0.20174628496170044,-1.5306966304779053,0.004856243263930082
1772790275265275000,1.43427490234375,0.40864676237106323,-2.812610149383545,-0.13730350136756897
1772790275285309000,1.454308837890625,0.4051242470741272,-3.559516429901123,-0.34171104431152344
1772790275305343000,1.474343017578125,0.35276496410369873,-3.878674268722534,-0.34100329875946045
1772790275325377800,1.494377685546875,0.27711132168769836,-3.6986000537872314,-0.23197989165782928
1772790275345411800,1.514411865234375,0.24005825817584991,-2.699213743209839,-0.12631747126579285
1772790275365446000,1.53444580078125,0.5378978848457336,-1.5590327978134155,0.052018001675605774
1772790275385481000,1.55448095703125,1.2148804664611816,-0.5227457880973816,0.3018532395362854
1772790275405514800,1.5745146484375,2.1111249923706055,0.5125386118888855,0.507142961025238
1772790275425548800,1.594548828125,2.8662378787994385,1.4813882112503052,0.8907201290130615
1772790275445584000,1.614583984375,3.3177988529205322,2.3316478729248047,1.6576274633407593
1772790275465618000,1.634617919921875,3.581155776977539,3.0113112926483154,2.668203115463257
1772790275485651700,1.654651611328125,3.9154999256134033,3.3926594257354736,3.37791109085083
1772790275505686800,1.674686767578125,4.289196968078613,3.394242525100708,3.665276288986206
1772790275525720800,1.694720947265625,4.762923240661621,2.9680511951446533,3.5878047943115234
1772790275545755000,1.7147548828125,5.26983118057251,2.4392149448394775,3.31425404548645
1772790275565789700,1.734789794921875,5.716271877288818,1.8366276025772095,3.0044004917144775
1772790275585823700,1.75482373046875,6.080738067626953,1.4058971405029297,2.7861745357513428
1772790275605857800,1.77485791015625,6.379878520965576,1.0871490240097046,2.5704050064086914
1772790275625892900,1.794892822265625,6.597163677215576,0.9127225279808044,2.2024106979370117
1772790275645926700,1.8149267578125,6.666999816894531,0.9600568413734436,1.6689178943634033
1772790275665960700,1.834960693359375,6.663468360900879,0.9346214532852173,1.1272294521331787
1772790275685995800,1.854995849609375,6.559902191162109,0.6754842400550842,0.8666126728057861
1772790275706030000,1.875030029296875,6.390877723693848,0.21501538157463074,0.923061728477478
1772790275726063900,1.89506396484375,6.189237117767334,-0.2377605140209198,1.0989328622817993
1772790275746099000,1.915098876953125,5.9673590660095215,-0.7147886753082275,1.2761846780776978
1772790275766133000,1.935133056640625,5.712968826293945,-1.1670541763305664,1.4041320085525513
1772790275786168000,1.95516796875,5.421280384063721,-1.5447577238082886,1.512576699256897
1772790275806202000,1.9752021484375,5.067992687225342,-1.7485772371292114,1.6527457237243652
1772790275826236000,1.99523583984375,4.680172443389893,-1.7247360944747925,1.830210566520691
1772790275846271000,2.01527099609375,4.318664073944092,-1.4365723133087158,2.0037841796875
1772790275866305000,2.035304931640625,3.993006706237793,-0.9349314570426941,2.2474348545074463
1772790275886339000,2.055339111328125,3.7681829929351807,-0.3168022036552429,2.5901403427124023
1772790275906374000,2.075373779296875,3.6244280338287354,0.34375664591789246,2.999077320098877
1772790275926408000,2.095407958984375,3.5153746604919434,0.9147048592567444,3.4508700370788574
1772790275946442200,2.115442138671875,3.4153079986572266,1.3403220176696777,3.8386435508728027
1772790275966477000,2.13547705078125,3.2570531368255615,1.5336545705795288,3.9091429710388184
1772790275986511000,2.155510986328125,3.0359761714935303,1.4354132413864136,3.632650852203369
1772790276006545200,2.175545166015625,2.5550239086151123,0.8696554899215698,3.0937225818634033
1772790276026580000,2.195580078125,1.7900025844573975,-0.1104491725564003,2.3020801544189453
1772790276046614300,2.2156142578125,0.808131992816925,-1.2371927499771118,1.2430044412612915
1772790276066648000,2.23564794921875,-0.35088059306144714,-2.4489526748657227,-0.03548001870512962
1772790276086683100,2.25568310546875,-1.681361198425293,-3.09724760055542,-1.4197909832000732
1772790276106717200,2.27571728515625,-3.3416738510131836,-2.8902060985565186,-2.3125693798065186
1772790276126751000,2.2957509765625,-5.321213245391846,-2.0142929553985596,-2.170016288757324
1772790276146786000,2.3157861328125,-6.7088446617126465,-0.9680357575416565,-1.3513253927230835
1772790276166820000,2.335820068359375,-6.804022789001465,0.05009795352816582,-0.7488535046577454
1772790276186854100,2.355854248046875,-6.371465682983398,0.6621920466423035,-0.5297309756278992
1772790276206889200,2.37588916015625,-6.180553913116455,0.6687178015708923,-0.6716294288635254
1772790276226923000,2.395923095703125,-6.26483678817749,0.24999147653579712,-1.1291429996490479
1772790276246957000,2.41595703125,-6.559078216552734,-0.21565042436122894,-1.8388252258300781
1772790276266992000,2.4359921875,-7.06501579284668,-0.3809354305267334,-2.4057517051696777
1772790276287026200,2.456026123046875,-7.566622257232666,-0.14653682708740234,-2.2204749584198
1772790276307060000,2.47606005859375,-7.936822414398193,0.050734709948301315,-1.2358721494674683
1772790276327095000,2.496094970703125,-8.02902603149414,-0.005218230187892914,-0.3260660767555237
1772790276347129000,2.516129150390625,-7.812076568603516,-0.16382759809494019,-0.06878640502691269
1772790276367163000,2.536162841796875,-7.353360176086426,-0.4829230010509491,-0.4087580442428589
1772790276387198000,2.556197998046875,-6.163229942321777,-1.3897545337677002,-0.9677402973175049
1772790276407232000,2.57623193359375,-4.331191062927246,-3.1054701805114746,-1.4170693159103394
1772790276427267000,2.59626708984375,-2.58783221244812,-5.020434856414795,-1.5074924230575562
1772790276447301000,2.616301025390625,-1.173076868057251,-6.328711032867432,-1.5059653520584106
1772790276467335000,2.6363349609375,-0.3118973672389984,-6.794840335845947,-1.5086321830749512
1772790276487370000,2.656369873046875,-0.06353956460952759,-6.52294397354126,-1.3015055656433105
1772790276507404000,2.676404052734375,-0.26757296919822693,-5.718997955322266,-0.9248395562171936
1772790276527438000,2.69643798828125,-0.5511666536331177,-4.623772144317627,-0.6337928175926208
1772790276547473000,2.716472900390625,-0.7970818281173706,-3.3317654132843018,-0.5624568462371826
1772790276567507000,2.7365068359375,-0.9586744904518127,-1.8944580554962158,-0.7254807949066162
1772790276587541000,2.756541015625,-1.0537775754928589,-0.8746610879898071,-0.9238622188568115
1772790276607576000,2.776576171875,-1.1067510843276978,-0.45928215980529785,-1.0470582246780396
1772790276627609900,2.79660986328125,-1.1418672800064087,-0.3144838809967041,-1.2784594297409058
1772790276647644200,2.81664404296875,-1.2967368364334106,-0.21430684626102448,-1.5634204149246216
1772790276667679000,2.836678955078125,-1.816429853439331,-0.37504953145980835,-1.6595715284347534
1772790276687713000,2.856713134765625,-2.329838752746582,-0.529491126537323,-1.7367855310440063
1772790276707750400,2.87675048828125,-2.2772810459136963,-0.20801450312137604,-2.061788558959961
1772790276727784400,2.896784423828125,-1.8867074251174927,0.6249189972877502,-2.0462512969970703
1772790276747818200,2.916818359375,-1.2468429803848267,1.3930974006652832,-1.4976129531860352
1772790276767853300,2.936853271484375,-0.22160665690898895,1.5146387815475464,-0.630919337272644
1772790276787887400,2.956887451171875,1.0810320377349854,0.7840462923049927,0.2884489893913269
1772790276807921400,2.97692138671875,2.2498762607574463,-0.04223509505391121,1.0511070489883423
1772790276827956200,2.996956298828125,3.2309153079986572,-0.7543162703514099,1.5746434926986694
1772790276847990300,3.016990234375,3.905055046081543,-1.071855068206787,1.982934832572937
1772790276868024300,3.0370244140625,4.2326555252075195,-0.8057400584220886,2.4519259929656982
1772790276888059400,3.057059326171875,4.208847999572754,-0.15168306231498718,3.0292727947235107
1772790276908093200,3.07709326171875,4.115782260894775,0.7574304938316345,3.574974536895752
1772790276928127200,3.097127197265625,4.096120834350586,1.7273156642913818,3.905339241027832
1772790276948162300,3.117162353515625,4.176933288574219,2.580662250518799,4.145533561706543
1772790276968196400,3.1371962890625,4.399745941162109,3.3457939624786377,4.325917720794678
1772790276988230100,3.157230224609375,4.794475555419922,3.9171979427337646,4.367598056793213
1772790277008265200,3.17726513671875,5.291940689086914,4.272679328918457,4.251969814300537
1772790277028299300,3.19729931640625,5.814902305603027,4.405815124511719,4.030154705047607
1772790277048334300,3.217334228515625,6.275174140930176,4.362603664398193,3.705432176589966
1772790277068368100,3.2373681640625,6.443111419677734,4.146955966949463,3.2412023544311523
1772790277088402200,3.257402099609375,6.153892993927002,3.771219253540039,2.569103956222534
1772790277108437200,3.277437255859375,5.386561870574951,3.1511318683624268,1.7430545091629028
1772790277128471300,3.29747119140625,4.272667407989502,2.054460048675537,0.8667311668395996
1772790277148505000,3.317505126953125,3.18648099899292,0.6286097764968872,-0.07641888409852982
1772790277168540200,3.3375400390625,2.3673949241638184,-0.7610533833503723,-1.0524533987045288
1772790277188574200,3.35757421875,1.77833092212677,-1.6771254539489746,-1.8164352178573608
1772790277208608500,3.3776083984375,1.3657734394073486,-2.2620272636413574,-2.1896491050720215
1772790277228643300,3.397643310546875,1.174321174621582,-2.4695141315460205,-2.2145423889160156
1772790277248677400,3.417677490234375,1.1069246530532837,-2.194679021835327,-1.8915915489196777
1772790277268711400,3.43771142578125,1.0280311107635498,-1.5647220611572266,-1.3267349004745483
1772790277288746200,3.457746337890625,1.015913963317871,-0.9872552752494812,-0.7907100319862366
1772790277308780300,3.4777802734375,0.9092767238616943,-0.5020477771759033,-0.5218298435211182
1772790277328814300,3.497814453125,0.6487010717391968,-0.047332119196653366,-0.7455312609672546
1772790277348849400,3.517849365234375,0.21736860275268555,0.21196463704109192,-1.0807762145996094
1772790277368883500,3.537883544921875,-0.4027925431728363,0.23703663051128387,-0.8076230883598328
1772790277388917200,3.557917236328125,-1.14277184009552,0.1750716269016266,0.34045568108558655
1772790277408952300,3.577952392578125,-1.84848153591156,0.06967026740312576,1.9271188974380493
1772790277428986400,3.597986328125,-2.4430248737335205,0.09288181364536285,2.9750876426696777
1772790277449020400,3.6180205078125,-2.735616683959961,0.11878567934036255,3.208784580230713
1772790277469055500,3.638055419921875,-2.7389750480651855,-0.13075630366802216,3.053845167160034
1772790277489089300,3.65808935546875,-2.675523042678833,-0.8578418493270874,2.8650271892547607
1772790277509123300,3.678123291015625,-2.9364235401153564,-1.6741222143173218,2.5272257328033447
1772790277529158400,3.698158447265625,-3.196063995361328,-2.0664710998535156,1.7785835266113281
1772790277549192200,3.718192138671875,-3.396885633468628,-1.909351110458374,0.6872497200965881
1772790277569226200,3.738226318359375,-3.643732786178589,-1.290287733078003,-0.3923523426055908
1772790277589261300,3.75826123046875,-3.918154001235962,-0.4553526043891907,-1.1912643909454346
1772790277609295400,3.77829541015625,-4.036849498748779,0.3510192036628723,-1.667319655418396
1772790277629329200,3.7983291015625,-4.114270210266113,0.9437988996505737,-1.70268976688385
1772790277649364200,3.8183642578125,-4.09898042678833,1.0579279661178589,-1.2872658967971802
1772790277669398300,3.838398193359375,-3.961951732635498,0.7150791883468628,-0.6731197237968445
1772790277689432300,3.858432373046875,-3.68992280960083,0.2211131602525711,-0.12699884176254272
1772790277709468000,3.878468017578125,-3.235905408859253,-0.2894837558269501,0.2234194427728653
1772790277729501700,3.898501708984375,-2.6374573707580566,-0.7473830580711365,0.47496578097343445
1772790277749536800,3.918536865234375,-1.9731634855270386,-1.1961473226547241,0.6327582597732544
1772790277769570800,3.93857080078125,-1.4159284830093384,-1.4430583715438843,0.6212431192398071
1772790277789604900,3.95860498046875,-0.9777498245239258,-1.6175153255462646,0.3868520259857178
1772790277809639700,3.9786396484375,-0.7586885690689087,-1.6666600704193115,-0.07834604382514954
1772790277829673700,3.998673828125,-0.8345329165458679,-1.7013969421386719,-0.618876039981842
1772790277849705700,4.018705810546875,-1.2174841165542603,-1.6326038837432861,-1.0932186841964722
1772790277869739800,4.03873974609375,-1.5376242399215698,-1.5533925294876099,-1.4097226858139038
1772790277889774800,4.05877490234375,-1.6313894987106323,-1.3600293397903442,-1.512929081916809
1772790277909809000,4.078808837890625,-1.569624900817871,-1.0892523527145386,-1.4206466674804688
1772790277929842700,4.0988427734375,-1.4730843305587769,-0.8206114172935486,-1.2548320293426514
1772790277949877800,4.118877685546875,-1.4206743240356445,-0.6529171466827393,-1.0270224809646606
1772790277969911800,4.138911865234375,-1.367624282836914,-0.6336348056793213,-0.6600220203399658
1772790277989945900,4.15894580078125,-1.1627153158187866,-0.673994779586792,-0.2867044508457184
1772790278009981000,4.17898095703125,-0.7432363033294678,-0.5392529964447021,-0.1461072713136673
1772790278030014700,4.1990146484375,-0.26157456636428833,-0.030778247863054276,-0.23219938576221466
1772790278050048800,4.219048828125,0.1279924064874649,0.7624539136886597,-0.22452357411384583
1772790278070083800,4.239083740234375,0.6664924621582031,1.5894463062286377,-0.05507640540599823
1772790278090117600,4.25911767578125,1.5416393280029297,1.9553533792495728,0.16990122199058533
1772790278110151700,4.279151611328125,2.4282445907592773,1.6539374589920044,0.3166923224925995
1772790278130186800,4.299186767578125,3.067392349243164,1.0414834022521973,0.27660802006721497
1772790278150220800,4.319220703125,3.465566873550415,0.34330981969833374,0.050437286496162415
1772790278170254600,4.339254638671875,3.6765553951263428,-0.15293917059898376,-0.1544332355260849
1772790278190289700,4.35928955078125,3.7315633296966553,-0.3760881721973419,-0.033756207674741745
1772790278210323700,4.37932373046875,3.7919816970825195,-0.23698239028453827,0.29496219754219055
1772790278230357800,4.399357666015625,3.8585803508758545,0.20297646522521973,0.7429801821708679
1772790278250395600,4.419395751953125,3.8804335594177246,0.8456169366836548,1.2635118961334229
1772790278270430700,4.4394306640625,3.9138708114624023,1.6236213445663452,1.676712989807129
1772790278290464800,4.45946484375,3.991647720336914,2.3370308876037598,1.8522437810897827
1772790278310498800,4.479498779296875,4.060550689697266,2.8862228393554688,1.892737627029419
1772790278330533600,4.49953369140625,4.140068531036377,3.2440738677978516,1.812448501586914
1772790278350568000,4.51956787109375,4.068411827087402,3.4356508255004883,1.5522677898406982
1772790278370602000,4.53960205078125,3.7660114765167236,3.3949432373046875,1.127395749092102
1772790278390636800,4.55963671875,3.406996250152588,2.894368886947632,0.5765486359596252
1772790278410670800,4.5796708984375,2.9801061153411865,2.0414273738861084,0.018196120858192444
1772790278430705000,4.599704833984375,2.6135036945343018,1.0200111865997314,-0.5449167490005493
1772790278450740000,4.619739990234375,2.3332114219665527,-0.010423257946968079,-1.1143115758895874
1772790278470773800,4.639773681640625,2.07468318939209,-0.909833550453186,-1.5448886156082153
1772790278490807800,4.659807861328125,1.7764569520950317,-1.6677143573760986,-1.884687066078186
1772790278510843000,4.6798427734375,1.4991024732589722,-2.109426975250244,-2.059680938720703
1772790278530877000,4.699876953125,1.2854810953140259,-2.3814754486083984,-1.9123567342758179
1772790278550910700,4.71991064453125,1.2506134510040283,-2.2146847248077393,-1.5194330215454102
1772790278570945800,4.73994580078125,1.482208013534546,-1.7619858980178833,-1.011462926864624
1772790278590979800,4.759979736328125,1.741276741027832,-1.0676214694976807,-0.524944543838501
1772790278611014000,4.780013916015625,1.7822520732879639,-0.38880395889282227,-0.2966296374797821
1772790278631049000,4.800049072265625,1.5642086267471313,0.10645995289087296,-0.02713804319500923
1772790278651082800,4.820082763671875,1.2241365909576416,0.3480781316757202,0.4941583573818207
1772790278671117800,4.840117919921875,0.8117139935493469,0.3215366303920746,1.062727928161621
1772790278691152000,4.86015185546875,0.2801811397075653,0.21608203649520874,1.6677463054656982
1772790278711185700,4.880185546875,-0.4857909083366394,0.22002267837524414,2.1871232986450195
1772790278731220500,4.900220458984375,-1.3712769746780396,0.19996778666973114,2.3260726928710938
1772790278751254500,4.920254638671875,-2.1663599014282227,-0.007383322808891535,2.1536436080932617
1772790278771288600,4.94028857421875,-2.727086067199707,-0.3552296757698059,1.7957098484039307
1772790278791323600,4.96032373046875,-3.1186423301696777,-0.47119852900505066,1.267149806022644
1772790278811357400,4.980357421875,-3.4461543560028076,-0.45442163944244385,0.7457756996154785
1772790278831391500,5.0003916015625,-3.783771276473999,-0.40066781640052795,0.5313127636909485
1772790278851426600,5.020426513671875,-4.122325897216797,-0.21458610892295837,0.5669085383415222
1772790278871460600,5.040460693359375,-4.424763202667236,0.04503371939063072,0.713836669921875
1772790278891494400,5.060494384765625,-4.617349147796631,0.37721994519233704,0.8725717663764954
1772790278911529500,5.080529541015625,-4.668728828430176,0.6265196204185486,1.0564523935317993
1772790278931563500,5.1005634765625,-4.595073223114014,0.7031077146530151,1.2658796310424805
1772790278951597600,5.12059765625,-4.403736114501953,0.6385906934738159,1.433988094329834
1772790278971632600,5.140632568359375,-4.050131797790527,0.4670189917087555,1.5857597589492798
1772790278991666400,5.16066650390625,-3.470536947250366,0.31387367844581604,1.7195701599121094
1772790279011700700,5.18070068359375,-2.6605241298675537,0.14405503869056702,1.8369626998901367
1772790279031735600,5.200735595703125,-1.823947787284851,-0.045519813895225525,1.9491640329360962
1772790279051769600,5.22076953125,-1.143017053604126,-0.31745052337646484,1.9090584516525269
1772790279071803600,5.2408037109375,-0.6427498459815979,-0.791511058807373,1.626242756843567
1772790279091838700,5.260838623046875,-0.3196301758289337,-1.4081206321716309,1.079009771347046
1772790279111872800,5.280872802734375,-0.1293596774339676,-1.9767966270446777,0.32766953110694885
1772790279131906600,5.300906494140625,-0.05986583232879639,-2.536775827407837,-0.48917141556739807
1772790279151941600,5.320941650390625,-0.1498451828956604,-3.204446792602539,-1.1669034957885742
1772790279171975700,5.3409755859375,-0.3475281596183777,-3.8029427528381348,-1.608748197555542
1772790279192009700,5.361009765625,-0.6407858729362488,-4.216741561889648,-1.9060757160186768
1772790279212044800,5.381044921875,-1.0654531717300415,-4.4011945724487305,-2.0279617309570312
1772790279232078600,5.40107861328125,-1.4587072134017944,-4.2747979164123535,-1.9483031034469604
1772790279252112600,5.421112548828125,-1.685484528541565,-3.88230037689209,-1.810551404953003
1772790279272147700,5.441147705078125,-1.7846152782440186,-3.1027579307556152,-1.7034056186676025
1772790279292181500,5.461181396484375,-1.6908549070358276,-2.0101170539855957,-1.501623511314392
1772790279312215600,5.481215576171875,-1.305272102355957,-0.7257581949234009,-1.2140307426452637
1772790279332250600,5.501250732421875,-0.9968550205230713,0.6342722773551941,-0.7495052218437195
1772790279352284700,5.52128466796875,-0.6669959425926208,1.8895769119262695,-0.28052783012390137
1772790279372318500,5.541318359375,-0.24847711622714996,2.785539150238037,0.31291911005973816
1772790279392353500,5.561353515625,0.44345155358314514,3.0266218185424805,0.8152504563331604
1772790279412387600,5.5813876953125,1.3022756576538086,2.5804309844970703,1.031272292137146
1772790279432421600,5.601421630859375,2.0378918647766113,1.727164626121521,0.825393557548523
1772790279452456700,5.621456787109375,2.4763526916503906,0.9136138558387756,0.22335514426231384
1772790279472490500,5.641490478515625,2.533912420272827,0.41696417331695557,-0.40198108553886414
1772790279492524500,5.661524658203125,2.352592945098877,0.18845129013061523,-0.6290594339370728
1772790279512559600,5.6815595703125,2.300455331802368,0.2633887231349945,-0.4931941330432892
1772790279532593400,5.701593505859375,2.494527816772461,0.6536835432052612,-0.2400246411561966
1772790279552627500,5.72162744140625,2.7657406330108643,1.2134652137756348,0.061603982001543045
1772790279572662500,5.74166259765625,3.0366342067718506,1.8435827493667603,0.3391760587692261
1772790279592696600,5.761696533203125,3.278254985809326,2.2834064960479736,0.5759999752044678
1772790279612730600,5.781730712890625,3.4799113273620605,2.4589874744415283,0.7463294267654419
1772790279632765400,5.801765380859375,3.667970657348633,2.4303228855133057,0.7364747524261475
1772790279652799500,5.821799560546875,3.6776363849639893,2.301362991333008,0.5251420140266418
1772790279672834600,5.84183447265625,3.4915170669555664,2.0334784984588623,0.1482338160276413
1772790279692868600,5.86186865234375,3.2173824310302734,1.4845749139785767,-0.32656678557395935
1772790279712903000,5.88190283203125,2.922806978225708,0.7347589731216431,-0.8452341556549072
1772790279732938000,5.90193798828125,2.811612367630005,-0.1192491427063942,-1.3099349737167358
1772790279752971800,5.9219716796875,2.6607463359832764,-0.9053121209144592,-1.5096806287765503
1772790279773006000,5.942006103515625,2.4586398601531982,-1.3649539947509766,-1.6507105827331543
1772790279793041000,5.962041015625,2.2115590572357178,-1.4247199296951294,-1.7338144779205322
1772790279813075000,5.982074951171875,1.9593918323516846,-1.3081743717193604,-1.693724513053894
1772790279833109000,6.00210888671875,1.748917579650879,-1.1424520015716553,-1.5237383842468262
1772790279853143800,6.022143798828125,1.5898419618606567,-0.9613803029060364,-1.2751505374908447
1772790279873178000,6.04217822265625,1.423350214958191,-0.8289936780929565,-1.021226167678833
1772790279893212000,6.0622119140625,1.1713533401489258,-0.7249224781990051,-0.8271511197090149
1772790279913247000,6.0822470703125,0.8277001976966858,-0.6504437923431396,-0.6631529927253723
1772790279933281000,6.102281005859375,0.5063713788986206,-0.556727409362793,-0.47431305050849915
1772790279953315000,6.122315185546875,0.25076913833618164,-0.5253500938415527,-0.38101324439048767
1772790279973350100,6.14235009765625,-0.1534033864736557,-0.4591994285583496,-0.2277861386537552
1772790279993384000,6.162384033203125,-0.7421785593032837,-0.41192132234573364,0.19948889315128326
1772790280013418000,6.18241796875,-1.5603729486465454,-0.29200708866119385,1.0416432619094849
1772790280033453000,6.202453125,-2.4520113468170166,-0.04652089625597,1.8956103324890137
1772790280053486800,6.22248681640625,-3.0679917335510254,0.22856801748275757,2.4332830905914307
1772790280073521000,6.24252099609375,-3.303316116333008,0.20056192576885223,2.7855045795440674
1772790280093556000,6.262555908203125,-3.282107353210449,-0.19255977869033813,2.8464858531951904
1772790280113590000,6.282590087890625,-3.2959649562835693,-0.6908779740333557,2.214613437652588
1772790280133623800,6.302623779296875,-3.377763509750366,-1.058126449584961,0.8488442301750183
1772790280153659000,6.322658935546875,-3.370532274246216,-1.0730873346328735,-0.8378932476043701
1772790280173693000,6.34269287109375,-3.330069065093994,-0.6489579081535339,-2.534400224685669
1772790280193727000,6.36272705078125,-3.3789687156677246,-0.17502954602241516,-3.646179676055908
1772790280213762000,6.382761962890625,-3.5929269790649414,0.2124282419681549,-3.859724998474121
1772790280233795800,6.4027958984375,-3.6593637466430664,0.5472482442855835,-3.4307496547698975
1772790280253830000,6.422829833984375,-3.438671827316284,0.6785169243812561,-2.8797013759613037
1772790280273865000,6.442864990234375,-2.8275833129882812,0.3819116950035095,-2.481412887573242
1772790280293898800,6.462898681640625,-2.176537036895752,-0.2835698127746582,-2.1838738918304443
1772790280313932800,6.482932861328125,-1.628196120262146,-1.046454906463623,-1.9349292516708374
1772790280333968000,6.5029677734375,-1.21444571018219,-1.7867275476455688,-1.7475160360336304
1772790280354002000,6.523001953125,-0.9593283534049988,-2.410616159439087,-1.553831696510315
1772790280374035700,6.54303564453125,-0.9327170848846436,-2.8091225624084473,-1.3543617725372314
1772790280394070800,6.56307080078125,-1.0517674684524536,-2.981982469558716,-1.1624218225479126
1772790280414104800,6.583104736328125,-1.3007076978683472,-2.9756529331207275,-0.9518755078315735
1772790280434139100,6.60313916015625,-1.600204586982727,-2.7769675254821777,-0.7440469264984131
1772790280454174000,6.623174072265625,-2.0257503986358643,-2.3185815811157227,-0.5522330403327942
1772790280474208000,6.6432080078125,-2.3140549659729004,-1.6606788635253906,-0.6508404016494751
1772790280494242000,6.663241943359375,-2.4597079753875732,-0.8499129414558411,-0.9068263173103333
1772790280514276900,6.68327685546875,-2.534032106399536,-0.15977752208709717,-0.9781324863433838
1772790280534311000,6.703310791015625,-2.5813381671905518,0.2948068082332611,-0.8518874049186707
1772790280554345000,6.723344970703125,-2.6248414516448975,0.5212478041648865,-0.5792801380157471
1772790280574380000,6.743380126953125,-2.6622133255004883,0.5573388338088989,-0.3271743655204773
1772790280594414000,6.7634140625,-2.5074148178100586,0.5231656432151794,-0.340867280960083
1772790280614447900,6.78344775390625,-2.244133949279785,0.4768770933151245,-0.35290855169296265
1772790280634483000,6.80348291015625,-1.8223986625671387,0.4332481324672699,-0.03533754497766495
1772790280654517000,6.82351708984375,-0.9565702676773071,-0.07615182548761368,0.5153962969779968
1772790280674551000,6.843551025390625,0.3587488532066345,-1.0210007429122925,0.7835924625396729
1772790280694586000,6.863586181640625,1.5354979038238525,-1.739510178565979,0.6052345037460327
1772790280714620000,6.883619873046875,2.249471426010132,-2.142461061477661,0.29618585109710693
1772790280734654000,6.903654052734375,2.3875837326049805,-2.1205639839172363,0.2537998557090759
1772790280754689000,6.92368896484375,2.1643896102905273,-1.6811615228652954,0.39294666051864624
1772790280774723000,6.94372314453125,2.0621399879455566,-1.0369950532913208,0.4691343903541565
1772790280794756900,6.9637568359375,2.103665590286255,-0.34486472606658936,0.4390888214111328
1772790280814792000,6.9837919921875,2.267033338546753,0.3599594235420227,0.476932168006897
1772790280834826000,7.003825927734375,2.485758066177368,1.002496600151062,0.708153247833252
1772790280854859800,7.02385986328125,2.8273141384124756,1.593570590019226,1.0776951313018799
1772790280874894800,7.043894775390625,3.261453866958618,1.997254729270935,1.5750796794891357
1772790280894929000,7.063928955078125,4.039874076843262,2.1699893474578857,2.6719155311584473
1772790280914963000,7.083962890625,5.013698101043701,2.8899664878845215,3.712575912475586
1772790280934998000,7.103998046875,5.7485671043396,4.0117292404174805,3.849777936935425
1772790280955031800,7.12403173828125,5.864597320556641,4.806783199310303,3.5682897567749023
1772790280975065900,7.14406591796875,5.211289405822754,4.7350592613220215,2.914273500442505
1772790280995101000,7.164100830078125,4.076681137084961,3.786015510559082,1.8542652130126953
1772790281015135000,7.184135009765625,2.8716366291046143,2.0463216304779053,0.38550445437431335
1772790281035168800,7.204168701171875,1.9153556823730469,0.03488829731941223,-1.2423750162124634
1772790281055203800,7.224203857421875,1.1739747524261475,-1.5972286462783813,-2.429893732070923
1772790281075238000,7.24423779296875,0.6201882362365723,-2.613245725631714,-2.8921382427215576
1772790281095272000,7.26427197265625,0.24916356801986694,-2.979334592819214,-2.7956111431121826
1772790281115306800,7.284306640625,0.03415080904960632,-2.7422244548797607,-2.2804036140441895
1772790281135341000,7.304341064453125,-0.019997579976916313,-2.121835708618164,-1.5921012163162231
1772790281155375000,7.324375,0.08621766418218613,-1.4046534299850464,-1.014426827430725
1772790281175410000,7.344409912109375,0.26766660809516907,-0.8771132826805115,-0.617748498916626
1772790281195444000,7.36444384765625,0.4028226435184479,-0.6977246999740601,-0.2958049476146698
1772790281215478000,7.38447802734375,0.4638190269470215,-0.7194128632545471,-0.09508471935987473
1772790281235513000,7.40451318359375,0.4534457325935364,-0.7036077976226807,-0.03802332282066345
1772790281255547100,7.424547119140625,0.49231815338134766,-0.5787398219108582,-0.26456791162490845
1772790281275581000,7.444580810546875,0.35400906205177307,-0.3983897268772125,-0.6155133843421936
1772790281295616000,7.464615966796875,-0.1408768743276596,-0.2760939598083496,-0.38565123081207275
1772790281315650000,7.484650146484375,-0.8560054898262024,-0.21781480312347412,0.46610575914382935
1772790281335683800,7.504683837890625,-1.6745864152908325,-0.037232108414173126,1.4239120483398438
1772790281355719000,7.524718994140625,-2.3299763202667236,0.09904364496469498,2.0502512454986572
1772790281375753000,7.5447529296875,-2.6563873291015625,0.000037321820855140686,2.3758342266082764
1772790281395787000,7.564787109375,-2.803015947341919,-0.2732858955860138,2.358443021774292
1772790281415822000,7.584822021484375,-2.9143757820129395,-0.6879511475563049,1.8025599718093872
1772790281435856000,7.60485595703125,-3.1269659996032715,-1.046852946281433,0.7084111571311951
1772790281455890000,7.624889892578125,-3.396000623703003,-1.1502490043640137,-0.6732709407806396
1772790281475925000,7.644925048828125,-3.6292591094970703,-0.8672359585762024,-1.9752352237701416
1772790281495959000,7.664958984375,-3.8548974990844727,-0.24988509714603424,-2.788095712661743
1772790281515992800,7.684992919921875,-4.05277156829834,0.6440883874893188,-2.870992660522461
1772790281536028000,7.70502783203125,-4.114665985107422,1.4159342050552368,-2.1994009017944336
1772790281556062000,7.72506201171875,-3.982466697692871,1.766465663909912,-1.2037675380706787
1772790281576095700,7.745095703125,-3.5665817260742188,1.5322331190109253,-0.4757508337497711
1772790281596129800,7.7651298828125,-2.927124500274658,0.7092903852462769,-0.13914085924625397
1772790281616164900,7.785164794921875,-2.127849578857422,-0.5099084973335266,-0.14963531494140625
1772790281636199000,7.805198974609375,-1.3318896293640137,-1.6624152660369873,-0.3646946847438812
1772790281656233000,7.82523291015625,-0.7712345123291016,-2.5218167304992676,-0.5963677167892456
1772790281676267800,7.845267822265625,-0.45143985748291016,-3.1367170810699463,-0.8358331918716431
1772790281696301800,7.8653017578125,-0.30965355038642883,-3.5694022178649902,-1.068448781967163
1772790281716335900,7.8853359375,-0.37370672821998596,-3.850999593734741,-1.204671025276184
1772790281736370700,7.90537060546875,-0.522582471370697,-3.944434642791748,-1.3421858549118042
1772790281756405000,7.925405029296875,-0.6455627679824829,-3.797875165939331,-1.547926902770996
1772790281776439800,7.945439697265625,-0.7494730353355408,-3.5012733936309814,-1.7051726579666138
1772790281796473900,7.965473876953125,-0.8772063851356506,-3.204648733139038,-1.7570114135742188
1772790281816508000,7.9855078125,-1.0028867721557617,-2.7703356742858887,-1.7101320028305054
1772790281836539000,8.005538818359375,-1.1280542612075806,-2.1709744930267334,-1.5278512239456177
1772790281856573000,8.025572998046876,-1.2761259078979492,-1.5777990818023682,-1.1263593435287476
1772790281876608000,8.04560791015625,-1.4347418546676636,-1.0379061698913574,-0.6971859335899353
1772790281896641800,8.065641845703125,-1.3856534957885742,-0.28862419724464417,-0.6296009421348572
1772790281916675800,8.08567578125,-1.2206228971481323,0.5495600700378418,-0.7691683173179626
1772790281936711000,8.1057109375,-1.2229928970336914,1.2103010416030884,-0.5075415372848511
1772790281956745000,8.125744873046875,-1.208625078201294,1.5347651243209839,0.2694745361804962
1772790281976778800,8.14577880859375,-0.9230815172195435,1.3343336582183838,1.1175423860549927
1772790281996813800,8.165813720703126,-0.26994767785072327,0.7103287577629089,1.4176222085952759
1772790282016848000,8.185847900390625,0.7019458413124084,-0.21040694415569305,0.997991681098938
1772790282036882000,8.2058818359375,1.5593855381011963,-1.1146403551101685,0.1476067155599594
1772790282056916700,8.225916748046876,1.9434657096862793,-1.7888625860214233,-0.6475641131401062
1772790282076950800,8.24595068359375,1.712946891784668,-2.0375897884368896,-1.0900601148605347
1772790282096984800,8.26598486328125,1.2694846391677856,-1.9308934211730957,-1.3228217363357544
1772790282117020000,8.28602001953125,1.1513357162475586,-1.4912786483764648,-1.4456188678741455
1772790282137053700,8.3060537109375,1.3489270210266113,-0.9355983734130859,-1.3186514377593994
1772790282157087700,8.326087646484375,1.6702795028686523,-0.31759393215179443,-0.9890503883361816
1772790282177122800,8.346122802734374,1.9587668180465698,0.273052453994751,-0.5005989670753479
1772790282197156900,8.366156982421876,2.1808383464813232,0.8124744296073914,0.11336861550807953
1772790282217190700,8.386190673828125,2.461193561553955,1.1339538097381592,0.7891926765441895
1772790282237225700,8.406225830078125,2.900620222091675,1.336087703704834,1.540723443031311
1772790282257262600,8.4262626953125,3.427793025970459,1.6116821765899658,2.28778076171875
1772790282277297700,8.446297607421876,3.808246374130249,2.200942039489746,2.686985731124878
1772790282297331700,8.466331787109375,4.014016151428223,2.7284765243530273,2.4114456176757812
1772790282317365800,8.48636572265625,3.8920419216156006,2.757681131362915,1.5922918319702148
1772790282337400800,8.50640087890625,3.382841110229492,2.2748913764953613,0.5393410325050354
1772790282357434600,8.5264345703125,2.6859941482543945,1.3427106142044067,-0.5345474481582642
1772790282377469000,8.546468994140625,2.013094425201416,0.16789613664150238,-1.4702582359313965
1772790282397503700,8.566503662109374,1.4579781293869019,-1.0392765998840332,-2.044062852859497
1772790282417538000,8.5865380859375,0.9873557090759277,-1.7947620153427124,-2.163830518722534
1772790282437571800,8.60657177734375,0.6937141418457031,-2.0898430347442627,-2.0643351078033447
1772790282457607000,8.62660693359375,0.6692776679992676,-2.0255026817321777,-1.9007213115692139
1772790282477641000,8.646640869140626,0.7339709401130676,-1.7530959844589233,-1.728048324584961
1772790282497674800,8.6666748046875,0.7488895058631897,-1.4156006574630737,-1.5902568101882935
1772790282517709800,8.686709716796875,0.6897380948066711,-1.038001537322998,-1.5310033559799194
1772790282537744000,8.706743896484374,0.5333648324012756,-0.6518605351448059,-1.406705379486084
1772790282557778000,8.72677783203125,0.3048773407936096,-0.27396076917648315,-1.113139033317566
1772790282577813000,8.74681298828125,0.035830575972795486,0.06507757306098938,-0.6903259754180908
1772790282597846800,8.7668466796875,-0.2456268072128296,0.34399351477622986,-0.3209835886955261
1772790282617880800,8.786880859375,-0.5730352401733398,0.6177645921707153,-0.10355786234140396
1772790282637916000,8.806916015625,-0.9867947101593018,0.8615335822105408,-0.08072125166654587
1772790282657950000,8.826949951171875,-1.3553528785705566,1.1155591011047363,-0.4396864175796509
1772790282677983700,8.846983642578126,-1.8642197847366333,1.2679579257965088,-0.9118168950080872
1772790282698018600,8.8670185546875,-2.5690367221832275,1.1950206756591797,-1.1754770278930664
1772790282718052600,8.887052490234375,-3.448423147201538,0.9360858201980591,-1.1255244016647339
1772790282738086400,8.90708642578125,-4.226436138153076,0.49080437421798706,-0.8984349370002747
1772790282758121500,8.92712158203125,-4.755671977996826,-0.005263930186629295,-0.7675384283065796
1772790282778155500,8.947155517578125,-5.042482376098633,-0.5201339721679688,-0.7336167693138123
1772790282798189600,8.967189453125,-5.035888195037842,-0.9783017635345459,-0.8122372627258301
1772790282818224600,8.987224609375,-4.678177356719971,-1.2400518655776978,-1.0182071924209595
1772790282838258400,9.007258544921875,-4.175151348114014,-1.2951619625091553,-1.1381078958511353
1772790282858292500,9.02729248046875,-3.7698283195495605,-1.0575547218322754,-0.9667274355888367
1772790282878327600,9.04732763671875,-3.529620409011841,-0.4680763781070709,-0.48503515124320984
1772790282898361300,9.067361328125,-3.237846851348877,0.34043267369270325,0.008058333769440651
1772790282918395400,9.0873955078125,-2.8430802822113037,1.083939790725708,0.2344980388879776
1772790282938430500,9.107430419921876,-2.325345754623413,1.5505660772323608,0.2893790602684021
1772790282958464500,9.127464599609375,-1.676463007926941,1.4829963445663452,0.21632476150989532
1772790282978498600,9.14749853515625,-1.03214693069458,0.7616800665855408,0.01917102374136448
1772790282998533400,9.167533447265624,-0.6253902912139893,-0.3568200170993805,-0.257315993309021
1772790283018567700,9.187567626953125,-0.5557407736778259,-1.6091886758804321,-0.5059812068939209
1772790283038601700,9.207601806640625,-0.7947489023208618,-2.6720669269561768,-0.6868056654930115
1772790283058636500,9.227636474609374,-1.1327857971191406,-3.419869899749756,-0.9000564217567444
1772790283078670600,9.247670654296876,-1.3612401485443115,-3.76277756690979,-1.196970820426941
1772790283098704600,9.26770458984375,-1.4131660461425781,-3.7191226482391357,-1.4336223602294922
1772790283118739700,9.28773974609375,-1.300998330116272,-3.283057928085327,-1.4841290712356567
1772790283138773500,9.3077734375,-1.1146612167358398,-2.57525897026062,-1.3591352701187134
1772790283158807600,9.3278076171875,-0.9636912941932678,-1.6813608407974243,-1.0170609951019287
1772790283178842600,9.347842529296875,-0.8396003246307373,-0.8537135720252991,-0.45004746317863464
1772790283198876700,9.367876708984374,-0.7023672461509705,-0.08344606310129166,0.003696292173117399
1772790283218910500,9.387910400390625,-0.6469056606292725,0.722179651260376,0.4502467215061188
1772790283238945500,9.407945556640625,-0.5577649474143982,1.3675520420074463,1.0933187007904053
1772790283258979600,9.4279794921875,-0.3132530152797699,1.885716199874878,1.790612816810608
1772790283279013600,9.448013671875,0.11800707131624222,2.18452787399292,2.3043031692504883
1772790283299047400,9.46804736328125,0.6423183679580688,2.342219829559326,2.51322865486145
1772790283319082500,9.48808251953125,1.2161282300949097,2.277956485748291,2.2205698490142822
1772790283339116500,9.508116455078126,1.616416335105896,2.196784019470215,1.5874102115631104
1772790283359150600,9.528150634765625,1.7011135816574097,2.1650607585906982,1.0336414575576782
1772790283379185700,9.548185546875,1.6521135568618774,2.113459825515747,0.7258402109146118
1772790283399219500,9.568219482421876,1.716373085975647,1.8976722955703735,0.4862649142742157
1772790283419253500,9.58825341796875,1.8996973037719727,1.5557829141616821,0.18332266807556152
1772790283439288600,9.60828857421875,2.1479997634887695,1.0575331449508667,-0.15520714223384857
1772790283459322400,9.628322265625,2.3759474754333496,0.5502898693084717,-0.4140961468219757
1772790283479356400,9.6483564453125,2.5652830600738525,0.17537009716033936,-0.5502752065658569
1772790283499391500,9.6683916015625,2.713210344314575,0.013443462550640106,-0.5334612131118774
1772790283519425500,9.688425537109374,2.8841326236724854,0.056033577769994736,-0.417121946811676
1772790283539459600,9.70845947265625,3.040688991546631,0.2605525851249695,-0.2363770455121994
1772790283559494400,9.728494384765625,3.1694765090942383,0.5386584997177124,-0.03650086373090744
1772790283579528400,9.748528564453125,3.178194761276245,0.8721610903739929,0.11609870195388794
1772790283599562800,9.768562744140626,3.0504212379455566,1.1392292976379395,0.19718153774738312
1772790283619597600,9.78859765625,2.8870887756347656,1.3544825315475464,0.17444762587547302
1772790283639631600,9.808631591796875,2.769308090209961,1.425374150276184,0.12169642746448517
1772790283659665700,9.828665771484374,2.7028768062591553,1.3683791160583496,0.09914278984069824
1772790283679700700,9.84870068359375,2.698690414428711,1.1335527896881104,0.07894551753997803
1772790283699734500,9.868734619140625,2.705404758453369,0.7657932639122009,0.07993592321872711
1772790283719768600,9.8887685546875,2.6453371047973633,0.3131978511810303,0.13642269372940063
1772790283739803600,9.9088037109375,2.509631872177124,-0.22215159237384796,0.20107945799827576
1772790283759837700,9.928837646484375,2.3024375438690186,-0.6715813875198364,0.22682785987854004
1772790283779871500,9.94887158203125,2.0927445888519287,-1.0212609767913818,0.2690078318119049
1772790283799906600,9.968906494140626,1.8728878498077393,-1.3023996353149414,0.3756208121776581
1772790283819940600,9.988940673828125,1.642641305923462,-1.3884038925170898,0.5402601957321167
1772790283839974700,10.008974609375,1.4623489379882812,-1.3821463584899902,0.7669259905815125
1772790283860008400,10.029008544921876,1.3229014873504639,-1.2741975784301758,0.9804758429527283
1772790283880043500,10.04904345703125,1.159058690071106,-1.11405611038208,1.1565848588943481
1772790283900077600,10.06907763671875,0.9232804775238037,-0.943763256072998,1.2612768411636353
1772790283920111600,10.089111572265624,0.6734961867332458,-0.7788081169128418,1.3002134561538696
1772790283940146400,10.109146484375,0.2949458658695221,-0.7082274556159973,1.2491741180419922
1772790283960180500,10.129180419921875,-0.13119758665561676,-0.662364661693573,1.0501629114151
1772790283980214500,10.149214599609374,-0.5775960683822632,-0.6615552306175232,0.7594805359840393
1772790284000249600,10.16924951171875,-1.051003336906433,-0.7626690864562988,0.5301085710525513
1772790284020283400,10.189283447265625,-1.5854949951171875,-0.7951121926307678,0.31935447454452515
1772790284040317400,10.2093173828125,-2.3168885707855225,-0.685822606086731,0.051604848355054855
1772790284060352500,10.2293525390625,-3.088312864303589,-0.29313114285469055,-0.26845401525497437
1772790284080386600,10.249386474609375,-3.692162275314331,0.29735758900642395,-0.07094922661781311
1772790284100420400,10.26942041015625,-4.377953052520752,0.7800269722938538,1.1498054265975952
1772790284120455400,10.289455322265624,-4.997445583343506,1.4033336639404297,2.7048213481903076
1772790284140489500,10.309489501953125,-5.178190231323242,1.7171611785888672,3.640801429748535
1772790284160523800,10.329523681640625,-4.9223480224609375,1.6374692916870117,3.6924991607666016
1772790284180558300,10.349558349609374,-4.641237258911133,1.2576428651809692,3.057105541229248
1772790284200592600,10.369592529296876,-4.459383487701416,0.7397201061248779,1.9314512014389038
1772790284220626700,10.389626708984375,-4.2494425773620605,0.30819982290267944,0.269610732793808
1772790284240661500,10.40966162109375,-4.0544562339782715,-0.0036481907591223717,-1.3272942304611206
1772790284260695600,10.429695556640626,-3.9792325496673584,-0.368587464094162,-2.1502842903137207
1772790284280729600,10.4497294921875,-3.794994592666626,-0.5526740550994873,-2.4570045471191406
1772790284300764700,10.4697646484375,-3.322619915008545,-0.8553236722946167,-2.393984079360962
1772790284320798700,10.489798828125,-2.6032867431640625,-1.3086376190185547,-2.198054790496826
1772790284340832500,10.50983251953125,-1.6675852537155151,-1.8717100620269775,-2.0898919105529785
1772790284360866600,10.529866455078125,-0.7037314772605896,-2.4929566383361816,-2.142063856124878
1772790284380901600,10.549901611328124,0.09222719073295593,-3.2227230072021484,-2.192955732345581
1772790284400935700,10.569935791015626,0.5883070230484009,-3.942681312561035,-2.1407759189605713
1772790284420969500,10.589969482421875,0.7546179294586182,-4.632238864898682,-2.040248394012451
1772790284441004500,10.610004638671874,0.6941251158714294,-5.144482612609863,-1.9493846893310547
1772790284461038600,10.63003857421875,0.4558201730251312,-5.4070634841918945,-1.8703957796096802
1772790284481072600,10.65007275390625,0.17240171134471893,-5.34254264831543,-1.7545185089111328
1772790284501107500,10.670107421875,-0.026473861187696457,-4.88391637802124,-1.5677753686904907
1772790284521141500,10.6901416015625,-0.08403550833463669,-4.077686786651611,-1.3129385709762573
1772790284541175600,10.710175537109375,-0.01610085554420948,-3.111370801925659,-0.9525245428085327
1772790284561210600,10.730210693359375,0.07312732189893723,-1.999079704284668,-0.4231793284416199
1772790284581244400,10.750244384765624,-0.07625527679920197,-1.1006425619125366,0.20317281782627106
1772790284601278500,10.770278564453125,-0.4098740220069885,-0.2796943783760071,0.5293989181518555
1772790284621313500,10.7903134765625,-0.6523615121841431,0.4149568974971771,0.7315679788589478
1772790284641347600,10.81034765625,-0.7914392948150635,0.8546367883682251,1.0187203884124756
1772790284661381400,10.83038134765625,-0.8247513771057129,1.2234212160110474,1.1134079694747925
1772790284681416400,10.85041650390625,-0.6962801218032837,1.496718168258667,0.9952609539031982
1772790284701450000,10.870449951171874,-0.5188794136047363,1.6800475120544434,1.003734827041626
1772790284721484300,10.890484375,-0.47100889682769775,1.754982590675354,1.305783748626709
1772790284741519000,10.91051904296875,-0.4713761806488037,1.5948792695999146,1.785239815711975
1772790284761553200,10.93055322265625,-0.4042133688926697,1.0560622215270996,2.022843360900879
1772790284781587200,10.950587158203126,-0.3276083171367645,0.22456130385398865,1.640561819076538
1772790284801622300,10.970622314453125,-0.08362600207328796,-0.5940405130386353,0.5936707854270935
1772790284821656000,10.990656005859375,0.33172807097435,-1.2587639093399048,-0.579477071762085
1772790284841690000,11.010690185546874,0.6279574632644653,-1.629660725593567,-1.2225053310394287
1772790284861724200,11.03072412109375,0.8703573942184448,-1.5730828046798706,-1.4430242776870728
1772790284881759200,11.05075927734375,1.0563929080963135,-1.179518699645996,-1.3632466793060303
1772790284901793000,11.07079296875,1.1806010007858276,-0.544009268283844,-1.0136473178863525
1772790284921827000,11.0908271484375,1.3275355100631714,0.1506187617778778,-0.5337224006652832
1772790284941862100,11.110862060546875,1.55156409740448,0.8476622700691223,-0.08223550766706467
1772790284961896200,11.130896240234375,1.7704353332519531,1.5942147970199585,0.37015581130981445
1772790284981930000,11.150929931640626,1.8730673789978027,2.3063361644744873,0.9052238464355469
1772790285001965000,11.170965087890625,1.9658739566802979,2.983102798461914,1.3735630512237549
1772790285021999000,11.1909990234375,2.100994110107422,3.303778648376465,1.6842243671417236
1772790285042033200,11.211033203125,2.2359588146209717,3.288210391998291,1.7896689176559448
1772790285062068000,11.23106787109375,2.2295777797698975,3.021359443664551,1.712404489517212
1772790285082102000,11.25110205078125,2.0982351303100586,2.6329753398895264,1.4787629842758179
1772790285102136000,11.271135986328124,1.9296659231185913,2.055948495864868,1.1017755270004272
1772790285122171100,11.291171142578126,1.6915149688720703,1.4408522844314575,0.6323808431625366
1772790285142205000,11.311204833984375,1.406630039215088,0.8523290753364563,0.08749315142631531
1772790285162239000,11.331239013671874,1.1929630041122437,0.3847119212150574,-0.4453830420970917
1772790285182274000,11.351274169921876,1.0880237817764282,0.0015701362863183022,-0.7850202322006226
1772790285202308000,11.37130810546875,1.1039789915084839,-0.281817764043808,-0.9106276631355286
1772790285222342000,11.391341796875,1.2551569938659668,-0.5280402898788452,-0.9107956886291504
1772790285242376200,11.411376220703126,1.4813579320907593,-0.8093312978744507,-0.8475692868232727
1772790285262411000,11.431410888671875,1.6424012184143066,-1.1558507680892944,-0.8436747789382935
1772790285282445300,11.4514453125,1.7162598371505737,-1.4755561351776123,-1.0157949924468994
1772790285302479000,11.47147900390625,1.6371208429336548,-1.7227846384048462,-1.2427223920822144
1772790285322514200,11.49151416015625,1.4240539073944092,-1.9370964765548706,-1.395585060119629
1772790285342548200,11.51154833984375,1.1497761011123657,-1.979901671409607,-1.4184786081314087
1772790285362582300,11.531582275390624,0.9265291690826416,-1.7472859621047974,-1.4404946565628052
1772790285382617000,11.5516171875,0.6181398034095764,-1.3153889179229736,-1.298248291015625
1772790285402651100,11.571651123046875,0.18404783308506012,-0.7578383088111877,-0.7140284776687622
1772790285422685200,11.591685302734374,-0.37700486183166504,-0.1360219568014145,0.23194509744644165
1772790285442720300,11.61172021484375,-0.8950193524360657,0.5310760140419006,1.1819626092910767
1772790285462754000,11.631754150390625,-1.2908401489257812,1.001650094985962,1.9583237171173096
1772790285482788000,11.6517880859375,-1.589159607887268,1.1542232036590576,2.521653413772583
1772790285502823200,11.6718232421875,-1.8960429430007935,0.967452883720398,2.5948824882507324
1772790285522857200,11.691857177734375,-2.1471638679504395,0.5202599167823792,2.0238029956817627
1772790285542891000,11.71189111328125,-2.4317500591278076,0.046122439205646515,1.031477451324463
1772790285562926000,11.731926025390624,-2.7778515815734863,-0.31057319045066833,-0.13911937177181244
1772790285582960000,11.751960205078126,-3.07240891456604,-0.3706461489200592,-1.2780215740203857
1772790285602994200,11.771994140625,-3.217617988586426,-0.24722085893154144,-2.0599524974823
1772790285623029000,11.792029052734375,-3.197549819946289,0.08886802196502686,-2.260864734649658
1772790285643063000,11.81206298828125,-3.0387933254241943,0.49974197149276733,-1.8992751836776733
1772790285663097000,11.83209716796875,-2.7474842071533203,0.6860963106155396,-1.2031337022781372
1772790285683131100,11.852131103515624,-2.3385462760925293,0.5478371381759644,-0.5543469190597534
1772790285703166500,11.87216650390625,-1.82061767578125,0.17825807631015778,-0.09731452167034149
1772790285723200300,11.8922001953125,-1.1874587535858154,-0.313127726316452,0.16907009482383728
1772790285743234300,11.912234375,-0.564126193523407,-0.7616430521011353,0.2635795474052429
1772790285763269400,11.932269287109374,-0.0807868167757988,-1.2340257167816162,0.2302027940750122
1772790285783303400,11.952303466796875,0.22791005671024323,-1.6028213500976562,0.13728657364845276
1772790285803337200,11.972337158203125,0.3499552309513092,-2.002559185028076,0.021603772416710854
1772790285823372300,11.992372314453124,0.3098711371421814,-2.2853574752807617,-0.1393994390964508
1772790285843403300,12.0124033203125,0.17543743550777435,-2.460902690887451,-0.344714492559433
1772790285863437300,12.032437255859374,0.012993812561035156,-2.5458321571350098,-0.5744604468345642
1772790285883471600,12.0524716796875,-0.12322036921977997,-2.5049145221710205,-0.8091668486595154
1772790285903505400,12.07250537109375,-0.2707938551902771,-2.400369167327881,-0.9417893290519714
1772790285923540500,12.09254052734375,-0.5090755820274353,-2.1711556911468506,-0.9720463752746582
1772790285943574500,12.112574462890626,-0.8749781250953674,-1.8843997716903687,-1.0331326723098755
1772790285963608600,12.132608642578125,-1.1864877939224243,-1.5144931077957153,-1.1105120182037354
1772790285983643600,12.1526435546875,-1.3479706048965454,-1.0663243532180786,-1.0354026556015015
1772790286003677400,12.172677490234374,-1.4679251909255981,-0.5403021574020386,-0.8071731328964233
1772790286023711500,12.19271142578125,-1.6365227699279785,0.0027885474264621735,-0.44672390818595886
1772790286043746600,12.21274658203125,-1.845032811164856,0.4335329830646515,0.04315708950161934
1772790286063780600,12.232780517578124,-1.9041403532028198,0.6449092030525208,0.5838534832000732
1772790286083814400,12.252814453125,-1.840728998184204,0.667850136756897,0.9773428440093994
1772790286103849500,12.272849365234375,-1.644030213356018,0.790189802646637,0.8704249858856201
1772790286123883500,12.292883544921875,-1.4100321531295776,1.05336594581604,0.5254949927330017
1772790286143917300,12.312917236328126,-1.1941375732421875,1.3785744905471802,0.4507404565811157
1772790286163952400,12.332952392578125,-0.855984091758728,1.7405364513397217,0.5976474285125732
1772790286183986400,12.352986328125,-0.2958473861217499,1.8876107931137085,0.6544419527053833
1772790286204020500,12.3730205078125,0.46860307455062866,1.453899621963501,0.5460578203201294
1772790286224054300,12.39305419921875,1.1912022829055786,0.5083577036857605,0.19118420779705048
1772790286244089300,12.41308935546875,1.6980937719345093,-0.5086479783058167,-0.4586859941482544
1772790286264123400,12.433123291015624,1.9716498851776123,-1.3661086559295654,-1.0005080699920654
1772790286284157400,12.453157470703125,1.9541895389556885,-1.9119685888290405,-1.1721268892288208
1772790286304192500,12.473192626953125,1.9268763065338135,-1.9718879461288452,-1.1937153339385986
1772790286324226300,12.493226318359374,1.8570888042449951,-1.5004994869232178,-1.0764154195785522
1772790286344260400,12.51326025390625,1.7974021434783936,-0.6860286593437195,-0.765237033367157
1772790286364295400,12.53329541015625,1.8301876783370972,0.30885952711105347,-0.3189815878868103
1772790286384329200,12.5533291015625,1.9314888715744019,1.4191712141036987,0.12787987291812897
1772790286404363500,12.573363525390626,2.0186612606048584,2.463754653930664,0.6318320035934448
1772790286424398300,12.5933984375,2.0829269886016846,3.232898235321045,1.1765661239624023
1772790286444432400,12.613432373046875,2.252681255340576,3.6951394081115723,1.5928313732147217
1772790286464466400,12.633466552734374,2.491286277770996,3.761326313018799,1.8901128768920898
1772790286484501200,12.653501220703125,2.725130319595337,3.4768643379211426,2.03436279296875
1772790286504535600,12.67353564453125,2.8721933364868164,2.9373106956481934,1.9131797552108765
1772790286524569600,12.693569580078124,2.8935821056365967,2.170184850692749,1.4486017227172852
1772790286544603400,12.713603271484375,2.777672529220581,1.3941571712493896,0.7099171280860901
1772790286564638500,12.733638427734375,2.624263286590576,0.5788358449935913,-0.06710340082645416
1772790286584672500,12.753672607421874,2.4585812091827393,-0.1996360421180725,-0.6534594893455505
1772790286604706600,12.77370654296875,2.3383805751800537,-0.811315655708313,-1.0326756238937378
1772790286624741400,12.793741455078125,2.248544216156006,-1.2918546199798584,-1.2432094812393188
1772790286644775400,12.813775390625,2.145362377166748,-1.577492117881775,-1.2972644567489624
1772790286664809500,12.8338095703125,2.022887945175171,-1.732737421989441,-1.2476401329040527
1772790286684844500,12.853844482421875,1.874656081199646,-1.7705445289611816,-1.1319074630737305
1772790286704878300,12.87387841796875,1.7004305124282837,-1.6770986318588257,-0.942872166633606
1772790286724912400,12.893912353515624,1.463161587715149,-1.5498554706573486,-0.7036998867988586
1772790286744947500,12.913947509765626,1.2009834051132202,-1.2976865768432617,-0.4914111793041229
1772790286764981500,12.9339814453125,0.9868200421333313,-0.9639819264411926,-0.31849661469459534
1772790286785015300,12.954015380859374,0.762122631072998,-0.6104077100753784,-0.3508361279964447
1772790286805050400,12.97405029296875,0.34780552983283997,-0.2861176133155823,-0.39778390526771545
1772790286825084400,12.99408447265625,-0.3592531979084015,-0.07735966145992279,-0.19120553135871887
1772790286845118500,13.014118408203124,-1.2505476474761963,0.1038004606962204,0.3249596655368805
1772790286865153500,13.034153564453124,-2.040025234222412,0.23569469153881073,0.9300296306610107
1772790286885187300,13.054187255859375,-2.5539164543151855,0.2750362157821655,1.3665989637374878
1772790286905221400,13.074221435546875,-2.8224005699157715,0.1471066176891327,1.5713733434677124
1772790286925255400,13.09425537109375,-2.9692013263702393,-0.1286533623933792,1.5481048822402954
1772790286945290200,13.114290283203125,-3.134413242340088,-0.442844420671463,1.1706898212432861
1772790286965324300,13.13432421875,-3.3612098693847656,-0.5384118556976318,0.34912458062171936
1772790286985358600,13.154358642578124,-3.5401906967163086,-0.3464691638946533,-0.8332456946372986
1772790287005393400,13.174393310546876,-3.679166078567505,0.12052805721759796,-1.8985744714736938
1772790287025427500,13.194427490234375,-3.909027576446533,0.7338739037513733,-2.3486363887786865
1772790287045461500,13.21446142578125,-4.113211154937744,1.3096944093704224,-2.036203145980835
1772790287065496300,13.234496337890626,-4.041528224945068,1.7268086671829224,-1.1932841539382935
1772790287085530600,13.254530517578125,-3.6356279850006104,1.8666741847991943,-0.33613497018814087
1772790287105564400,13.274564453125,-2.792862892150879,1.4051024913787842,0.22986763715744019
1772790287125598500,13.294598388671876,-1.8315812349319458,0.3220330774784088,0.5714216828346252
1772790287145633500,13.314633544921875,-0.9437440633773804,-1.0031070709228516,0.5964746475219727
1772790287165667600,13.33466748046875,-0.25351274013519287,-2.2974679470062256,0.28695374727249146
1772790287185701400,13.354701416015626,0.13033702969551086,-3.398498058319092,-0.16750259697437286
1772790287205736400,13.374736328125,0.1337401121854782,-4.2272114753723145,-0.5961380004882812
1772790287225770500,13.3947705078125,-0.23612546920776367,-4.687648296356201,-1.0628324747085571
1772790287245804500,13.414804443359374,-0.7212318778038025,-4.70783805847168,-1.6128549575805664
1772790287265839400,13.43483935546875,-0.9369454383850098,-4.370416164398193,-2.182389259338379
1772790287285873400,13.454873291015625,-0.8640182614326477,-3.719615936279297,-2.582491636276245
1772790287305907500,13.474907470703124,-0.6092855930328369,-2.921006202697754,-2.6902506351470947
1772790287325942500,13.494942626953126,-0.4928162693977356,-2.1018617153167725,-2.532989740371704
1772790287345976300,13.514976318359375,-0.672429621219635,-1.2905515432357788,-2.1808433532714844
1772790287366010400,13.53501025390625,-1.0093294382095337,-0.4391031861305237,-1.6887624263763428
1772790287386044400,13.55504443359375,-1.3027185201644897,0.38294416666030884,-1.0618300437927246
1772790287406079500,13.57507958984375,-1.407386064529419,1.1263066530227661,-0.332899272441864
1772790287426113300,13.59511328125,-1.2979419231414795,1.8202476501464844,0.2865573465824127
1772790287446147300,13.615147216796874,-1.0616679191589355,2.4762930870056152,0.520603597164154
1772790287466182400,13.635182373046876,-0.8913285136222839,3.008856773376465,0.6904435157775879
1772790287486216400,13.655216552734375,-0.8110322952270508,3.189530849456787,1.1337335109710693
1772790287506250500,13.67525048828125,-0.7623199224472046,2.9647810459136963,1.80290949344635
1772790287526285300,13.695285400390626,-0.5102710127830505,2.424022912979126,2.117537021636963
1772790287546319400,13.7153193359375,0.13818268477916718,1.678694486618042,1.779905915260315
1772790287566353400,13.735353515625,1.017113208770752,0.811551034450531,0.9702083468437195
1772790287586387500,13.755387451171876,1.6596511602401733,-0.07296181470155716,0.05618037283420563
1772790287606422500,13.775422607421875,1.9806996583938599,-0.7822251319885254,-0.5898729562759399
1772790287626456600,13.79545654296875,2.0183308124542236,-1.2159513235092163,-0.9232971668243408
1772790287646490400,13.815490478515626,1.9268229007720947,-1.3042420148849487,-0.9638969302177429
1772790287666525400,13.835525390625,1.8504332304000854,-1.059036374092102,-0.6883020997047424
1772790287686559500,13.8555595703125,1.910944938659668,-0.5246369242668152,-0.226573184132576
1772790287706593500,13.875593505859374,2.20037841796875,0.1810092031955719,0.15576711297035217
1772790287726628600,13.895628662109376,2.454946517944336,0.9083621501922607,0.5414082407951355
1772790287746662400,13.915662353515625,2.5519216060638428,1.3835219144821167,1.0191131830215454
1772790287766696400,13.935696533203124,2.6313679218292236,1.7006218433380127,1.3525094985961914
1772790287786731500,13.9557314453125,2.7284326553344727,1.8133398294448853,1.4536155462265015
1772790287806765600,13.975765625,2.883746385574341,1.7693803310394287,1.3678346872329712
1772790287826799400,13.99579931640625,3.0617356300354004,1.6236850023269653,1.222625732421875
1772790287846833400,14.01583349609375,3.2330498695373535,1.3940095901489258,1.127989411354065
1772790287866868500,14.035868408203125,3.324897527694702,1.1121470928192139,1.0346031188964844
1772790287886902500,14.055902587890625,3.314120292663574,0.7817431092262268,0.8382013440132141
1772790287906936300,14.075936279296876,3.207120895385742,0.44266679883003235,0.5094618797302246
1772790287926971400,14.095971435546875,3.017667531967163,0.06626676768064499,0.13740673661231995
1772790287947005400,14.11600537109375,2.841364860534668,-0.35920676589012146,-0.14277271926403046
1772790287967039500,14.13603955078125,2.654154062271118,-0.6649379134178162,-0.3761843740940094
1772790287987074300,14.15607421875,2.473961353302002,-0.8489819765090942,-0.5666694045066833
1772790288007108400,14.1761083984375,2.208927869796753,-0.9606173634529114,-0.7022202610969543
1772790288027142400,14.196142333984374,1.854832649230957,-1.0143262147903442,-0.857634425163269
1772790288047176400,14.216176513671876,1.4436410665512085,-0.993249237537384,-0.9734849333763123
1772790288067211300,14.236211181640625,1.0373337268829346,-0.9169479608535767,-0.9500876069068909
1772790288087245600,14.25624560546875,0.6437560319900513,-0.7800191044807434,-0.8440453410148621
1772790288107279600,14.276279541015626,0.2615675926208496,-0.56950443983078,-0.702096700668335
1772790288127314700,14.296314697265625,-0.09849863499403,-0.32003527879714966,-0.6112299561500549
1772790288147348500,14.316348388671875,-0.5640464425086975,0.006268075667321682,-0.5367068648338318
1772790288167382500,14.336382568359374,-1.1151436567306519,0.3017580509185791,-0.43327656388282776
1772790288187417600,14.35641748046875,-1.809495210647583,0.5317569375038147,-0.1549619883298874
1772790288207451600,14.37645166015625,-2.5186586380004883,0.6913080811500549,0.3095015287399292
1772790288227485400,14.3964853515625,-3.0946078300476074,0.772129237651825,0.6951714754104614
1772790288247519500,14.41651953125,-3.45704984664917,0.7502179741859436,0.9076899290084839
1772790288267554600,14.436554443359375,-3.6458561420440674,0.6193811893463135,0.9644026756286621
1772790288287588400,14.45658837890625,-3.7992970943450928,0.48726746439933777,0.9135079383850098
1772790288307622400,14.476622314453126,-3.941770315170288,0.47295138239860535,0.7655354738235474
1772790288327657500,14.496657470703125,-3.963338613510132,0.5892400741577148,0.5579158067703247
1772790288347691500,14.51669140625,-3.8668527603149414,0.8306285738945007,0.34100085496902466
1772790288367725300,14.536725341796876,-3.7337026596069336,1.165692925453186,0.17400412261486053
1772790288387760400,14.556760498046875,-3.5847909450531006,1.6065837144851685,0.1657067835330963
1772790288407794400,14.57679443359375,-3.238699436187744,2.019787073135376,0.26577189564704895
1772790288427828500,14.596828369140624,-2.567281484603882,1.9919463396072388,0.41940587759017944
1772790288447862300,14.6168623046875,-1.739543080329895,1.3250770568847656,0.5465661287307739
1772790288467897300,14.6368974609375,-0.8730373382568359,0.2052335888147354,0.39069366455078125
1772790288487931400,14.656931396484374,-0.11668435484170914,-1.184973120689392,-0.05047918111085892
1772790288507965400,14.67696533203125,0.2929229140281677,-2.542689561843872,-0.565837562084198
1772790288528000500,14.69700048828125,0.3184019923210144,-3.610281229019165,-0.9777054786682129
1772790288548034300,14.717034423828125,0.05961791053414345,-4.268731594085693,-1.2677775621414185
1772790288568068600,14.737068603515626,-0.2748478353023529,-4.371614933013916,-1.5752593278884888
1772790288588103400,14.757103515625,-0.466139018535614,-3.950575351715088,-1.9463504552841187
1772790288608137500,14.777137451171875,-0.43284469842910767,-3.1443676948547363,-2.210003614425659
1772790288628171500,14.797171630859374,-0.19280178844928741,-2.1656339168548584,-2.1510188579559326
1772790288648205600,14.81720556640625,0.04936864972114563,-1.1804298162460327,-1.7414960861206055
1772790288668240600,14.83724072265625,0.14004500210285187,-0.28385990858078003,-1.1418261528015137
1772790288688274400,14.8572744140625,0.08263897150754929,0.4508134126663208,-0.4208575189113617
1772790288708308200,14.87730810546875,0.011596610769629478,1.005631446838379,0.1847504824399948
1772790288728343300,14.89734326171875,0.013213347643613815,1.491101861000061,0.5844979882240295
1772790288748377300,14.91737744140625,0.07144137471914291,1.7659122943878174,0.8796966671943665
1772790288768411400,14.937411376953126,0.10427176207304001,1.8468559980392456,1.0842310190200806
1772790288788445200,14.957445068359375,0.09794797003269196,1.7335983514785767,1.1629095077514648
1772790288808480300,14.977480224609375,0.04689015448093414,1.44426691532135,1.1148853302001953
1772790288828514300,14.997514404296876,0.04228490591049194,1.1222375631332397,0.8149830102920532
1772790288848548400,15.01754833984375,0.1053510382771492,0.7692137360572815,0.35894209146499634
1772790288868583200,15.037583251953125,0.11761236935853958,0.4591056704521179,0.00034878263249993324
1772790288888617200,15.0576171875,0.09974302351474762,0.2185245305299759,-0.0852305069565773
1772790288908651300,15.0776513671875,0.1626918613910675,0.04349644482135773,0.05918380245566368
1772790288928686300,15.097686279296875,0.39292919635772705,-0.02684822678565979,0.09479997307062149
1772790288948720000,15.11772021484375,0.7070150971412659,-0.028435874730348587,0.015519794076681137
1772790288968754200,15.137754150390625,1.0068044662475586,-0.03546297177672386,-0.05888615548610687
1772790288988788500,15.15778857421875,1.2557916641235352,0.04035310447216034,-0.09177777916193008
1772790289008823300,15.1778232421875,1.4266130924224854,0.22088173031806946,-0.053457312285900116
1772790289028857300,15.197857421875,1.4866281747817993,0.5002391338348389,0.05589230731129646
1772790289048891400,15.217891357421875,1.499037742614746,0.8547589778900146,0.20238357782363892
1772790289068926200,15.23792626953125,1.5103271007537842,1.2270686626434326,0.3120820224285126
1772790289088960500,15.25796044921875,1.4888488054275513,1.572475552558899,0.4321995973587036
1772790289108994300,15.277994384765625,1.4311466217041016,1.8615972995758057,0.6183849573135376
1772790289129029400,15.298029296875,1.3665345907211304,2.072437286376953,0.7086558938026428
1772790289149063400,15.3180634765625,1.3258916139602661,2.222485065460205,0.7079201936721802
1772790289169097500,15.338097412109375,1.291886329650879,2.108811378479004,0.8232546448707581
1772790289189131300,15.35813134765625,1.2940198183059692,1.8364650011062622,0.950724184513092
1772790289209166300,15.378166259765624,1.3680193424224854,1.5260136127471924,0.864396870136261
1772790289229200400,15.398200439453126,1.5210187435150146,1.17743718624115,0.6151768565177917
1772790289249234200,15.418234130859375,1.7653536796569824,0.7134571075439453,0.35172006487846375
1772790289269269200,15.438269287109375,1.9521381855010986,0.21349948644638062,0.3031595051288605
1772790289289303300,15.45830322265625,2.059494972229004,-0.23581641912460327,0.4019331634044647
1772790289309337300,15.47833740234375,2.1320056915283203,-0.5626469850540161,0.4582268297672272
1772790289329371100,15.49837109375,2.199838876724243,-0.7874799966812134,0.49386489391326904
1772790289349406200,15.51840625,2.2387871742248535,-0.98774653673172,0.5617467761039734
1772790289369440300,15.538440185546875,2.2043373584747314,-1.069566249847412,0.6585303544998169
1772790289389474300,15.558474365234375,2.0142786502838135,-0.9680540561676025,0.7791427969932556
1772790289409509400,15.57850927734375,1.630086064338684,-0.7097702622413635,0.8684226870536804
1772790289429543200,15.598543212890625,1.0858315229415894,-0.3344961106777191,0.9423109292984009
1772790289449577200,15.6185771484375,0.4711395502090454,0.12079645693302155,1.0363272428512573
1772790289469611500,15.638611572265624,-0.01844099536538124,0.5043928027153015,1.1387741565704346
1772790289489646000,15.65864599609375,-0.32219842076301575,0.8188844919204712,1.2970589399337769
1772790289509680400,15.678680419921875,-0.294333279132843,0.9814990758895874,1.3706884384155273
1772790289529714400,15.69871435546875,-0.13722944259643555,1.0562363862991333,1.3028792142868042
1772790289549749200,15.718749267578126,-0.031547464430332184,1.1031090021133423,0.9550135731697083
1772790289569783300,15.738783203125,-0.13868151605129242,1.0173242092132568,0.46449336409568787
1772790289589817300,15.7588173828125,-0.3926278352737427,0.8619673252105713,0.3150581419467926
1772790289609852400,15.778852294921874,-0.6374078989028931,0.6076493859291077,0.5128512978553772
1772790289629886500,15.798886474609375,-0.8153772950172424,0.2267986387014389,0.8145745992660522
1772790289649920300,15.818920166015625,-0.985622763633728,-0.24812790751457214,0.8993169665336609
1772790289669954300,15.838954345703126,-1.230995535850525,-0.6337886452674866,0.7067498564720154
1772790289689989400,15.8589892578125,-1.6084538698196411,-0.8918961882591248,0.3382677435874939
1772790289710023200,15.879023193359375,-1.9106009006500244,-1.015592336654663,-0.11012428253889084
1772790289730057200,15.89905712890625,-1.983355164527893,-1.0252020359039307,-0.45961952209472656
1772790289750092300,15.91909228515625,-1.7910094261169434,-0.9012819528579712,-0.6419274210929871
1772790289770126000,15.9391259765625,-1.4112098217010498,-0.6524181962013245,-0.6738829612731934
1772790289790160100,15.95916015625,-1.0258957147598267,-0.2057933658361435,-0.6105569005012512
1772790289810194200,15.979194091796876,-0.8064042925834656,0.2776573896408081,-0.4400652050971985
1772790289830229200,15.999229248046875,-0.6904971599578857,0.6932037472724915,-0.23962551355361938
1772790289850263000,16.019262939453125,-0.5538666248321533,0.9327219128608704,-0.10805218666791916
1772790289870297000,16.039297119140624,-0.45360055565834045,0.8531113266944885,-0.052901800721883774
1772790289890332200,16.059332275390624,-0.4748859703540802,0.5478134155273438,-0.010912757366895676
1772790289910366200,16.0793662109375,-0.5247454047203064,0.16609816253185272,-0.04197578877210617
1772790289930400300,16.099400146484374,-0.5361404418945312,-0.2435072511434555,-0.1793406754732132
1772790289950434300,16.119434326171874,-0.5764238238334656,-0.5764861702919006,-0.2808508574962616
1772790289970469000,16.13946923828125,-0.6247208714485168,-0.8855153918266296,-0.2635756731033325
1772790289990503200,16.159503173828124,-0.7147130370140076,-1.1276377439498901,-0.20086628198623657
1772790290010537200,16.179537109375,-0.9062147736549377,-1.2975510358810425,-0.09982240200042725
1772790290030572300,16.199572265625,-1.1146444082260132,-1.334312915802002,-0.022219959646463394
1772790290050606300,16.2196064453125,-1.3877304792404175,-1.2895222902297974,-0.0025676656514406204
1772790290070640000,16.23964013671875,-1.5751579999923706,-1.0715798139572144,-0.02807864546775818
1772790290090674200,16.259674072265625,-1.5644128322601318,-0.7437393069267273,-0.05908188596367836
1772790290110709200,16.279709228515625,-1.4417221546173096,-0.3419684171676636,-0.11939552426338196
1772790290130743300,16.299743408203124,-1.386089563369751,0.1758003830909729,-0.24601668119430542
1772790290150777000,16.319777099609375,-1.3640257120132446,0.7009725570678711,-0.45491811633110046
1772790290170812200,16.339812255859375,-1.3864134550094604,1.1142606735229492,-0.5771819353103638
1772790290190846200,16.35984619140625,-1.404427170753479,1.374761939048767,-0.5080380439758301
1772790290210880300,16.37988037109375,-1.3515914678573608,1.501796007156372,-0.25054943561553955
1772790290230914000,16.3999140625,-1.282228708267212,1.3793652057647705,0.21688172221183777
1772790290250949000,16.41994921875,-1.1699410676956177,1.0483262538909912,0.7614918351173401
1772790290270984200,16.439984130859376,-1.0162838697433472,0.5210310220718384,1.0539393424987793
1772790290291018200,16.460018310546875,-0.791295051574707,0.14902152121067047,0.8790578842163086
1772790290311053300,16.48005322265625,-0.37096089124679565,0.18896588683128357,0.10397868603467941
1772790290331087000,16.500087158203126,-0.029664363712072372,0.5233018398284912,-0.5317912101745605
1772790290351121200,16.52012109375,0.05239392817020416,0.7900806069374084,-0.4621007442474365
1772790290371156200,16.54015625,0.26485010981559753,1.0538877248764038,-0.21829970180988312
1772790290391190300,16.560190185546876,0.55836021900177,1.4360101222991943,-0.0433969646692276
1772790290411224000,16.58022412109375,0.915448784828186,1.5365926027297974,0.2056860625743866
1772790290431258000,16.600258056640627,1.2974168062210083,1.4549343585968018,0.48843884468078613
1772790290451293200,16.620293212890626,1.7258923053741455,1.3213218450546265,0.7739822864532471
1772790290471327000,16.640326904296874,2.2025458812713623,1.3146804571151733,1.2783715724945068
1772790290491361000,16.660361083984377,2.726783275604248,1.5406832695007324,1.9548522233963013
1772790290511396000,16.68039599609375,3.2294423580169678,2.0124895572662354,2.335195302963257
1772790290531430100,16.70043017578125,3.453336477279663,2.5147500038146973,2.4356689453125
1772790290551464200,16.720464111328123,3.390547752380371,3.011897087097168,2.4017539024353027
1772790290571498200,16.740498291015626,3.2606873512268066,3.4783987998962402,2.304287910461426
1772790290591533300,16.760533203125,3.2410166263580322,3.852168083190918,2.223562240600586
1772790290611567400,16.7805673828125,3.3084053993225098,4.104000568389893,2.122861623764038
1772790290631601200,16.80060107421875,3.419806480407715,4.189279556274414,1.9890427589416504
1772790290651636200,16.82063623046875,3.523125171661377,3.970583200454712,1.7392103672027588
1772790290671670300,16.840670166015624,3.4741365909576416,3.4511938095092773,1.4066221714019775
1772790290691704300,16.860704345703127,3.2765069007873535,2.72995662689209,0.9731431603431702
1772790290711738000,16.880738037109374,3.0292158126831055,1.8717371225357056,0.4458950161933899
1772790290731773200,16.900773193359374,2.8274354934692383,0.9235201478004456,-0.08658917993307114
1772790290751807200,16.92080712890625,2.609429359436035,0.004084782674908638,-0.44283100962638855
1772790290771841300,16.94084130859375,2.390474796295166,-0.7527911067008972,-0.6483751535415649
1772790290791876000,16.9608759765625,2.0758752822875977,-1.2712583541870117,-0.7626911997795105
1772790290811910100,16.98091015625,1.774458646774292,-1.5470008850097656,-0.9487847089767456
1772790290831944200,17.000944091796875,1.6028201580047607,-1.599005103111267,-1.1244274377822876
1772790290851978200,17.020978271484374,1.5259342193603516,-1.488266944885254,-1.1989398002624512
1772790290872013000,17.041012939453125,1.4945734739303589,-1.2982864379882812,-1.1213960647583008
1772790290892047000,17.061047119140625,1.4329040050506592,-1.118497610092163,-0.9147658348083496
1772790290912081200,17.0810810546875,1.3068197965621948,-0.9233081340789795,-0.6841591000556946
1772790290932116200,17.1011162109375,1.199907898902893,-0.7279144525527954,-0.7731627821922302
1772790290952150000,17.12114990234375,0.8228179812431335,-0.6042668223381042,-0.9739012718200684
1772790290972184000,17.14118408203125,0.1633087694644928,-0.5579240322113037,-0.9766599535942078
1772790290992218400,17.16121826171875,-0.6084192991256714,-0.4753475487232208,-0.726493775844574
1772790291012253200,17.181253173828125,-1.3593311309814453,-0.37473899126052856,-0.2907094359397888
1772790291032287200,17.201287353515625,-2.030372381210327,-0.29014647006988525,0.12950165569782257
1772790291052321300,17.2213212890625,-2.57806134223938,-0.22562752664089203,0.37562787532806396
1772790291072356400,17.2413564453125,-2.9157145023345947,-0.22366364300251007,0.5049300789833069
1772790291092390400,17.261390380859375,-3.082974910736084,-0.24762773513793945,0.5262208580970764
1772790291112424200,17.281424072265626,-3.1312875747680664,-0.23653867840766907,0.3406234681606293
1772790291132458200,17.301458251953125,-3.1983702182769775,-0.1703757643699646,-0.02890665829181671
1772790291152493300,17.321493408203125,-3.3196394443511963,0.004591360688209534,-0.3619328737258911
1772790291172527000,17.341527099609376,-3.519718647003174,0.26589998602867126,-0.41473421454429626
1772790291192561200,17.36156103515625,-3.6765570640563965,0.6307244300842285,-0.16510985791683197
1772790291212595200,17.38159521484375,-3.6308021545410156,1.0219452381134033,0.1790432333946228
1772790291232630300,17.40163037109375,-3.3865272998809814,1.2847111225128174,0.486012727022171
1772790291252664000,17.4216640625,-2.9706814289093018,1.284807562828064,0.729503333568573
1772790291272698000,17.441697998046877,-2.423976182937622,0.9348404407501221,0.8465092182159424
1772790291292733200,17.461733154296876,-1.8125938177108765,0.1490183025598526,0.8498980402946472
1772790291312767200,17.481767333984376,-1.3326358795166016,-0.971168041229248,0.7275488376617432
1772790291332801000,17.501801025390623,-1.0493197441101074,-1.9732482433319092,0.3657524883747101
1772790291352835000,17.5218349609375,-0.8755491375923157,-2.647075653076172,-0.1273702085018158
1772790291372870100,17.5418701171875,-0.7312292456626892,-3.0102336406707764,-0.5016613602638245
1772790291392904200,17.561904296875,-0.554982602596283,-3.1111176013946533,-0.6915962100028992
1772790291412938200,17.581938232421876,-0.3841289281845093,-2.9143993854522705,-0.758768618106842
1772790291432973000,17.60197314453125,-0.2476506531238556,-2.597121477127075,-0.7902072668075562
1772790291453007000,17.622007080078124,-0.23001490533351898,-2.261622905731201,-0.7829287052154541
1772790291473041400,17.64204150390625,-0.3836844861507416,-1.9804126024246216,-0.6911986470222473
1772790291493075200,17.6620751953125,-0.7042371034622192,-1.755297064781189,-0.5208771824836731
1772790291513110300,17.6821103515625,-1.0736894607543945,-1.5275832414627075,-0.3119186460971832
1772790291533144300,17.702144287109373,-1.4553990364074707,-1.2013740539550781,-0.02795102447271347
1772790291553178000,17.72217822265625,-1.76277756690979,-0.8196637034416199,0.29350289702415466
1772790291573213200,17.742213134765624,-1.810811996459961,-0.5007306933403015,0.5634699463844299
1772790291593247200,17.762247314453123,-1.5834208726882935,-0.2509191334247589,0.8378176689147949
1772790291613281300,17.78228125,-1.235324501991272,-0.06704133003950119,1.0852923393249512
1772790291633315000,17.802315185546874,-0.8070892691612244,-0.061857979744672775,1.1576764583587646
1772790291653350100,17.82235009765625,-0.24392308294773102,-0.32529446482658386,0.7542532086372375
1772790291673384200,17.84238427734375,0.242616206407547,-0.7976544499397278,-0.15362641215324402
1772790291693418200,17.862418212890624,0.5093556046485901,-1.2326987981796265,-1.118097186088562
1772790291713452300,17.882452392578124,0.5976405739784241,-1.4507477283477783,-1.7332310676574707
1772790291733487400,17.9024873046875,0.7248225808143616,-1.1272692680358887,-1.960339069366455
1772790291753521200,17.922521240234374,0.9952981472015381,-0.4627246856689453,-1.7704057693481445
1772790291773555200,17.94255517578125,1.4135593175888062,0.09582515805959702,-1.3667248487472534
1772790291793590300,17.96259033203125,1.7807203531265259,0.39400455355644226,-1.0772559642791748
1772790291813624300,17.982624267578124,1.9251759052276611,0.4456709027290344,-1.011618971824646
1772790291833658000,18.002658203125,1.9240360260009766,0.3832905888557434,-1.1880899667739868
1772790291853692400,18.0226923828125,1.8824225664138794,0.31072908639907837,-1.3994592428207397
1772790291873727200,18.042727294921875,1.850516676902771,0.27055615186691284,-1.4811795949935913
1772790291893761300,18.06276123046875,1.7830673456192017,0.24042879045009613,-1.3526877164840698
1772790291913795300,18.08279541015625,1.7565172910690308,0.28296008706092834,-1.100315809249878
1772790291933829400,18.102829345703125,1.8638182878494263,0.370997816324234,-0.8985108733177185
1772790291953864400,18.122864501953124,2.0120010375976562,0.38216525316238403,-0.5414206981658936
1772790291973898500,18.1428984375,2.22428822517395,0.36394229531288147,-0.07159188389778137
1772790291993932300,18.162932373046875,2.425377607345581,0.33125609159469604,0.4278382956981659
1772790292013967400,18.18296728515625,2.4725546836853027,0.20944860577583313,0.8952905535697937
1772790292034001400,18.20300146484375,2.298828125,0.06719332188367844,1.0118461847305298
1772790292054035500,18.223035400390625,1.995519757270813,-0.09356597810983658,0.7631474733352661
1772790292074069200,18.2430693359375,1.7016512155532837,-0.1723208725452423,0.33213451504707336
1772790292094104300,18.263104248046876,1.582948923110962,-0.19644267857074738,-0.09537176042795181
1772790292114138400,18.283138427734375,1.6388660669326782,-0.1698625683784485,-0.39844176173210144
1772790292134172200,18.303172119140626,1.8345553874969482,-0.1438153088092804,-0.5814743041992188
1772790292154206200,18.323206298828126,2.087744951248169,-0.174051433801651,-0.7068930864334106
1772790292174241300,18.3432412109375,2.2885355949401855,-0.3909129500389099,-0.8217062950134277
1772790292194275300,18.363275390625,2.345126152038574,-0.6786853671073914,-0.9000687003135681
1772790292214309000,18.38330908203125,2.31874942779541,-1.0874247550964355,-0.9471406936645508
1772790292234344200,18.40334423828125,2.1840293407440186,-1.480210781097412,-0.8958287239074707
1772790292254378200,18.423378173828127,1.8637182712554932,-1.8070237636566162,-0.7613540291786194
1772790292274412300,18.443412353515626,1.3621760606765747,-1.9913305044174194,-0.6798024773597717
1772790292294446300,18.4634462890625,0.7506950497627258,-2.044403314590454,-0.7082626819610596
1772790292314481200,18.483481201171877,0.1513047069311142,-1.9112714529037476,-0.8315728902816772
1772790292334515500,18.503515380859376,-0.35228967666625977,-1.6589324474334717,-0.9004164934158325
1772790292354549500,18.523549560546876,-0.7589230537414551,-1.315199851989746,-0.8878820538520813
1772790292374584300,18.543584228515623,-1.1180044412612915,-0.8801390528678894,-0.8583038449287415
1772790292394618400,18.563618408203126,-1.4994257688522339,-0.42972812056541443,-0.8735330104827881
1772790292414652400,18.58365234375,-1.9540562629699707,0.07665061205625534,-1.0085073709487915
1772790292434686500,18.6036865234375,-2.449211359024048,0.539147138595581,-1.2637571096420288
1772790292454721300,18.62372119140625,-2.9284420013427734,1.0175745487213135,-1.4807922840118408
1772790292474755300,18.64375537109375,-3.2737371921539307,1.5657265186309814,-1.7496088743209839
1772790292494789400,18.663789306640624,-3.7139430046081543,2.0895345211029053,-1.9258002042770386
1772790292514823200,18.6838232421875,-4.230777263641357,2.4299075603485107,-1.6654022932052612
1772790292534858200,18.703858154296874,-4.653112888336182,2.5785458087921143,-1.0664982795715332
1772790292554892300,18.723892333984374,-4.936094284057617,2.4167418479919434,-0.3885955214500427
1772790292574926300,18.74392626953125,-5.0670952796936035,1.906584620475769,0.30115363001823425
1772790292594960100,18.763960205078124,-5.0019354820251465,1.1648210287094116,0.9127339720726013
1772790292614995200,18.7839951171875,-4.748079299926758,0.37363556027412415,1.431429147720337
1772790292635029200,18.804029296875,-4.2814717292785645,-0.4207295775413513,1.7644023895263672
1772790292655063300,18.824063232421874,-3.584920883178711,-1.0936741828918457,1.9089103937149048
1772790292675098400,18.844098388671874,-2.7517805099487305,-1.566552996635437,1.9841179847717285
1772790292695132200,18.864132080078125,-1.9002349376678467,-1.7764312028884888,2.0641231536865234
1772790292715166500,18.88416650390625,-1.0977859497070312,-1.7368957996368408,2.0730786323547363
1772790292735200800,18.90420068359375,-0.3825632929801941,-1.4562060832977295,1.7504528760910034
1772790292755235600,18.924235595703124,0.2159527689218521,-1.0875308513641357,1.028226375579834
1772790292775269600,18.94426953125,0.6444072723388672,-0.842654824256897,0.12101655453443527
1772790292795303700,18.9643037109375,1.0082327127456665,-0.8352149724960327,-0.8591080904006958
1772790292815338500,18.98433837890625,1.2388966083526611,-0.8955342173576355,-1.6892921924591064
1772790292835372500,19.00437255859375,1.3023689985275269,-1.1826857328414917,-2.163306713104248
1772790292855406600,19.024406494140624,1.3432228565216064,-1.6118018627166748,-2.3483312129974365
1772790292875440600,19.044440673828124,1.3086005449295044,-2.1046969890594482,-2.334171772003174
1772790292895475700,19.064475830078123,1.1471120119094849,-2.5681183338165283,-2.126744508743286
1772790292915509500,19.084509521484375,0.8789780139923096,-3.0119149684906006,-1.8201276063919067
1772790292935543600,19.10454345703125,0.6686738133430481,-3.2947325706481934,-1.555214762687683
1772790292955577600,19.12457763671875,0.5688540935516357,-3.366119146347046,-1.3633519411087036
1772790292975612700,19.14461279296875,0.6086578965187073,-3.2042126655578613,-1.1740961074829102
1772790292995646500,19.164646484375,0.6211342215538025,-2.801018238067627,-0.9334419369697571
1772790293015680500,19.184680419921875,0.5383164882659912,-2.1412835121154785,-0.7400509715080261
1772790293035714600,19.204714599609375,0.35610419511795044,-1.3383430242538452,-0.48232322931289673
1772790293055749600,19.22474951171875,0.21730971336364746,-0.521741509437561,-0.07358112931251526
1772790293075783400,19.244783447265625,0.19450786709785461,0.2299024909734726,0.5006575584411621
1772790293095817500,19.2648173828125,0.2297234982252121,0.8466976881027222,1.1042423248291016
1772790293115852500,19.2848525390625,0.2543002963066101,1.3070149421691895,1.528641939163208
1772790293135886600,19.304886474609376,0.1944638341665268,1.5567444562911987,1.5612982511520386
1772790293155920400,19.32492041015625,0.03225575014948845,1.543049693107605,1.1632014513015747
1772790293175954700,19.34495458984375,-0.1618492156267166,1.3853983879089355,0.4238925278186798
1772790293195989500,19.364989501953126,-0.1933816522359848,1.1615298986434937,-0.5300321578979492
1772790293216023600,19.3850234375,-0.22659987211227417,0.9289448857307434,-1.305232286453247
1772790293236057600,19.4050576171875,-0.3338989019393921,0.7075559496879578,-1.6358411312103271
1772790293256091600,19.425091552734376,-0.4293128550052643,0.4807335138320923,-1.5176137685775757
1772790293276126700,19.445126708984375,-0.45030564069747925,0.29296112060546875,-1.0473806858062744
1772790293296160500,19.465160400390626,-0.2775668501853943,0.14580431580543518,-0.6063371896743774
1772790293316194600,19.485194580078126,0.02773367427289486,0.0270082950592041,-0.36129945516586304
1772790293336228600,19.505228515625,0.3402581214904785,-0.06726834923028946,-0.27155986428260803
1772790293356263700,19.525263671875,0.5989068746566772,-0.13565479218959808,-0.19798722863197327
1772790293376297500,19.54529736328125,0.7970595359802246,-0.09696804732084274,-0.06793910264968872
1772790293396331500,19.56533154296875,0.9801520705223083,0.01632721908390522,0.08224136382341385
1772790293416366600,19.58536669921875,1.1271600723266602,0.26323649287223816,0.25236570835113525
1772790293436400600,19.605400634765626,1.2225241661071777,0.5902734994888306,0.4165150821208954
1772790293456434400,19.625434326171874,1.2778254747390747,1.0174072980880737,0.5454149842262268
1772790293476468500,19.645468505859377,1.1945757865905762,1.5114184617996216,0.6656039953231812
1772790293496503600,19.665503662109376,1.0111578702926636,2.0072274208068848,0.8709777593612671
1772790293516537600,19.68553759765625,0.8095774054527283,2.4715569019317627,1.1197099685668945
1772790293536571400,19.7055712890625,0.7347384691238403,2.891627788543701,1.3543920516967773
1772790293556605700,19.725605712890626,0.785485029220581,3.2484867572784424,1.6006054878234863
1772790293576640500,19.745640625,0.9989175796508789,3.5233304500579834,1.8217138051986694
1772790293596674600,19.765674560546874,1.3684433698654175,3.711787223815918,1.9593628644943237
1772790293616708600,19.78570849609375,1.863864541053772,3.732240676879883,1.9768320322036743
1772790293636743400,19.805743408203124,2.442882776260376,3.5248212814331055,1.8693859577178955
1772790293656777700,19.82577783203125,2.9856715202331543,3.0617849826812744,1.6655694246292114
1772790293676811500,19.8458115234375,3.385368585586548,2.401765823364258,1.3010693788528442
1772790293696845600,19.865845458984374,3.638629674911499,1.5296103954315186,0.7447486519813538
1772790293716881000,19.885880859375,3.7659590244293213,0.4820057451725006,0.0798429548740387
1772790293736914700,19.905914794921873,3.7325057983398438,-0.6703757047653198,-0.5670578479766846
1772790293756948700,19.92594873046875,3.4902381896972656,-1.8126766681671143,-1.1543846130371094
1772790293776982800,19.945982666015624,3.1365482807159424,-2.8471579551696777,-1.592307686805725
1772790293797017600,19.966017578125,2.6877620220184326,-3.6928560733795166,-1.7136708498001099
1772790293817051600,19.9860517578125,2.095576286315918,-4.194601535797119,-1.4461861848831177
1772790293837084700,20.006084716796874,1.4701796770095825,-4.016693115234375,-0.9820274710655212
1772790293857118700,20.02611865234375,1.0128949880599976,-3.3719494342803955,-0.5931675434112549
1772790293877153500,20.046153564453125,0.7794442176818848,-2.4940221309661865,-0.3110688030719757
1772790293897187600,20.0661875,0.7946134805679321,-1.490675926208496,-0.16019944846630096
1772790293917222000,20.086221923828123,0.827162504196167,-0.5735579133033752,-0.07282335311174393
1772790293937255700,20.106255615234375,0.6878411173820496,0.09253612905740738,0.25178462266921997
1772790293957290800,20.126290771484374,0.33960410952568054,0.4425397217273712,0.9047505855560303
1772790293977324800,20.14632470703125,-0.27972960472106934,0.5785854458808899,1.607664704322815
1772790293997358800,20.16635888671875,-1.0105856657028198,0.5042288899421692,1.901986002922058
1772790294017392600,20.186392578125,-1.7123738527297974,0.2743915915489197,1.6853121519088745
1772790294037427700,20.206427734375,-2.3599154949188232,-0.08851297944784164,1.1966655254364014
1772790294057461800,20.226461669921875,-2.8632123470306396,-0.47108373045921326,0.5343776941299438
1772790294077495600,20.24649560546875,-3.2301554679870605,-0.6891438961029053,-0.2482524961233139
1772790294097529600,20.266529541015625,-3.418377161026001,-0.6146637201309204,-1.0464415550231934
1772790294117564700,20.286564697265625,-3.349890947341919,-0.2242269515991211,-1.780668020248413
1772790294137598700,20.3065986328125,-3.0405473709106445,0.4664195477962494,-2.403148651123047
1772790294157632500,20.326632568359376,-2.719750165939331,1.3005549907684326,-2.7352848052978516
1772790294177666600,20.34666650390625,-2.593085289001465,1.9793049097061157,-2.6535520553588867
1772790294197701600,20.36670166015625,-2.5517938137054443,2.4666202068328857,-2.278437852859497
1772790294217735700,20.386735595703126,-2.473219633102417,2.630629301071167,-1.840389609336853
1772790294237769700,20.406769775390625,-2.2656264305114746,2.4249415397644043,-1.5112537145614624
1772790294257805600,20.4268056640625,-1.811132550239563,1.7749731540679932,-1.3742910623550415
1772790294277839600,20.446839599609376,-1.2557566165924072,0.7613535523414612,-1.3063747882843018
1772790294297873700,20.466873779296876,-0.7892253994941711,-0.35822024941444397,-1.1722749471664429
1772790294317907500,20.486907470703127,-0.5218645334243774,-1.420432448387146,-0.9258298873901367
1772790294337942500,20.506942626953126,-0.49816957116127014,-2.329279661178589,-0.6201191544532776
1772790294357976600,20.5269765625,-0.7039982676506042,-3.170971393585205,-0.2593316435813904
1772790294378010600,20.5470107421875,-1.0714244842529297,-3.703430652618408,0.15977458655834198
1772790294398045700,20.567045654296876,-1.4102133512496948,-3.8242835998535156,0.45787274837493896
1772790294418079500,20.58707958984375,-1.5862675905227661,-3.457812547683716,0.5763998031616211
1772790294438113800,20.60711376953125,-1.3997180461883545,-2.5893068313598633,0.6225953102111816
1772790294458147800,20.62714794921875,-1.315858006477356,-1.395357608795166,0.7380890250205994
1772790294478183000,20.647182861328126,-1.3111612796783447,-0.10689237713813782,0.5151926875114441
1772790294498216700,20.667216796875,-1.036767840385437,1.2030526399612427,-0.0407046414911747
1772790294518250800,20.687250732421877,-0.9118227958679199,2.174088954925537,-0.5472979545593262
1772790294538284800,20.707284912109376,-1.0906213521957397,2.6521806716918945,-0.8786414861679077
1772790294558319600,20.727319580078124,-1.217987060546875,2.6766161918640137,-0.8743972182273865
1772790294578353700,20.747353759765623,-1.0872771739959717,2.5820744037628174,-0.4620661735534668
1772790294598387700,20.7673876953125,-0.47822844982147217,2.790229558944702,-0.06700829416513443
1772790294618421800,20.787421875,0.14472591876983643,3.0859181880950928,0.567171573638916
1772790294638456600,20.80745654296875,0.9431555271148682,3.020141124725342,1.2019387483596802
1772790294658490600,20.82749072265625,1.6016019582748413,2.860558032989502,1.1960208415985107
1772790294678524700,20.847524658203124,1.9210995435714722,2.7402350902557373,0.8522432446479797
1772790294698558500,20.867558349609375,2.0788044929504395,2.4944615364074707,0.4624377489089966
1772790294718593800,20.88759375,2.1589646339416504,2.1991100311279297,0.2052285075187683
1772790294738627800,20.9076279296875,2.2140300273895264,1.9597722291946411,0.07708927243947983
1772790294758662000,20.927661865234374,2.2237558364868164,1.6385302543640137,0.028730137273669243
1772790294778697000,20.947697021484377,2.2141382694244385,1.1153813600540161,0.06972483545541763
1772790294798730800,20.967730712890624,2.3093879222869873,0.9495532512664795,0.0419793464243412
1772790294818764800,20.987764892578124,2.4265220165252686,1.1187890768051147,0.012830200605094433
1772790294838799000,21.007799072265627,2.4894962310791016,1.3898805379867554,-0.011661997064948082
1772790294858834000,21.027833984375,2.5795416831970215,1.683786153793335,-0.03754439949989319
1772790294878868000,21.047867919921874,2.5740463733673096,1.928977370262146,-0.04713348299264908
1772790294898902000,21.067902099609373,2.4342122077941895,2.2783493995666504,-0.08021868765354156
1772790294918936000,21.08793603515625,2.3334665298461914,2.742872476577759,-0.23363539576530457
1772790294938971100,21.10797119140625,2.2675232887268066,3.1612002849578857,-0.5075350403785706
1772790294959005000,21.1280048828125,2.3500561714172363,3.4009182453155518,-0.7833302021026611
1772790294979039000,21.1480390625,2.4811770915985107,3.4770407676696777,-0.941986083984375
1772790294999073000,21.168072998046874,2.719771385192871,3.278268814086914,-0.9946139454841614
1772790295019107800,21.18810791015625,3.0585551261901855,2.951399087905884,-0.9565713405609131
1772790295039142000,21.208141845703125,3.423527717590332,2.5407769680023193,-0.8448590636253357
1772790295059176000,21.228176025390624,3.7476720809936523,2.122192621231079,-0.61095130443573
1772790295079210000,21.2482099609375,3.904524326324463,1.6514891386032104,-0.2806977331638336
1772790295099244800,21.268244873046875,3.8788204193115234,1.132262110710144,0.022727560251951218
1772790295119278800,21.28827880859375,3.688293695449829,0.5360094308853149,0.21620507538318634
1772790295139313000,21.30831298828125,3.368476629257202,-0.027365848422050476,0.3054293692111969
1772790295159347000,21.328346923828125,3.0293354988098145,-0.5600521564483643,0.3470692038536072
1772790295179381800,21.3483818359375,2.828108787536621,-0.7396817803382874,0.385867178440094
1772790295199415800,21.368415771484376,2.904414415359497,-0.31528010964393616,0.6249989867210388
1772790295219450000,21.3884501953125,3.186985731124878,0.6377360820770264,1.2317839860916138
1772790295239484000,21.40848388671875,3.414848566055298,1.541786551475525,2.121147871017456
1772790295259519000,21.42851904296875,3.5734291076660156,2.1121573448181152,2.689154863357544
1772790295279553000,21.448552978515625,3.5974249839782715,2.1812450885772705,2.8477530479431152
1772790295299587000,21.468587158203125,3.5137546062469482,1.881860613822937,2.8228774070739746
1772790295319620900,21.488620849609376,3.3799586296081543,1.4101362228393555,2.7574896812438965
1772790295339656000,21.508656005859375,3.1754655838012695,0.7890912890434265,2.706089973449707
1772790295359690000,21.52868994140625,2.981435775756836,0.19877299666404724,2.669902801513672
1772790295379724000,21.54872412109375,2.8639893531799316,-0.3281679153442383,2.6704277992248535
1772790295399757800,21.5687578125,2.7578868865966797,-0.6622162461280823,2.773144006729126
1772790295419793000,21.58879296875,2.618299961090088,-0.9506322145462036,2.9892935752868652
1772790295439827000,21.608826904296876,2.4437453746795654,-1.124886155128479,3.235414505004883
1772790295459861000,21.628861083984376,2.2748687267303467,-1.262736201286316,3.4357874393463135
1772790295479894800,21.648894775390627,2.1564781665802,-1.2953262329101562,3.5536396503448486
1772790295499929900,21.668929931640626,2.1443262100219727,-1.215012550354004,3.602907657623291
1772790295519964000,21.6889638671875,2.2079145908355713,-1.025675892829895,3.5839154720306396
1772790295539997700,21.708997802734373,2.311743974685669,-0.7616934776306152,3.470923900604248
1772790295560032000,21.729031982421876,2.3545138835906982,-0.5162031054496765,3.330307722091675
1772790295580066800,21.74906689453125,2.3260304927825928,-0.3083316683769226,3.1770002841949463
1772790295600101000,21.76910107421875,2.22451114654541,-0.1379949152469635,3.0681557655334473
1772790295620135000,21.789135009765626,2.09804105758667,0.015103047713637352,3.1039373874664307
1772790295640169000,21.8091689453125,2.067913293838501,0.19996052980422974,3.2864677906036377
1772790295660204000,21.8292041015625,2.288996934890747,0.2560916244983673,3.5024211406707764
1772790295680238000,21.849238037109377,2.699575901031494,0.26773107051849365,3.6248176097869873
1772790295700271900,21.86927197265625,2.718838930130005,0.3152720034122467,3.644134998321533
1772790295720306000,21.889305908203124,2.296199321746826,0.17115603387355804,3.2297351360321045
1772790295740340700,21.9093408203125,1.6027376651763916,-0.014806454069912434,2.2718074321746826
1772790295760374800,21.929374755859374,0.9745345711708069,-0.13948319852352142,1.3786879777908325
1772790295780408800,21.949408935546874,0.57383793592453,-0.3981008529663086,1.5127761363983154
1772790295800442600,21.969442626953125,0.20594285428524017,-0.5576092600822449,2.6201870441436768
1772790295820477700,21.989477783203125,-0.4925650656223297,-0.17308779060840607,3.562931537628174
1772790295840511700,22.00951171875,-1.1874356269836426,0.30924779176712036,3.140495538711548
1772790295860545800,22.0295458984375,-1.7738215923309326,0.7626005411148071,1.4891853332519531
1772790295880579600,22.04957958984375,-1.8587101697921753,1.2023059129714966,-0.7733597159385681
1772790295900614700,22.06961474609375,-2.116934061050415,1.2692089080810547,-2.406404733657837
1772790295920648700,22.089648681640625,-2.552020311355591,1.2665141820907593,-3.130370855331421
1772790295940683000,22.10968310546875,-2.839780807495117,1.232217788696289,-3.2901859283447266
1772790295960716800,22.129716796875,-2.8948943614959717,1.02983820438385,-3.051693916320801
1772790295980752000,22.149751953125,-2.7244389057159424,0.6049625873565674,-2.787795305252075
1772790296000786000,22.169785888671875,-2.4616239070892334,-0.04895082116127014,-2.5557804107666016
1772790296020820000,22.189820068359374,-2.311652183532715,-0.695284903049469,-2.3245158195495605
1772790296040853800,22.209853759765625,-2.171846628189087,-1.2085915803909302,-2.057473659515381
1772790296060888800,22.229888916015625,-1.9801738262176514,-1.5174520015716553,-1.7604578733444214
1772790296080923000,22.2499228515625,-1.7394763231277466,-1.6326359510421753,-1.4278615713119507
1772790296100957000,22.26995703125,-1.508813738822937,-1.6011021137237549,-1.1007522344589233
1772790296120990700,22.28999072265625,-1.3191685676574707,-1.466827630996704,-0.8221225738525391
1772790296141025800,22.31002587890625,-1.1833134889602661,-1.2111235857009888,-0.613311231136322
1772790296161059800,22.330059814453126,-1.1561980247497559,-0.847531259059906,-0.4210284352302551
1772790296181093600,22.35009375,-1.2092833518981934,-0.4447939395904541,-0.21882791817188263
1772790296201127700,22.370127685546876,-1.3631274700164795,-0.07688732445240021,-0.030793631449341774
1772790296221162800,22.390162841796876,-1.5782495737075806,0.33518531918525696,0.12138982117176056
1772790296241196800,22.41019677734375,-1.7738468647003174,0.6580284833908081,0.3671800494194031
1772790296261230600,22.430230712890626,-1.9724186658859253,0.8237385749816895,0.6759580373764038
1772790296281265000,22.450264892578126,-2.1776599884033203,0.9472841024398804,0.9806386232376099
1772790296301299700,22.4702998046875,-2.3723158836364746,1.0016473531723022,1.260774850845337
1772790296321333800,22.490333740234377,-2.4999470710754395,1.0021741390228271,1.4993513822555542
1772790296341367800,22.510367919921876,-2.550826072692871,0.9829903841018677,1.6394338607788086
1772790296361401900,22.53040185546875,-2.5878958702087402,0.8043736219406128,1.4569551944732666
1772790296381437000,22.55043701171875,-2.486572504043579,0.5706881284713745,0.8822989463806152
1772790296401471000,22.570470947265626,-2.049170970916748,0.27125459909439087,0.05064937472343445
1772790296421504800,22.5905048828125,-1.5386314392089844,-0.18291634321212769,-0.6818015575408936
1772790296441538800,22.610538818359377,-1.307460069656372,-0.5752043724060059,-0.9393846988677979
1772790296461572900,22.63057275390625,-1.1045387983322144,-0.9242817163467407,-0.906392514705658
1772790296481608000,22.65060791015625,-0.43452611565589905,-1.4471065998077393,-1.0981855392456055
1772790296501641700,22.670641845703123,0.3650316894054413,-1.6516718864440918,-1.5194281339645386
1772790296521675800,22.69067578125,0.9553076028823853,-1.5244146585464478,-1.5941787958145142
1772790296541709800,22.710709716796874,1.261196494102478,-0.8726872205734253,-1.1759674549102783
1772790296561745000,22.730744873046874,1.4014157056808472,0.13994166254997253,-0.4978295564651489
1772790296581778700,22.75077880859375,1.6687891483306885,0.9548400044441223,0.04784088209271431
1772790296601812700,22.770812744140624,1.982697606086731,1.37300443649292,0.3393225371837616
1772790296621847000,22.790846923828123,2.3320670127868652,1.3855255842208862,0.5322943925857544
1772790296641881600,22.810881591796875,2.9708878993988037,1.5294241905212402,0.752369225025177
1772790296661916000,22.830916015625,3.8535304069519043,2.221928596496582,1.1017001867294312
1772790296681950000,22.850949951171874,4.509002685546875,3.29252290725708,1.7010940313339233
1772790296701983700,22.870983642578125,4.732020854949951,4.058312892913818,2.4824087619781494
1772790296722018300,22.891018310546876,4.503396987915039,4.197262287139893,3.1144638061523438
1772790296742052400,22.91105224609375,3.935312509536743,3.712801694869995,3.3294615745544434
1772790296762086400,22.93108642578125,3.107980728149414,2.9025015830993652,3.1125271320343018
1772790296782120200,22.9511201171875,2.024729013442993,2.0932657718658447,2.5050573348999023
1772790296802155300,22.9711552734375,0.9950907826423645,1.3472113609313965,1.486000418663025
1772790296822189300,22.991189208984373,0.33525902032852173,0.7435993552207947,0.2874017655849457
1772790296842223400,23.011223388671876,0.19353576004505157,0.3532394468784332,-0.7064564824104309
1772790296862257200,23.031257080078124,0.40918952226638794,0.16341596841812134,-1.5131646394729614
1772790296882292200,23.051292236328123,0.8060938119888306,0.030414562672376633,-2.2239346504211426
1772790296902326300,23.071326171875,1.2455679178237915,-0.17615298926830292,-2.8108365535736084
1772790296922360300,23.0913603515625,1.5139063596725464,-0.5126505494117737,-3.230705499649048
1772790296942394400,23.111394287109373,1.621163010597229,-1.0353153944015503,-3.5361130237579346
1772790296962429200,23.13142919921875,1.5967100858688354,-1.597781777381897,-3.7517614364624023
1772790296982463200,23.151463134765624,1.3262410163879395,-2.245573043823242,-3.7619469165802
1772790297002497300,23.171497314453124,1.0694606304168701,-2.753664255142212,-3.5698838233947754
1772790297022531300,23.19153125,0.7590677738189697,-3.0279786586761475,-3.1699459552764893
1772790297042565400,23.2115654296875,0.5601782202720642,-3.07889461517334,-2.511465549468994
1772790297062600400,23.231600341796874,0.3950766921043396,-2.9691593647003174,-1.6949894428253174
1772790297082634200,23.25163427734375,0.051682647317647934,-2.495391845703125,-0.8259919285774231
1772790297102668300,23.271668212890624,-0.32366716861724854,-1.3891704082489014,0.047892943024635315
1772790297122702300,23.291702392578124,-0.6381507515907288,-0.31968358159065247,0.8878787755966187
1772790297142737400,23.3117373046875,-0.8009166717529297,0.4702799618244171,1.5394446849822998
1772790297162771200,23.331771240234374,-0.8397584557533264,0.9253455400466919,1.9890042543411255
1772790297182805200,23.35180517578125,-0.8758301734924316,1.091496467590332,2.4635493755340576
1772790297202839300,23.37183935546875,-0.9952185750007629,1.0390655994415283,2.8672897815704346
1772790297222874400,23.391874267578125,-1.209689974784851,0.8794336318969727,2.9207615852355957
1772790297242908200,23.411908203125,-1.562583565711975,0.6662791967391968,2.735491991043091
1772790297262942200,23.431942138671875,-1.984176754951477,0.35818180441856384,2.537146806716919
1772790297282976500,23.4519765625,-2.3863210678100586,0.15117622911930084,2.196636199951172
1772790297303011300,23.47201123046875,-2.576892614364624,-0.052714262157678604,1.5049288272857666
1772790297323045400,23.49204541015625,-2.52138352394104,-0.27205169200897217,0.5679234266281128
1772790297343079400,23.512079345703125,-2.351071357727051,-0.6013219356536865,-0.3370765745639801
1772790297363113500,23.532113525390624,-2.1845099925994873,-1.101367712020874,-0.9656441807746887
1772790297383147300,23.552147216796875,-2.046046018600464,-1.5778812170028687,-1.2851110696792603
1772790297403182300,23.572182373046875,-1.9218165874481201,-1.8770685195922852,-1.4434400796890259
1772790297423216400,23.59221630859375,-1.7685778141021729,-1.868319034576416,-1.475563645362854
1772790297443250400,23.61225048828125,-1.5599483251571655,-1.7319809198379517,-1.391955018043518
1772790297463284200,23.6322841796875,-1.3304717540740967,-1.5442020893096924,-1.2959638833999634
1772790297483319300,23.6523193359375,-1.1109874248504639,-1.2606089115142822,-1.2051653861999512
1772790297503353300,23.672353271484376,-0.9561176896095276,-1.0257350206375122,-1.1319291591644287
1772790297523387100,23.69238720703125,-0.880119264125824,-0.7648206949234009,-1.1102204322814941
1772790297543421200,23.712421142578126,-0.861976146697998,-0.543647825717926,-1.1118335723876953
1772790297563456300,23.732456298828126,-0.9652031660079956,-0.3514839708805084,-1.0768710374832153
1772790297583490300,23.752490234375,-1.1576042175292969,-0.13787852227687836,-0.9971679449081421
1772790297603524000,23.772524169921876,-1.3528039455413818,0.10625748336315155,-0.9336724877357483
1772790297623558400,23.792558349609376,-1.5827127695083618,0.31252557039260864,-0.8130576610565186
1772790297643592400,23.812592529296875,-1.8341610431671143,0.4598105549812317,-0.6173344254493713
1772790297663627300,23.832627197265627,-2.026303768157959,0.600246250629425,-0.41401639580726624
1772790297683661300,23.852661376953126,-2.043945550918579,0.7758945226669312,-0.3077678978443146
1772790297703695400,23.8726953125,-1.8370616436004639,1.0756467580795288,-0.40049290657043457
1772790297723729400,23.8927294921875,-1.666129231452942,1.4841558933258057,-0.20674660801887512
1772790297743764500,23.912764404296876,-1.3709605932235718,1.6545699834823608,0.3961220681667328
1772790297763798500,23.932798583984376,-0.5574474334716797,1.4073742628097534,0.9908384084701538
1772790297783832600,23.95283251953125,0.6009692549705505,0.7828274965286255,1.1362305879592896
1772790297803866400,23.972866455078126,1.6330583095550537,0.020808778703212738,0.8744394779205322
1772790297823900400,23.992900390625,2.3184654712677,-0.7358757257461548,0.4916805326938629
1772790297843935500,24.012935546875,2.6742429733276367,-1.2372711896896362,0.305362343788147
1772790297863969300,24.03296923828125,2.6975741386413574,-1.4070825576782227,0.30999600887298584
1772790297884003300,24.05300341796875,2.5452334880828857,-1.2290074825286865,0.38813814520835876
1772790297904037400,24.073037353515623,2.3786427974700928,-0.7923286557197571,0.5277343392372131
1772790297924072400,24.093072509765626,2.2978270053863525,-0.1196604073047638,0.6706043481826782
1772790297944106200,24.113106201171874,2.3279402256011963,0.6024883985519409,0.7836929559707642
1772790297964140300,24.133140380859373,2.412480354309082,1.2505179643630981,0.9494557976722717
1772790297984174600,24.153174560546876,2.5434553623199463,1.7849411964416504,1.2079581022262573
1772790298004209400,24.17320947265625,2.689178466796875,2.1828629970550537,1.5038220882415771
1772790298024243500,24.193243408203124,2.92702317237854,2.4761738777160645,1.7545818090438843
1772790298044277500,24.213277587890627,3.288891315460205,2.578209638595581,1.953782320022583
1772790298064311600,24.2333115234375,3.6040008068084717,2.562051773071289,2.040574073791504
1772790298084345300,24.253345458984374,3.77573299407959,2.4231386184692383,2.0002245903015137
1772790298104380400,24.27338037109375,3.710688829421997,2.1343252658843994,1.8394311666488647
1772790298124414500,24.29341455078125,3.376830577850342,1.7630677223205566,1.50510573387146
1772790298144448500,24.313448486328124,2.87520694732666,1.3111097812652588,1.0855449438095093
1772790298164482300,24.333482421875,2.3945119380950928,0.7857962846755981,0.6132490634918213
1772790298184517400,24.353517333984374,2.09934663772583,0.2738763689994812,0.11057223379611969
1772790298204551400,24.373551513671874,2.0099129676818848,-0.19184371829032898,-0.32289546728134155
1772790298224585500,24.39358544921875,2.0308620929718018,-0.5951291918754578,-0.6289880275726318
1772790298244619300,24.413619384765624,1.9662456512451172,-0.8671236038208008,-0.8542147278785706
1772790298264653600,24.433653564453124,1.6991758346557617,-1.0867565870285034,-0.9741329550743103
1772790298284688400,24.4536884765625,1.281612515449524,-1.205127477645874,-1.0122464895248413
1772790298304722400,24.473722412109375,0.8551062941551208,-1.2310594320297241,-0.9176746606826782
1772790298324756500,24.493756591796874,0.5420223474502563,-1.0280671119689941,-0.8493481874465942
1772790298344790500,24.51379052734375,0.2118791788816452,-0.8005747199058533,-0.8417735695838928
1772790298364825600,24.53382568359375,-0.1924234926700592,-0.5080037713050842,-0.6545119285583496
1772790298384859400,24.553859375,-0.7195431590080261,-0.28533124923706055,-0.2609049081802368
1772790298404893400,24.5738935546875,-1.288710594177246,-0.02569565549492836,0.48224279284477234
1772790298424927500,24.593927490234375,-1.6721856594085693,0.15115615725517273,1.224995732307434
1772790298444961500,24.61396142578125,-1.9223248958587646,0.2274255007505417,1.7157118320465088
1772790298464996400,24.633996337890625,-2.1668174266815186,0.21978534758090973,1.941961646080017
1772790298485030400,24.654030517578125,-2.35463809967041,0.1616000533103943,1.9013694524765015
1772790298505064400,24.674064453125,-2.5051374435424805,0.14180946350097656,1.6754151582717896
1772790298525098200,24.69409814453125,-2.736003875732422,0.2782807946205139,1.3000727891921997
1772790298545132300,24.71413232421875,-3.0416462421417236,0.5868270993232727,1.0474886894226074
1772790298565167400,24.73416748046875,-3.1980440616607666,1.0992016792297363,1.117254376411438
1772790298585201400,24.754201416015626,-3.077493667602539,1.84351646900177,1.4832682609558105
1772790298605235500,24.7742353515625,-2.7641773223876953,2.4449198246002197,1.9669839143753052
1772790298625269500,24.79426953125,-2.329474449157715,2.7033119201660156,2.2349703311920166
1772790298645304300,24.81430419921875,-1.789760708808899,2.4828665256500244,2.2185561656951904
1772790298665338600,24.834338623046875,-1.1634793281555176,1.7568773031234741,1.9321619272232056
1772790298685372400,24.854372314453126,-0.6497825384140015,0.6206616759300232,1.4939143657684326
1772790298705406500,24.874406494140626,-0.35849982500076294,-0.567097008228302,0.9771745204925537
1772790298725440800,24.894440673828125,-0.2549213767051697,-1.40958833694458,0.523931622505188
1772790298745475800,24.914475830078125,-0.2965104877948761,-2.0448989868164062,0.2722480893135071
1772790298765509600,24.934509521484376,-0.4401652216911316,-2.345796823501587,0.11616208404302597
1772790298785543700,24.954543701171875,-0.5602062344551086,-2.3044822216033936,-0.04251430183649063
1772790298805577700,24.97457763671875,-0.5950679183006287,-2.02051043510437,-0.23859496414661407
1772790298825612800,24.99461279296875,-0.5589771270751953,-1.6213467121124268,-0.4234972596168518
1772790298845646600,25.014646484375,-0.5312561988830566,-1.236423373222351,-0.46052125096321106
1772790298865680600,25.0346806640625,-0.5478711724281311,-0.9198398590087891,-0.36103135347366333
1772790298885714700,25.054714599609376,-0.7139936685562134,-0.6805010437965393,-0.07426760345697403
1772790298905748500,25.07474853515625,-0.9391345977783203,-0.4018799662590027,0.24350081384181976
1772790298925783600,25.094783447265623,-1.0961390733718872,-0.16600903868675232,0.39438843727111816
1772790298945817600,25.114817626953126,-1.1752643585205078,-0.1067279726266861,0.42459142208099365
1772790298965852000,25.134851806640626,-1.162299633026123,-0.20622988045215607,0.35113725066185
