time,seconds_elapsed,z,y,x
1772791442176141800,0.349141845703125,-0.7197055816650391,-2.3330225944519043,2.017974853515625
1772791442196243200,0.3692431640625,0.6092357635498047,-2.1293270587921143,-0.18493103981018066
1772791442216344600,0.389344482421875,2.100277900695801,-2.4629085063934326,1.7888219356536865
1772791442236446000,0.409446044921875,0.850520133972168,-1.8365198373794556,2.2843236923217773
1772791442256547300,0.42954736328125,1.9249744415283203,-2.681028366088867,1.974082112312317
1772791442276648400,0.4496484375,2.107344627380371,-3.6017494201660156,2.001835823059082
1772791442296749800,0.469749755859375,-2.1742453575134277,-1.227673053741455,1.5497002601623535
1772791442316851200,0.489851318359375,1.3334836959838867,-1.2851581573486328,3.137646436691284
1772791442336952600,0.50995263671875,0.6046485900878906,-1.9418854713439941,-0.08455914258956909
1772791442357054000,0.530053955078125,0.40958499908447266,-2.7047951221466064,-1.52127206325531
1772791442377155300,0.5501552734375,4.014970779418945,-2.3695778846740723,-0.7395498156547546
1772791442397256700,0.570256591796875,1.311417579650879,-2.2719991207122803,1.2263554334640503
1772791442417357800,0.59035791015625,-2.022726058959961,-2.9908390045166016,1.4877402782440186
1772791442437459200,0.610459228515625,0.05759620666503906,-3.4996814727783203,-0.2764245271682739
1772791442457560600,0.630560546875,1.3350486755371094,-3.6323964595794678,-1.5385717153549194
1772791442477662000,0.650661865234375,0.5926055908203125,-3.787588596343994,0.9469648599624634
1772791442497763300,0.670763427734375,-1.8892803192138672,-4.228916168212891,3.8068881034851074
1772791442517864700,0.69086474609375,-2.0584716796875,-4.476570129394531,1.3206701278686523
1772791442537966000,0.710966064453125,0.6746921539306641,-4.850560188293457,0.2654901146888733
1772791442558067200,0.731067138671875,-1.6726369857788086,-4.451579570770264,1.8638725280761719
1772791442578168600,0.75116845703125,-2.7676048278808594,-3.8825390338897705,1.969297170639038
1772791442598270000,0.77127001953125,-0.08265972137451172,-2.849480152130127,1.0520551204681396
1772791442618371300,0.791371337890625,1.8206090927124023,-1.6773178577423096,3.7508974075317383
1772791442638472700,0.81147265625,0.6586179733276367,-1.0429030656814575,6.650917053222656
1772791442658574600,0.83157470703125,-0.6667709350585938,-0.9765257835388184,6.1914777755737305
1772791442678677000,0.851677001953125,-2.666294574737549,-0.8817490339279175,4.881351470947266
1772791442698779100,0.871779052734375,0.5920095443725586,0.362804651260376,2.9345061779022217
1772791442718881500,0.891881591796875,1.5573921203613281,0.5723813772201538,3.9666876792907715
1772791442738983700,0.911983642578125,-0.10778522491455078,0.9924147129058838,4.762247562408447
1772791442759086000,0.932086181640625,-0.8195352554321289,1.4251360893249512,4.666328430175781
1772791442779188500,0.9521884765625,-1.3230648040771484,2.203883171081543,4.694558143615723
1772791442799290600,0.97229052734375,0.166656494140625,1.5172204971313477,4.324397087097168
1772791442819393000,0.99239306640625,1.9766254425048828,-0.9938377141952515,4.278160095214844
1772791442839495200,1.0124951171875,1.5931730270385742,-0.9107308387756348,6.7453932762146
1772791442859597600,1.03259765625,-1.697333812713623,-0.6803030967712402,6.105447769165039
1772791442879700000,1.052699951171875,-1.6570210456848145,-1.5525481700897217,1.3090142011642456
1772791442899802000,1.072802001953125,0.7868804931640625,-1.4871479272842407,-1.1078569889068604
1772791442919904500,1.092904541015625,1.398036003112793,-1.350783109664917,-0.6862623691558838
1772791442940006700,1.113006591796875,0.3171215057373047,-0.8221375346183777,1.7097845077514648
1772791442960109000,1.133109130859375,-1.0247869491577148,-0.5041661262512207,3.275622606277466
1772791442980211500,1.15321142578125,-2.0473198890686035,-0.6272721290588379,2.660982370376587
1772791443000313600,1.173313720703125,-1.23956298828125,-0.6583534479141235,1.176131248474121
1772791443020416000,1.193416015625,0.6769142150878906,-0.9843696355819702,1.2805888652801514
1772791443040518100,1.21351806640625,1.366286277770996,-0.7087266445159912,1.9336717128753662
1772791443060620500,1.23362060546875,-0.7245397567749023,0.05104680359363556,2.3435163497924805
1772791443080722700,1.25372265625,-2.4359216690063477,0.6182160377502441,1.826685905456543
1772791443100825000,1.2738251953125,-2.413083076477051,0.9631938934326172,1.7135924100875854
1772791443120927500,1.293927490234375,-0.9274940490722656,0.9332056045532227,2.4369068145751953
1772791443141029600,1.314029541015625,0.3641319274902344,1.1580010652542114,2.8545618057250977
1772791443161131300,1.33413134765625,-0.1909036636352539,1.7363111972808838,3.655571699142456
1772791443181233000,1.35423291015625,-1.0675640106201172,2.320359706878662,3.890651226043701
1772791443201334300,1.374334228515625,-1.105483055114746,2.545523166656494,2.841994285583496
1772791443221436000,1.394435791015625,-1.6394844055175781,2.6582963466644287,2.539095878601074
1772791443241537300,1.414537353515625,-1.1846351623535156,2.9283459186553955,3.7007603645324707
1772791443261639000,1.434638916015625,-0.3296012878417969,3.275026559829712,4.123355865478516
1772791443281740300,1.454740234375,1.502756118774414,2.6139333248138428,2.548980712890625
1772791443301842000,1.474842041015625,5.220697402954102,1.7704209089279175,-0.7491896152496338
1772791443321943300,1.494943359375,7.997323989868164,1.725395917892456,0.5545518398284912
1772791443342045000,1.515044921875,7.707340240478516,2.5958592891693115,2.538687229156494
1772791443362146300,1.535146240234375,6.922872543334961,2.44856333732605,-0.10892581939697266
1772791443382248000,1.555248046875,11.559368133544922,0.25338414311408997,-0.40465664863586426
1772791443402349300,1.575349365234375,19.552799224853516,-2.924342393875122,2.0817291736602783
1772791443422451000,1.595450927734375,18.914793014526367,-2.775723457336426,1.3249921798706055
1772791443442552300,1.61555224609375,10.796615600585938,-0.08698607981204987,1.1056864261627197
1772791443462654000,1.635654052734375,3.480435371398926,0.6192411184310913,3.8560800552368164
1772791443482755300,1.65575537109375,-0.10744476318359375,0.7989903688430786,1.684328556060791
1772791443502857000,1.67585693359375,0.3648872375488281,1.3876045942306519,1.1497858762741089
1772791443522958300,1.695958251953125,-0.37565040588378906,1.2485390901565552,3.5007827281951904
1772791443543060000,1.71606005859375,-5.176170349121094,1.0231449604034424,4.276989936828613
1772791443563161300,1.736161376953125,-9.739584922790527,1.0362138748168945,2.4772000312805176
1772791443583263000,1.756262939453125,-12.010738372802734,0.20103716850280762,0.9654282331466675
1772791443603364400,1.7763642578125,-10.822399139404297,-0.5799077153205872,0.5276293754577637
1772791443623466000,1.796466064453125,-9.205243110656738,-0.779594361782074,2.94592547416687
1772791443643567400,1.8165673828125,-7.5194292068481445,-0.4537241458892822,5.190508842468262
1772791443663668000,1.83666796875,-7.388103008270264,-1.0998501777648926,4.791797637939453
1772791443683768300,1.856768310546875,-6.302967548370361,-2.049022912979126,3.0718002319335938
1772791443703868700,1.87686865234375,-5.051643371582031,-2.2644572257995605,2.1557624340057373
1772791443723969000,1.896968994140625,-6.083012580871582,-1.694050669670105,3.117587089538574
1772791443744069400,1.9170693359375,-9.018342971801758,-1.2813386917114258,4.183071136474609
1772791443764169700,1.937169677734375,-11.14924430847168,-1.6746740341186523,4.26254415512085
1772791443784270000,1.95727001953125,-9.964521408081055,-1.8746799230575562,3.0186705589294434
1772791443804370700,1.97737060546875,-8.134692192077637,-1.7074328660964966,1.8150120973587036
1772791443824471000,1.997470947265625,-7.410411834716797,-1.1456282138824463,1.9790881872177124
1772791443844571400,2.0175712890625,-7.122329235076904,-0.3073476552963257,2.265754222869873
1772791443864671700,2.037671630859375,-6.056931018829346,0.5509037971496582,1.2925504446029663
1772791443884772000,2.057772216796875,-4.61754846572876,1.1657471656799316,1.2159807682037354
1772791443904872400,2.07787255859375,1.7203588485717773,1.9820727109909058,3.0443215370178223
1772791443924972800,2.097972900390625,8.406586647033691,1.0796995162963867,2.931927442550659
1772791443945073400,2.118073486328125,9.782668113708496,0.7874394655227661,1.8808690309524536
1772791443965173800,2.138173828125,9.744424819946289,2.141221046447754,2.997391700744629
1772791443985274000,2.158274169921875,14.283073425292969,2.9339842796325684,2.5029211044311523
1772791444005374500,2.17837451171875,19.33448028564453,2.219060182571411,2.081799268722534
1772791444025474800,2.198474853515625,17.399099349975586,1.945322036743164,1.9969195127487183
1772791444045575200,2.2185751953125,15.945527076721191,1.99076247215271,4.597221374511719
1772791444065675500,2.238675537109375,21.430309295654297,0.6792207956314087,6.324543476104736
1772791444085776100,2.258776123046875,25.503700256347656,-1.4733816385269165,4.826360702514648
1772791444105876500,2.27887646484375,17.821548461914062,0.38218560814857483,3.2493743896484375
1772791444125976800,2.298976806640625,6.89748477935791,1.557879090309143,7.916050910949707
1772791444146077200,2.3190771484375,-1.6231775283813477,3.0857133865356445,9.349990844726562
1772791444166177800,2.339177734375,-6.7910380363464355,2.9506263732910156,3.465111017227173
1772791444186278700,2.359278564453125,-6.592916011810303,1.5200917720794678,-1.7206785678863525
1772791444206379300,2.379379150390625,-6.182775020599365,0.5673256516456604,-2.909397602081299
1772791444226479900,2.39947998046875,-9.359899520874023,0.2737027406692505,0.15620744228363037
1772791444246580700,2.419580810546875,-13.078866004943848,0.5914922952651978,2.7335758209228516
1772791444266681300,2.439681396484375,-14.62418270111084,0.42116379737854004,0.14047229290008545
1772791444286782000,2.459781982421875,-13.262214660644531,-0.6729118227958679,-2.0024306774139404
1772791444306882800,2.4798828125,-10.78652286529541,-1.0737136602401733,-2.837646007537842
1772791444326983400,2.4999833984375,-8.831560134887695,-1.0475711822509766,-1.0318984985351562
1772791444347084000,2.520083984375,-7.212131500244141,-1.1102731227874756,2.222327947616577
1772791444367185000,2.540184814453125,-6.82990026473999,-1.0053964853286743,2.8228683471679688
1772791444387285500,2.560285400390625,-8.288829803466797,-0.7536934018135071,1.1462364196777344
1772791444407386000,2.58038623046875,-9.247360229492188,-0.7453423142433167,0.026994645595550537
1772791444427487000,2.600487060546875,-8.852415084838867,-0.4261777400970459,0.2646526098251343
1772791444447587600,2.620587646484375,-7.970915794372559,0.18685901165008545,2.056617021560669
1772791444467688200,2.640688232421875,-8.021625518798828,0.8915584683418274,3.477283477783203
1772791444487789000,2.6607890625,-8.339288711547852,1.2546736001968384,2.3529038429260254
1772791444507889700,2.6808896484375,-7.161736488342285,1.2709498405456543,1.6878588199615479
1772791444527990300,2.700990234375,-3.256221294403076,1.4584983587265015,2.0218920707702637
1772791444548091100,2.721091064453125,-0.981867790222168,1.8124643564224243,2.976116180419922
1772791444568191700,2.741191650390625,0.5789079666137695,2.2742319107055664,3.032383918762207
1772791444588292400,2.761292236328125,6.706274032592773,3.0021252632141113,-1.671144962310791
1772791444608393000,2.78139306640625,13.998579025268555,3.2121005058288574,0.8387327194213867
1772791444628493800,2.801493896484375,21.077802658081055,3.8054423332214355,5.041672706604004
1772791444648594700,2.8215947265625,24.356586456298828,2.592029333114624,0.049280643463134766
1772791444668696000,2.841696044921875,30.02303695678711,-0.6503679156303406,-3.5461084842681885
1772791444688797400,2.86179736328125,31.660017013549805,-4.4418768882751465,0.5000362396240234
1772791444708898800,2.88189892578125,20.449665069580078,-2.727107286453247,5.587782859802246
1772791444729000200,2.902000244140625,8.265687942504883,-0.6116683483123779,5.206282615661621
1772791444749101600,2.9221015625,5.211963653564453,0.31600725650787354,1.4147090911865234
1772791444769203000,2.942202880859375,0.9906864166259766,1.275758147239685,2.9730825424194336
1772791444789304300,2.96230419921875,-8.51562213897705,2.525498867034912,5.345278739929199
1772791444809405700,2.98240576171875,-12.861014366149902,2.4357223510742188,5.866724491119385
1772791444829507000,3.002507080078125,-9.328943252563477,0.4979337453842163,4.223769187927246
1772791444849608400,3.0226083984375,-7.756948947906494,-0.249638170003891,2.3116180896759033
1772791444869709800,3.042709716796875,-10.774388313293457,-0.5115638971328735,1.993056297302246
1772791444889811200,3.062811279296875,-12.362035751342773,0.3721957206726074,1.4696053266525269
1772791444909912600,3.08291259765625,-13.21108627319336,0.10888063907623291,2.3924293518066406
1772791444930014000,3.103013916015625,-13.77830696105957,-0.6628241539001465,3.6489038467407227
1772791444950115300,3.123115234375,-11.150279998779297,-0.20222562551498413,1.8904869556427002
1772791444970216700,3.143216796875,-6.405399799346924,-0.20723643898963928,0.3358980417251587
1772791444990318000,3.163318115234375,-3.8451390266418457,0.05262079834938049,1.468980073928833
1772791445010419500,3.18341943359375,-6.079055309295654,0.3253765404224396,3.1997835636138916
1772791445030521000,3.20352099609375,-9.317237854003906,0.3262545168399811,2.146840810775757
1772791445050622200,3.223622314453125,-10.890420913696289,0.4356433153152466,0.722740650177002
1772791445070723800,3.243723876953125,-9.344316482543945,0.6865513324737549,2.44173526763916
1772791445090825000,3.263824951171875,-6.6228766441345215,1.2152458429336548,4.016071319580078
1772791445110926600,3.283926513671875,-4.432522296905518,1.439975380897522,4.4458441734313965
1772791445131028000,3.304028076171875,-3.5578746795654297,1.3242790699005127,3.6425585746765137
1772791445151129900,3.3241298828125,-3.0026750564575195,1.6698747873306274,1.0060104131698608
1772791445171232500,3.344232421875,1.2445039749145508,2.857104539871216,2.0062673091888428
1772791445191335400,3.36433544921875,6.872411727905273,3.5330426692962646,4.277092933654785
1772791445211438300,3.384438232421875,9.379002571105957,3.1580111980438232,-0.5574452877044678
1772791445231541200,3.404541259765625,12.101588249206543,3.7835891246795654,0.10077548027038574
1772791445251644200,3.42464404296875,19.43288803100586,3.7785775661468506,2.321967840194702
1772791445271747000,3.4447470703125,28.040302276611328,-0.742321789264679,0.8100497722625732
1772791445291850000,3.46485009765625,35.61286163330078,-4.672272682189941,1.5106160640716553
1772791445311953000,3.484952880859375,26.808795928955078,-5.109266757965088,5.007484436035156
1772791445332055800,3.505055908203125,10.79725170135498,-2.4828758239746094,4.301164627075195
1772791445352158700,3.52515869140625,7.589779853820801,-2.0249924659729004,2.7476842403411865
1772791445372261400,3.545261474609375,11.855411529541016,-0.878585159778595,-1.1038880348205566
1772791445392364300,3.5653642578125,7.502292633056641,2.091479778289795,-2.188331127166748
1772791445412467200,3.58546728515625,-4.693719387054443,4.766729831695557,2.624612331390381
1772791445432570000,3.605570068359375,-13.688390731811523,5.004090309143066,6.632444381713867
1772791445452673000,3.625673095703125,-10.436946868896484,2.5285351276397705,5.671162128448486
1772791445472776000,3.64577587890625,-2.983675003051758,0.5090712904930115,1.104823112487793
1772791445492878800,3.66587890625,-3.7322139739990234,0.08060270547866821,-0.12036275863647461
1772791445512981800,3.685981689453125,-10.9817476272583,-0.08378994464874268,2.2396135330200195
1772791445533084700,3.706084716796875,-16.41338539123535,0.03354752063751221,2.969155788421631
1772791445553187600,3.7261875,-16.190462112426758,-0.6285156011581421,2.6302127838134766
1772791445573290500,3.74629052734375,-11.203702926635742,-1.1586962938308716,-0.2890971899032593
1772791445593393200,3.76639306640625,-6.241905212402344,-1.726314663887024,-1.0491204261779785
1772791445613496000,3.78649609375,-5.0653557777404785,-2.005300521850586,1.834918737411499
1772791445633599000,3.806598876953125,-8.896446228027344,-1.7459077835083008,2.714686155319214
1772791445653701600,3.82670166015625,-12.58887767791748,-1.7047476768493652,0.5569895505905151
1772791445673803800,3.8468037109375,-12.954877853393555,-1.7343323230743408,-1.9563052654266357
1772791445693906000,3.866906005859375,-11.031719207763672,-1.4663509130477905,-0.19172954559326172
1772791445714008000,3.887008056640625,-9.07126522064209,-0.9931133389472961,2.920311212539673
1772791445734110500,3.9071103515625,-8.479799270629883,-0.8796185255050659,0.8075332045555115
1772791445754212600,3.927212646484375,-7.717433929443359,-1.0057154893875122,-1.2250579595565796
1772791445774314800,3.947314697265625,-4.863758087158203,-0.5872306823730469,0.7339561581611633
1772791445794417000,3.9674169921875,-2.969205379486084,1.2951946258544922,1.5669136047363281
1772791445814519000,3.98751904296875,-1.6828727722167969,3.160278797149658,0.5474598407745361
1772791445854723600,4.0277236328125,7.703908920288086,4.236161231994629,0.9528490304946899
1772791445874825700,4.04782568359375,9.408681869506836,5.315613269805908,0.9564125537872314
1772791445894928000,4.067927978515625,14.806109428405762,5.166312217712402,2.0549333095550537
1772791445935132200,4.108132080078125,35.331729888916016,-0.9419574737548828,0.6083507537841797
1772791445955234600,4.128234619140625,32.664894104003906,-2.682286024093628,-1.2308006286621094
1772791445975336700,4.148336669921875,18.541954040527344,-1.2370517253875732,0.2391221523284912
1772791445995438800,4.16843896484375,8.10623836517334,0.7635092735290527,3.6013846397399902
1772791446015541000,4.188541015625,3.626652717590332,1.1696231365203857,5.54728889465332
1772791446035643100,4.20864306640625,0.2610301971435547,1.781069278717041,1.3236714601516724
1772791446055745300,4.228745361328125,-4.083888053894043,3.1417157649993896,0.2812422513961792
1772791446075847700,4.24884765625,-6.993863582611084,3.7679283618927,7.062376499176025
1772791446095949800,4.26894970703125,-9.99612808227539,2.9155471324920654,6.754526615142822
1772791446116052000,4.289052001953125,-8.174110412597656,0.9664612412452698,1.4941394329071045
1772791446136154000,4.309154052734375,-6.21389627456665,0.030885398387908936,-0.8246892690658569
1772791446156255700,4.329255859375,-7.145620822906494,0.00774383544921875,0.7408707141876221
1772791446176356900,4.34935693359375,-10.155415534973145,-0.02106177806854248,1.8086187839508057
1772791446196458000,4.3694580078125,-11.40966796875,0.19461548328399658,0.5659953355789185
1772791446216559000,4.38955908203125,-10.064340591430664,-0.32431578636169434,-0.2642401456832886
1772791446236660200,4.40966015625,-8.440872192382812,-1.3862829208374023,0.7145133018493652
1772791446256761300,4.42976123046875,-7.2635674476623535,-1.646108865737915,3.0076446533203125
1772791446276862500,4.449862548828125,-7.489793300628662,-1.1938917636871338,4.034939289093018
1772791446296963600,4.469963623046875,-9.881857872009277,-0.9043289422988892,2.919954299926758
1772791446337165800,4.510165771484375,-11.369791030883789,-0.9908671975135803,0.08353114128112793
1772791446357266700,4.5302666015625,-9.575514793395996,-0.809955894947052,2.1484248638153076
1772791446397469000,4.570468994140625,-8.392255783081055,-0.07871389389038086,4.066089153289795
1772791446417570000,4.590570068359375,-7.026516914367676,0.22942125797271729,2.539511203765869
1772791446437671200,4.610671142578125,-3.5193610191345215,0.560809850692749,-0.05643618106842041
1772791446457772300,4.630772216796875,3.3955631256103516,1.8473527431488037,0.11302661895751953
1772791446477873400,4.650873291015625,8.19736099243164,4.585707187652588,4.160905838012695
1772791446497974500,4.670974609375,8.095953941345215,6.12654972076416,6.654809474945068
1772791446518075600,4.69107568359375,13.423601150512695,5.433353900909424,4.1112775802612305
1772791446538176800,4.7111767578125,26.533245086669922,3.6303813457489014,2.174875259399414
1772791446558278000,4.73127783203125,32.53091049194336,1.4039502143859863,4.088431358337402
1772791446578379000,4.75137890625,27.238079071044922,-0.7360857129096985,4.926673412322998
1772791446598480100,4.771480224609375,18.603782653808594,-0.39895135164260864,3.791037082672119
1772791446618581200,4.791581298828125,13.757254600524902,0.132485032081604,2.5372161865234375
1772791446638682400,4.811682373046875,11.600350379943848,-1.042098045349121,4.2329421043396
1772791446658783700,4.83178369140625,9.50912857055664,-0.9685963988304138,3.3016610145568848
1772791446678885600,4.8518857421875,4.449132919311523,1.2717028856277466,0.17146992683410645
1772791446698987300,4.8719873046875,-2.643986225128174,3.835883140563965,3.863119125366211
1772791446719089200,4.892089111328125,-11.280237197875977,3.4399099349975586,6.734462738037109
1772791446739190800,4.912190673828125,-14.015336990356445,1.151901364326477,2.9247629642486572
1772791446759292700,4.932292724609375,-11.814441680908203,0.09306275844573975,-2.9368669986724854
1772791446799496200,4.97249609375,-11.878290176391602,-0.23330914974212646,0.3892929255962372
1772791446819597800,4.992597900390625,-10.814643859863281,-0.4281630516052246,3.5451059341430664
1772791446839699700,5.01269970703125,-8.892203330993652,-1.0906907320022583,3.7179698944091797
1772791446859801300,5.03280126953125,-6.745984077453613,-1.8946971893310547,-0.46401548385620117
1772791446879903200,5.0529033203125,-5.033793926239014,-2.185105800628662,-3.5876569747924805
1772791446900004900,5.0730048828125,-4.619142532348633,-2.0551066398620605,-2.4930989742279053
1772791446920106800,5.093106689453125,-7.696288585662842,-1.9050604104995728,0.8897887468338013
1772791446940208400,5.11320849609375,-11.644186973571777,-1.7336535453796387,1.991904854774475
1772791446960310300,5.133310302734375,-12.194856643676758,-1.5159320831298828,0.559597373008728
1772791446980412000,5.153411865234375,-9.60741138458252,-1.6647242307662964,0.1045079231262207
1772791447020615400,5.193615478515625,-6.781578540802002,-1.5363272428512573,1.1479885578155518
1772791447040717300,5.21371728515625,-7.509087562561035,-1.0362776517868042,0.7678055167198181
1772791447060819000,5.23381884765625,-7.819879055023193,-0.23849272727966309,0.16164302825927734
1772791447080920800,5.2539208984375,-5.463057518005371,1.51710844039917,0.21511363983154297
1772791447121124400,5.294124267578125,1.9030323028564453,7.009159088134766,0.5927498936653137
1772791447141226000,5.31422607421875,2.3419532775878906,9.991146087646484,4.9336981773376465
1772791447161326800,5.334326904296875,19.806442260742188,9.522089004516602,5.165301322937012
1772791447181427700,5.354427734375,41.18434143066406,1.3602734804153442,0.4961066246032715
1772791447201528300,5.3745283203125,39.465538024902344,0.7063703536987305,0.31176555156707764
1772791447221629000,5.39462890625,22.781665802001953,3.07786226272583,5.932359218597412
1772791447241729800,5.414729736328125,14.819021224975586,1.9870877265930176,11.523942947387695
1772791447261830400,5.434830322265625,16.684823989868164,-2.6147260665893555,12.318822860717773
1772791447281931000,5.454930908203125,13.935382843017578,-2.787324905395508,4.943727016448975
1772791447302031600,5.475031494140625,6.133689880371094,-0.32445311546325684,-0.547421932220459
1772791447322132500,5.495132568359375,-7.079644680023193,1.7904059886932373,-0.294048011302948
1772791447342233000,5.515233154296875,-17.82091522216797,1.6598474979400635,0.8898063898086548
1772791447362333700,5.535333740234375,-17.13771629333496,-0.1746387481689453,0.5949450731277466
1772791447382434300,5.555434326171875,-11.332599639892578,-1.4419955015182495,1.6472573280334473
1772791447402535000,5.575534912109375,-10.054430961608887,-1.8626234531402588,3.1931381225585938
1772791447422635800,5.5956357421875,-12.375307083129883,-1.8171037435531616,2.0730111598968506
1772791447442736400,5.615736328125,-12.428056716918945,-1.6555352210998535,0.9513242244720459
1772791447462837000,5.6358369140625,-10.366426467895508,-1.8021796941757202,-0.63777095079422
1772791447482937900,5.655937744140625,-6.532585620880127,-2.3016726970672607,-1.3699061870574951
1772791447503038500,5.67603857421875,-3.39509916305542,-3.0614869594573975,-0.03846865892410278
1772791447523139000,5.69613916015625,-3.6857757568359375,-3.616556406021118,1.5458035469055176
1772791447543239700,5.71623974609375,-6.158315658569336,-3.70621657371521,1.8623466491699219
1772791447563340500,5.736340576171875,-8.93298053741455,-3.5614631175994873,1.194537878036499
1772791447603541800,5.776541748046875,-11.887641906738281,-2.8820104598999023,0.36918509006500244
1772791447623642400,5.796642333984375,-11.402996063232422,-2.5431811809539795,0.8225499391555786
1772791447643743200,5.8167431640625,-10.236360549926758,-2.1815996170043945,0.7680070400238037
1772791447663844900,5.836844970703125,-8.396025657653809,-1.9770241975784302,0.6512444615364075
1772791447704048000,5.877048095703125,-6.453370094299316,-1.0683643817901611,1.499383568763733
1772791447724150000,5.89714990234375,-4.794827938079834,0.6975774765014648,1.4925620555877686
1772791447744251600,5.917251708984375,-0.39533042907714844,3.104006767272949,2.025448799133301
1772791447764353300,5.937353271484375,6.344707489013672,5.388298988342285,3.2643136978149414
1772791447804556800,5.977556884765625,21.477365493774414,9.584027290344238,2.3326072692871094
1772791447824658700,5.99765869140625,34.28376770019531,7.713703155517578,-2.981086254119873
1772791447844760300,6.01776025390625,38.178321838378906,6.043417930603027,-0.9768482446670532
1772791447864862000,6.037862060546875,31.086563110351562,2.1265132427215576,4.5069684982299805
1772791447884963800,6.0579638671875,20.87127685546875,0.5010409355163574,4.9427971839904785
1772791447905065500,6.0780654296875,13.914576530456543,0.31502461433410645,5.157729148864746
1772791447925167000,6.0981669921875,9.003732681274414,-1.1538500785827637,3.6359996795654297
1772791447945269000,6.11826904296875,1.7941312789916992,-2.2197461128234863,2.4961514472961426
1772791447985472300,6.15847216796875,-11.560121536254883,-1.6192153692245483,3.435866117477417
1772791448005574100,6.17857421875,-11.676385879516602,-1.9009252786636353,0.7008721828460693
1772791448025675800,6.19867578125,-9.505693435668945,-2.4022433757781982,-1.7593154907226562
1772791448045777700,6.218777587890625,-7.8959197998046875,-2.8022749423980713,-0.5447520613670349
1772791448065879300,6.23887939453125,-9.512910842895508,-2.8241214752197266,2.988417148590088
1772791448085981000,6.25898095703125,-12.33881950378418,-2.337076187133789,4.105097770690918
1772791448106082800,6.279082763671875,-12.563735961914062,-2.150485038757324,1.926342248916626
1772791448126184400,6.299184326171875,-8.80733871459961,-2.6308083534240723,-0.2274855077266693
1772791448146286000,6.3192861328125,-4.644594669342041,-3.491621732711792,0.14823660254478455
1772791448166388200,6.33938818359375,-4.040329933166504,-3.530428409576416,2.701946258544922
1772791448186490000,6.359489990234375,-6.787207126617432,-2.9489920139312744,3.622305393218994
1772791448206592000,6.379592041015625,-10.356136322021484,-2.4854793548583984,2.438746929168701
1772791448226694100,6.399694091796875,-11.928167343139648,-2.287548780441284,-0.004088059067726135
1772791448246796000,6.419796142578125,-11.070450782775879,-2.575045585632324,-1.4758217334747314
1772791448266898000,6.43989794921875,-7.940032005310059,-2.7971267700195312,-1.0387548208236694
1772791448287000000,6.46,-6.500219345092773,-2.8219962120056152,0.2901138365268707
1772791448307102000,6.48010205078125,-7.67820930480957,-2.5860674381256104,1.442185401916504
1772791448327203800,6.500203857421875,-8.691400527954102,-2.1730246543884277,0.9511414170265198
1772791448347306000,6.520305908203125,-7.942630767822266,-1.506486415863037,1.2888951301574707
1772791448367407900,6.540407958984375,-4.52594518661499,-0.3451063632965088,1.528475284576416
1772791448387509800,6.560509765625,0.8355846405029297,1.3313665390014648,2.596021890640259
1772791448407612000,6.58061181640625,4.013866424560547,3.587597370147705,3.580842971801758
1772791448427713800,6.6007138671875,6.352893829345703,4.819883346557617,2.3777151107788086
1772791448447815700,6.620815673828125,18.99069595336914,4.149170875549316,0.7646481990814209
1772791448467917600,6.64091748046875,30.61665153503418,1.1950016021728516,0.01891779899597168
1772791448488019700,6.661019775390625,28.293928146362305,1.1780004501342773,0.18180561065673828
1772791448508121600,6.68112158203125,20.168155670166016,2.982464075088501,1.385504961013794
1772791448528223700,6.7012236328125,16.88401985168457,2.2717859745025635,3.5370054244995117
1772791448548325600,6.72132568359375,18.315881729125977,-0.9437425136566162,3.544919490814209
1772791448568427500,6.741427490234375,18.745817184448242,-2.7649683952331543,1.9807837009429932
1772791448588529400,6.761529296875,12.842830657958984,-1.8598618507385254,2.0780115127563477
1772791448608631600,6.781631591796875,2.4002466201782227,0.2493128776550293,4.762701034545898
1772791448628733400,6.8017333984375,-8.093062400817871,1.8314361572265625,5.012643814086914
1772791448648835000,6.8218349609375,-11.862136840820312,1.6661804914474487,1.103395700454712
1772791448668936000,6.84193603515625,-8.92452621459961,0.8966525793075562,-1.677453637123108
1772791448689036500,6.86203662109375,-6.1352033615112305,0.23348820209503174,-0.6153551340103149
1772791448709137200,6.88213720703125,-7.329066276550293,0.21546196937561035,2.4329543113708496
1772791448729237800,6.90223779296875,-11.640860557556152,-0.08550453186035156,4.577849388122559
1772791448749338400,6.92233837890625,-13.4935302734375,-0.25354695320129395,2.4275622367858887
1772791448769439000,6.94243896484375,-11.221061706542969,-0.91298508644104,-1.0078414678573608
1772791448789539600,6.96253955078125,-5.835705757141113,-1.7546687126159668,-4.199256420135498
1772791448809640400,6.982640380859375,-4.308276176452637,-2.6200625896453857,-1.2851684093475342
1772791448829741000,7.002740966796875,-7.315923690795898,-2.034332036972046,3.479863166809082
1772791448849841700,7.022841552734375,-10.330469131469727,-1.1233470439910889,3.374070644378662
1772791448869942300,7.0429423828125,-11.4993896484375,-1.4019248485565186,1.4388909339904785
1772791448890043000,7.06304296875,-9.381401062011719,-1.9583662748336792,0.8560807108879089
1772791448910143500,7.0831435546875,-7.277814865112305,-2.4434850215911865,1.80003023147583
1772791448930244000,7.103244140625,-6.665004253387451,-2.4288272857666016,3.8814520835876465
1772791448950344700,7.1233447265625,-7.689006805419922,-1.9997204542160034,2.7984514236450195
1772791448970445600,7.143445556640625,-7.970276355743408,-1.6595443487167358,0.6392880082130432
1772791448990546200,7.163546142578125,-5.316717147827148,-1.2245457172393799,2.732081413269043
1772791449010646800,7.183646728515625,-2.599428653717041,0.5172181129455566,5.2181572914123535
1772791449030747400,7.203747314453125,0.03603649139404297,3.907094717025757,5.327548503875732
1772791449050848000,7.223847900390625,2.333836555480957,4.088024139404297,5.394745826721191
1772791449070948600,7.243948486328125,6.086356163024902,5.2525153160095215,2.92269229888916
1772791449091049200,7.26404931640625,19.001922607421875,4.434530258178711,0.33148491382598877
1772791449111150000,7.284150146484375,30.734909057617188,2.2605371475219727,0.6138150691986084
1772791449131250700,7.304250732421875,30.065895080566406,1.449622631072998,2.9131178855895996
1772791449151351300,7.324351318359375,24.050630569458008,0.4485971927642822,5.89832878112793
1772791449171452200,7.3444521484375,19.362102508544922,-0.327437162399292,3.0464015007019043
1772791449191553000,7.364552978515625,16.014034271240234,-1.4479743242263794,0.5066210031509399
1772791449211654000,7.38465380859375,10.56084156036377,-1.5501470565795898,0.3707848787307739
1772791449231754800,7.404754638671875,5.392626762390137,-1.5501042604446411,1.1359916925430298
1772791449251855600,7.424855712890625,-1.7920427322387695,-1.3032827377319336,3.4467153549194336
1772791449271956500,7.44495654296875,-10.63844108581543,-0.7131576538085938,2.799492120742798
1772791449292057300,7.465057373046875,-12.255655288696289,-0.6550977230072021,-0.09669041633605957
1772791449312158200,7.485158203125,-7.005512237548828,-1.08416748046875,0.17167556285858154
1772791449332259000,7.505259033203125,-3.254700183868408,-1.7814629077911377,2.5804238319396973
1772791449352360000,7.52535986328125,-4.452425956726074,-1.6688728332519531,3.3687188625335693
1772791449372460800,7.545460693359375,-9.02946662902832,-1.1091777086257935,1.8109302520751953
1772791449392561700,7.565561767578125,-11.689159393310547,-0.9300239086151123,0.6483225226402283
1772791449412662500,7.58566259765625,-10.860581398010254,-1.2442337274551392,0.24813663959503174
1772791449432763400,7.605763427734375,-7.784458160400391,-1.9334229230880737,0.35033702850341797
1772791449452864300,7.6258642578125,-4.756447792053223,-2.4350991249084473,1.5338239669799805
1772791449472965000,7.645965087890625,-4.821527004241943,-2.658115863800049,1.716113567352295
1772791449493066000,7.66606591796875,-7.968940734863281,-2.75077486038208,0.6507716774940491
1772791449513166800,7.686166748046875,-10.72353744506836,-2.845104217529297,0.2547796964645386
1772791449533267700,7.706267822265625,-10.877978324890137,-3.0799152851104736,0.7202968001365662
1772791449553368600,7.72636865234375,-9.414970397949219,-3.035721778869629,1.3675220012664795
1772791449593570300,7.7665703125,-8.124738693237305,-2.375365734100342,1.5882892608642578
1772791449613671200,7.786671142578125,-7.987014293670654,-1.7892930507659912,2.2183802127838135
1772791449633772000,7.80677197265625,-6.949342250823975,-0.650275468826294,2.523268222808838
1772791449653873200,7.826873046875,-2.9630961418151855,1.1521997451782227,1.415469765663147
1772791449673974800,7.846974853515625,3.505364418029785,3.1949477195739746,1.371509075164795
1772791449694076200,7.867076171875,4.567548751831055,4.129144668579102,4.337066173553467
1772791449714177800,7.887177734375,7.11195182800293,5.7809906005859375,3.672092914581299
1772791449734279400,7.907279541015625,17.471630096435547,5.171072006225586,0.9758883714675903
1772791449754381000,7.927381103515625,25.471187591552734,3.4440882205963135,1.2653486728668213
1772791449794584000,7.967583984375,18.726499557495117,3.9124538898468018,2.766479730606079
1772791449814685700,7.987685791015625,13.830021858215332,2.9978601932525635,2.8932557106018066
1772791449834787300,8.007787353515624,13.21461296081543,0.582190990447998,1.5929431915283203
1772791449854888700,8.027888671875,13.44375991821289,-1.684470534324646,1.1444170475006104
1772791449874990300,8.047990234375,9.94540023803711,-2.384035587310791,-0.055558204650878906
1772791449895092000,8.068092041015625,4.93205451965332,-1.5568428039550781,0.7632991075515747
1772791449915193300,8.088193359375,-2.0534448623657227,-0.4948296546936035,2.672299861907959
1772791449935295000,8.108294921875,-8.294882774353027,0.06853437423706055,0.7626264095306396
1772791449955396600,8.128396728515625,-10.243446350097656,0.215071439743042,-0.6124870777130127
1772791449975498200,8.148498291015626,-8.682408332824707,-0.30287718772888184,3.367032051086426
1772791449995600000,8.168599853515625,-6.472261905670166,-0.6747262477874756,4.987494468688965
1772791450015701200,8.188701171875,-6.5909810066223145,-0.9347479343414307,3.6454451084136963
1772791450035803000,8.208802978515624,-7.712221145629883,-0.9754712581634521,1.054837942123413
1772791450055904500,8.228904541015625,-8.212112426757812,-1.307220220565796,-0.00007462501525878906
1772791450076006100,8.249006103515624,-8.356829643249512,-1.967950701713562,0.9137558341026306
1772791450096107500,8.269107421875,-7.953983783721924,-2.4968860149383545,1.8170639276504517
1772791450116209200,8.289209228515626,-7.349362373352051,-3.1386330127716064,2.5813794136047363
1772791450136310800,8.309310791015625,-7.601850509643555,-3.254328966140747,1.99052095413208
1772791450156412400,8.329412353515625,-8.599105834960938,-3.0097227096557617,0.9367240071296692
1772791450176514000,8.34951416015625,-10.063925743103027,-2.8850274085998535,0.8555884957313538
1772791450196615700,8.36961572265625,-10.280206680297852,-2.8052892684936523,1.132807731628418
1772791450216717300,8.38971728515625,-8.016324996948242,-2.1097352504730225,1.4732015132904053
1772791450236819000,8.40981884765625,-5.881688594818115,-0.7051141262054443,3.7777833938598633
1772791450256920800,8.4299208984375,-5.962188720703125,0.4344806671142578,6.0039191246032715
1772791450277022500,8.4500224609375,-4.6826043128967285,0.503446102142334,4.667109489440918
1772791450297124000,8.4701240234375,0.23140239715576172,0.6882052421569824,1.684495210647583
1772791450317225700,8.490225830078124,3.6648683547973633,1.4821219444274902,1.5457892417907715
1772791450337327400,8.510327392578125,4.162116050720215,2.482354164123535,2.932494640350342
1772791450357429000,8.530428955078126,6.119678497314453,2.87259578704834,1.6740999221801758
1772791450377530600,8.550530517578125,12.583635330200195,2.289677143096924,2.1425700187683105
1772791450397632300,8.57063232421875,18.07777976989746,0.5355634689331055,3.678828239440918
1772791450417734100,8.590734130859374,17.710708618164062,0.6297614574432373,2.9934263229370117
1772791450437835800,8.610835693359375,15.710962295532227,2.464071750640869,0.21841919422149658
1772791450457937400,8.6309375,18.408222198486328,2.3719186782836914,-1.2305011749267578
1772791450478039000,8.6510390625,17.751911163330078,0.3993968963623047,0.3078874349594116
1772791450498140700,8.671140625,13.535326957702637,-0.29992151260375977,1.679618000984192
1772791450518242300,8.6912421875,9.489270210266113,-0.5414297580718994,2.3636064529418945
1772791450538344200,8.71134423828125,5.593189239501953,-0.9278140068054199,-0.5086654424667358
1772791450558445800,8.73144580078125,0.099334716796875,-0.3752555847167969,-0.940866231918335
1772791450578547500,8.75154736328125,-3.2898316383361816,0.41612958908081055,1.4213049411773682
1772791450598649000,8.771649169921876,-5.488472938537598,-0.3775627613067627,6.069299697875977
1772791450618750700,8.791750732421875,-9.234701156616211,-1.0420682430267334,7.233654499053955
1772791450638852400,8.811852294921875,-12.68292236328125,-1.7684049606323242,2.4110589027404785
1772791450658954000,8.8319541015625,-13.05384635925293,-2.643097162246704,-1.326486349105835
1772791450679056000,8.852055908203125,-10.980748176574707,-3.188232183456421,-0.6472965478897095
1772791450699157500,8.872157470703126,-8.657550811767578,-3.0916929244995117,0.41972124576568604
1772791450719259100,8.892259033203125,-7.552303314208984,-2.7929413318634033,1.2579326629638672
1772791450759462700,8.932462646484375,-6.662216663360596,-2.785547971725464,0.7971457839012146
1772791450779564300,8.952564208984375,-6.392186164855957,-3.0516510009765625,1.2570346593856812
1772791450799666000,8.972666015625,-7.299284934997559,-3.1776833534240723,1.8725121021270752
1772791450819767800,8.992767822265625,-8.750102043151855,-3.0508875846862793,2.694175958633423
1772791450839869400,9.012869384765626,-9.29321575164795,-3.125575065612793,1.8855679035186768
1772791450859971000,9.03297119140625,-7.321174621582031,-3.331037998199463,0.71378493309021
1772791450880073000,9.053072998046876,-4.042697429656982,-3.656200885772705,1.240792989730835
1772791450900174600,9.073174560546875,-2.3249359130859375,-2.691612720489502,1.881662368774414
1772791450920276200,9.093276123046875,-0.31104564666748047,0.0766453742980957,2.152592182159424
1772791450940377900,9.1133779296875,4.2010297775268555,1.394850254058838,2.669909954071045
1772791450960479700,9.133479736328125,8.920088768005371,1.9179582595825195,4.055080890655518
1772791450980581400,9.153581298828126,11.720026016235352,5.535284519195557,5.426191329956055
1772791451000683000,9.17368310546875,12.765342712402344,7.148993968963623,0.7215441465377808
1772791451020785000,9.193784912109376,16.845691680908203,6.250563144683838,-2.012268543243408
1772791451060988200,9.23398828125,25.32109832763672,0.7972159385681152,1.57072114944458
1772791451081089800,9.25408984375,15.796867370605469,0.15505361557006836,5.13568115234375
1772791451101191700,9.274191650390625,6.979386329650879,-0.9570386409759521,8.58857536315918
1772791451121293300,9.294293212890626,6.767821311950684,-3.2244019508361816,3.515744209289551
1772791451141395000,9.31439501953125,7.9253034591674805,-4.136913299560547,-3.421729326248169
1772791451161495600,9.33449560546875,2.859163284301758,-2.3363418579101562,-3.8226430416107178
1772791451181596000,9.354595947265626,-5.752559661865234,-1.0261168479919434,1.3164724111557007
1772791451201696500,9.374696533203124,-14.356884002685547,-1.3762798309326172,4.877528667449951
1772791451221796900,9.394796875,-18.009288787841797,-2.199627161026001,2.2955310344696045
1772791451241897200,9.414897216796875,-13.12867546081543,-2.801459550857544,-1.3166749477386475
1772791451261997600,9.43499755859375,-7.1514387130737305,-2.9058895111083984,-1.6494745016098022
1772791451282098200,9.45509814453125,-6.32721471786499,-2.889338493347168,-0.37950024008750916
1772791451302198500,9.475198486328125,-7.4965901374816895,-2.8268990516662598,0.6472967267036438
1772791451322299000,9.495298828125,-7.740809440612793,-2.7300267219543457,0.8467584848403931
1772791451342399200,9.515399169921874,-7.699265480041504,-2.777231454849243,0.18130268156528473
1772791451362499600,9.53549951171875,-7.362735271453857,-2.887408494949341,-0.6930421590805054
1772791451382600200,9.55560009765625,-7.665225028991699,-3.088344097137451,-0.37193819880485535
1772791451402700500,9.575700439453126,-7.8999505043029785,-3.2407774925231934,0.21590980887413025
1772791451422801000,9.59580078125,-8.132833480834961,-3.1948211193084717,0.24757277965545654
1772791451442901200,9.6159013671875,-8.786164283752441,-3.14213228225708,0.3472842276096344
1772791451463001600,9.636001708984375,-9.166707992553711,-2.823490619659424,0.42124655842781067
1772791451483102200,9.656102294921874,-7.358079433441162,-1.968705415725708,0.6326271295547485
1772791451503202600,9.67620263671875,-3.257378578186035,-0.40941762924194336,0.8845117688179016
1772791451543403300,9.7164033203125,0.6022129058837891,2.070216655731201,2.3189101219177246
1772791451563503600,9.736503662109374,4.19873046875,4.982908248901367,3.0098462104797363
1772791451583604200,9.756604248046875,17.114181518554688,4.669226169586182,4.0990471839904785
1772791451603704600,9.77670458984375,29.874235153198242,0.9973921775817871,1.8420406579971313
1772791451623805000,9.796804931640626,32.03137969970703,0.8543765544891357,0.3598940968513489
1772791451643905300,9.8169052734375,25.98815155029297,0.9048738479614258,4.792198181152344
1772791451664007000,9.8370068359375,18.331254959106445,0.021465063095092773,7.042859077453613
1772791451684108800,9.85710888671875,14.917061805725098,-1.9652142524719238,3.9335808753967285
1772791451724312000,9.89731201171875,5.055659294128418,-2.212191343307495,-0.1959751844406128
1772791451744414000,9.9174140625,-1.9352636337280273,-1.096440315246582,1.7764503955841064
1772791451764515600,9.937515625,-9.293145179748535,-0.1031954288482666,3.5785350799560547
1772791451784617200,9.9576171875,-13.004128456115723,-0.018878459930419922,1.2881286144256592
1772791451804719000,9.977718994140625,-9.497269630432129,-0.13782334327697754,-2.4261250495910645
1772791451824820700,9.99782080078125,-4.126376628875732,-0.599144697189331,-1.6312658786773682
1772791451844922600,10.017922607421875,-3.2447714805603027,-0.8024536371231079,2.2197861671447754
1772791451865024300,10.038024169921876,-7.586145877838135,-0.661128044128418,3.6641440391540527
1772791451885126000,10.0581259765625,-11.294573783874512,-0.9680337905883789,2.14357852935791
1772791451925329400,10.098329345703124,-7.861368179321289,-1.7286386489868164,-0.4069872498512268
1772791451945431000,10.11843115234375,-6.824337482452393,-2.0460479259490967,0.5356164574623108
1772791451965533000,10.138532958984374,-7.311107635498047,-2.207270860671997,1.5722556114196777
1772791451985634600,10.158634521484375,-8.2435941696167,-2.329465866088867,1.347251534461975
1772791452005736400,10.178736328125,-8.639214515686035,-2.2712643146514893,0.8230831623077393
1772791452045939700,10.218939697265625,-8.639969825744629,-2.330507278442383,0.7046757340431213
1772791452066041600,10.23904150390625,-8.099958419799805,-2.172792911529541,1.0655461549758911
1772791452086143200,10.259143310546875,-6.958841800689697,-1.622999668121338,0.9484702348709106
1772791452106244900,10.279244873046874,-3.4489846229553223,-0.3867785930633545,1.3851873874664307
1772791452126346800,10.2993466796875,0.2117023468017578,0.4092540740966797,3.1423943042755127
1772791452146448400,10.319448486328126,2.260984420776367,1.2812066078186035,3.797400951385498
1772791452166550000,10.339550048828125,3.9017457962036133,2.2826099395751953,5.492650985717773
1772791452186651600,10.359651611328125,11.83551025390625,3.6708950996398926,7.013474941253662
1772791452206753300,10.379753173828124,20.098228454589844,1.5808475017547607,3.844125509262085
1772791452226855000,10.39985498046875,23.49884033203125,0.45627641677856445,1.5788242816925049
1772791452246956500,10.41995654296875,23.508277893066406,1.089179515838623,1.2309317588806152
1772791452267058200,10.44005810546875,19.724609375,0.8042504787445068,1.1252329349517822
1772791452287159800,10.460159912109376,13.369037628173828,-0.8909194469451904,2.1209335327148438
1772791452307261400,10.480261474609375,10.152682304382324,-2.2318291664123535,2.4733023643493652
1772791452327363000,10.500363037109375,9.308938026428223,-2.8707191944122314,-0.009203463792800903
1772791452347464700,10.520464599609374,6.235831260681152,-2.709913730621338,-1.387988805770874
1772791452367566300,10.54056640625,-0.08282184600830078,-2.4966750144958496,1.5083869695663452
1772791452387668200,10.560668212890626,-7.109945297241211,-1.9748101234436035,3.138260841369629
1772791452407769600,10.58076953125,-10.65078353881836,-1.8170690536499023,0.7267219424247742
1772791452427871500,10.60087158203125,-10.141027450561523,-1.7563656568527222,-1.82320237159729
1772791452447973000,10.62097314453125,-7.450414657592773,-1.3731091022491455,-1.7729066610336304
1772791452468074800,10.64107470703125,-5.526632785797119,-0.6790947914123535,0.3949238955974579
1772791452488176400,10.66117626953125,-6.468334197998047,-0.36278462409973145,2.2471776008605957
1772791452508278000,10.681278076171875,-8.58017349243164,-0.4641890525817871,2.8145577907562256
1772791452528379600,10.701379638671876,-9.52090835571289,-0.6600029468536377,1.6408050060272217
1772791452548481300,10.721481201171875,-8.829330444335938,-0.8938326835632324,0.21881112456321716
1772791452568583000,10.7415830078125,-7.898385524749756,-1.1077208518981934,-0.1741241216659546
1772791452588684500,10.7616845703125,-7.605714797973633,-1.3684279918670654,0.2516954243183136
1772791452608786200,10.7817861328125,-7.357287883758545,-1.592801570892334,0.9105896949768066
1772791452628887800,10.8018876953125,-7.496203899383545,-2.016387462615967,1.0145494937896729
1772791452648989200,10.8219892578125,-7.379022121429443,-2.5222811698913574,0.8515187501907349
1772791452669089800,10.84208984375,-6.37591552734375,-2.9257822036743164,0.6573281288146973
1772791452689190400,10.8621904296875,-5.125716209411621,-3.041283369064331,1.0738677978515625
1772791452709291300,10.882291259765625,-4.677309036254883,-2.8845486640930176,1.8111861944198608
1772791452729391900,10.902391845703125,-4.530482769012451,-2.213022232055664,1.7861906290054321
1772791452749492500,10.922492431640626,-4.206716537475586,-0.8084790706634521,0.2915176749229431
1772791452789693700,10.962693603515625,1.8426742553710938,1.3183274269104004,7.508742809295654
1772791452829895000,11.00289501953125,29.230419158935547,-4.1082916259765625,-1.8212604522705078
1772791452849995800,11.022995849609375,27.84511947631836,-2.1074929237365723,-1.4336793422698975
1772791452870096400,11.043096435546875,19.505035400390625,0.28383922576904297,1.715632438659668
1772791452890197000,11.063197021484376,15.086623191833496,-0.09391021728515625,3.933749198913574
1772791452910297600,11.083297607421875,15.26297664642334,-2.6814675331115723,5.6000213623046875
1772791452930398200,11.103398193359375,14.62890911102295,-3.32546329498291,1.933065414428711
1772791452950498800,11.123498779296876,12.489763259887695,-2.556734323501587,-0.26633143424987793
1772791452970599400,11.143599365234374,8.353099822998047,-1.942535161972046,1.0432140827178955
1772791452990700000,11.163699951171875,0.7161951065063477,-0.8088266849517822,2.064610004425049
1772791453010801000,11.18380078125,-4.839484691619873,0.8836936950683594,2.319167137145996
1772791453030901500,11.203901611328124,-4.913208961486816,1.876603126525879,1.8455390930175781
1772791453051002000,11.224002197265625,-4.397666931152344,1.5039854049682617,2.3108792304992676
1772791453071102700,11.244102783203125,-6.531984806060791,0.6461005210876465,2.356712579727173
1772791453091203300,11.264203369140626,-8.872862815856934,-0.24543046951293945,0.8459953665733337
1772791453131404500,11.304404541015625,-10.614276885986328,-2.2661075592041016,-0.006893143057823181
1772791453151505700,11.324505615234376,-9.84109878540039,-2.7644057273864746,-0.4201275706291199
1772791453171607000,11.34460693359375,-9.075257301330566,-3.3028736114501953,-0.2697175443172455
1772791453191708400,11.36470849609375,-8.454085350036621,-3.8074240684509277,-0.37731632590293884
1772791453211809800,11.384809814453124,-8.109821319580078,-4.298073768615723,0.03389505669474602
1772791453231911200,11.4049111328125,-7.743353366851807,-4.659991264343262,0.8725262880325317
1772791453252012500,11.425012451171876,-7.629749298095703,-4.799254894256592,1.0744688510894775
1772791453272114000,11.445114013671875,-8.166227340698242,-4.826262950897217,0.614208459854126
1772791453292215600,11.465215576171875,-8.221044540405273,-4.701542377471924,0.08942320942878723
1772791453312317000,11.48531689453125,-7.161485195159912,-4.436695098876953,0.3153090476989746
1772791453332418300,11.505418212890625,-5.648451805114746,-3.6121037006378174,0.08368515968322754
1772791453352519700,11.525519775390626,-4.0037055015563965,-2.5289902687072754,0.343103289604187
1772791453372621000,11.54562109375,-1.643968105316162,-1.4319682121276855,0.8459838032722473
1772791453392722400,11.565722412109375,-1.8904361724853516,-0.7368965148925781,1.5104730129241943
1772791453412824000,11.585823974609376,1.3641748428344727,1.4390859603881836,6.626455307006836
1772791453432925400,11.605925537109375,13.258296012878418,1.9684019088745117,7.829365253448486
1772791453453026800,11.62602685546875,23.60087776184082,0.011200428009033203,3.6812522411346436
1772791453473128200,11.646128173828124,26.563175201416016,2.041700839996338,0.7594292759895325
1772791453493229600,11.6662294921875,24.923282623291016,3.7793965339660645,1.0356013774871826
1772791453513331000,11.6863310546875,21.939483642578125,1.2963743209838867,4.6237921714782715
1772791453533432300,11.706432373046875,14.385152816772461,-1.717651128768921,7.445768356323242
1772791453553534000,11.726533935546875,7.591804504394531,-2.278390407562256,4.187556266784668
1772791453573635300,11.74663525390625,5.999931335449219,-2.536210775375366,0.50815749168396
1772791453593736700,11.76673681640625,3.763702392578125,-1.9583066701889038,1.0796329975128174
1772791453613838000,11.786838134765626,0.02213001251220703,-0.871401309967041,1.7256395816802979
1772791453633939500,11.806939453125,-3.2072196006774902,-1.3452110290527344,1.4270110130310059
1772791453654040300,11.827040283203125,-5.299279689788818,-1.800498604774475,0.3694138526916504
1772791453674140400,11.847140380859376,-7.349367618560791,-1.6595406532287598,-0.970595121383667
1772791453714340900,11.8873408203125,-11.83538818359375,-2.0144503116607666,0.6596561074256897
1772791453734441000,11.90744091796875,-12.695287704467773,-2.0916926860809326,1.3930118083953857
1772791453754541000,11.927541015625,-11.35151481628418,-3.1267151832580566,2.7291457653045654
1772791453774641400,11.947641357421874,-8.810530662536621,-4.03607177734375,2.69415545463562
1772791453794741500,11.967741455078125,-6.314487457275391,-3.979379892349243,-0.7821940183639526
1772791453834942000,12.00794189453125,-8.096518516540527,-4.326898574829102,-0.8205678462982178
1772791453855042000,12.0280419921875,-9.543830871582031,-4.200557231903076,-0.17141860723495483
1772791453875142100,12.04814208984375,-10.354338645935059,-4.312569618225098,-0.41626834869384766
1772791453895242500,12.068242431640625,-9.579632759094238,-4.280503273010254,-1.0279366970062256
1772791453915342600,12.088342529296876,-7.650614261627197,-4.055070400238037,-1.2356829643249512
1772791453935442700,12.108442626953124,-6.109249114990234,-3.395416259765625,0.5194437503814697
1772791453955542800,12.128542724609375,-5.98823881149292,-1.5580155849456787,2.0816657543182373
1772791453995743200,12.1687431640625,-3.9492721557617188,3.108957290649414,-1.6944937705993652
1772791454015843300,12.18884326171875,-0.6298260688781738,3.5136075019836426,1.5309213399887085
1772791454035943400,12.208943359375,4.821971893310547,4.204882621765137,6.845100402832031
1772791454056043800,12.229043701171875,11.434585571289062,2.64652681350708,5.6767377853393555
1772791454076143900,12.249143798828126,18.14385986328125,-0.964165449142456,3.3284730911254883
1772791454096244000,12.269243896484374,20.325786590576172,0.10135555267333984,1.294128656387329
1772791454116344300,12.28934423828125,15.630960464477539,1.6980302333831787,1.9932126998901367
1772791454136444400,12.3094443359375,9.336695671081543,1.9988791942596436,2.760331869125366
1772791454156545300,12.329545166015626,9.307658195495605,1.1971442699432373,2.9728710651397705
1772791454176647000,12.34964697265625,13.15787124633789,-0.5543937683105469,1.2513761520385742
1772791454196748300,12.369748291015625,11.945383071899414,-1.0826635360717773,0.69106125831604
1772791454216850000,12.389849853515624,6.733896255493164,-0.8246638774871826,3.436133861541748
1772791454236951300,12.409951416015625,4.02586555480957,-0.13739585876464844,3.616044759750366
1772791454257053000,12.430052978515626,1.7447471618652344,0.13794374465942383,2.4826204776763916
1772791454297256000,12.470255859375,-1.9874005317687988,-1.6384344100952148,3.598991870880127
1772791454317357300,12.490357421875,2.564847946166992,-2.6306817531585693,2.068699359893799
1772791454337459000,12.510458984375,4.034317970275879,-2.5770621299743652,2.540475368499756
1772791454357560600,12.530560546875,0.057099342346191406,-2.120042562484741,3.4337949752807617
1772791454377662000,12.550661865234375,-3.53646183013916,-2.005208730697632,0.4422423839569092
1772791454397763600,12.570763671875,-2.4741220474243164,-2.8089630603790283,-0.5151998400688171
1772791454417865000,12.590864990234374,0.6127710342407227,-3.495244026184082,0.49254509806632996
1772791454437966600,12.610966552734375,-0.28963756561279297,-3.3853299617767334,1.6354780197143555
1772791454458068000,12.63106787109375,-3.000314235687256,-3.120978832244873,1.9448992013931274
1772791454478169600,12.651169677734375,-3.5232553482055664,-3.18810772895813,1.1781543493270874
1772791454498271000,12.67127099609375,-3.1876440048217773,-3.3314943313598633,1.3025275468826294
1772791454518372600,12.69137255859375,-2.3336877822875977,-3.0097391605377197,1.3702278137207031
1772791454538474000,12.711473876953125,-1.324735164642334,-2.851613759994507,1.4971805810928345
1772791454558575600,12.73157568359375,-1.3235645294189453,-2.839513063430786,1.851794719696045
1772791454578677000,12.751677001953125,-0.5825061798095703,-2.4752185344696045,1.6751551628112793
1772791454598778600,12.771778564453125,0.4118366241455078,-1.9862134456634521,0.982496976852417
1772791454618880300,12.79188037109375,0.13657665252685547,-1.5425848960876465,1.056102991104126
1772791454638981600,12.811981689453125,-0.8510565757751465,-1.2414228916168213,1.5690062046051025
1772791454659083300,12.832083251953126,-0.47023487091064453,-0.7636604309082031,1.6301443576812744
1772791454679185200,12.85218505859375,-0.11063480377197266,-0.5227737426757812,0.5778107643127441
1772791454699286800,12.872286865234376,-0.14381790161132812,-0.4464726448059082,-0.2799224853515625
1772791454719388400,12.892388427734375,-0.04973793029785156,-0.0019073486328125,-0.1953672170639038
1772791454739490000,12.912489990234375,-0.6470775604248047,0.2866506576538086,0.5748035907745361
1772791454759592000,12.932592041015624,-0.2247018814086914,0.3676571846008301,1.1650371551513672
1772791454779693600,12.952693603515625,-0.4156961441040039,0.23766040802001953,1.2936383485794067
1772791454799795200,12.972795166015626,-0.8897032737731934,0.004498004913330078,0.7402605414390564
1772791454819897000,12.99289697265625,-0.7867422103881836,-0.16594552993774414,0.810500979423523
1772791454839998700,13.012998779296876,-0.7195286750793457,-0.43987512588500977,1.565882682800293
1772791454860100400,13.033100341796874,-0.9453420639038086,-0.5045223236083984,1.6289446353912354
1772791454900304000,13.073303955078124,0.059814453125,-1.0926122665405273,1.5929386615753174
1772791454920405500,13.093405517578125,0.7483186721801758,-1.2949309349060059,0.9208702445030212
1772791454940507100,13.113507080078126,0.7418909072875977,-1.3275022506713867,0.4526136517524719
1772791454960609000,13.133609130859375,1.4476709365844727,-1.320791244506836,0.6591207385063171
1772791455000812300,13.173812255859374,1.5888309478759766,-1.213036060333252,0.26848793029785156
1772791455020914200,13.1939140625,0.31992435455322266,-1.6892061233520508,0.06322824954986572
1772791455041015800,13.214015869140624,-0.33072805404663086,-2.1177713871002197,0.6009570360183716
1772791455061117400,13.234117431640625,0.06346416473388672,-2.2313129901885986,1.796175479888916
1772791455081219300,13.25421923828125,0.3531513214111328,-1.8350269794464111,2.2842824459075928
1772791455101321000,13.274321044921875,1.8289108276367188,-2.165588140487671,1.2642096281051636
1772791455121422600,13.294422607421875,3.4731197357177734,-2.509871006011963,0.39974021911621094
1772791455141524500,13.3145244140625,3.6697988510131836,-2.5617148876190186,0.5892670154571533
1772791455161625000,13.334625,3.2929887771606445,-2.359342575073242,0.6418448686599731
1772791455181725400,13.354725341796875,1.991384506225586,-1.882493495941162,0.7248086333274841
1772791455201826000,13.374825927734374,0.12816715240478516,-1.4936065673828125,1.0984725952148438
1772791455221926700,13.3949267578125,-0.7909588813781738,-1.2892684936523438,1.031200885772705
1772791455242027000,13.415027099609375,-0.4377279281616211,-1.1211695671081543,0.6440922021865845
1772791455262127600,13.435127685546876,0.3875312805175781,-1.638469934463501,0.8437942266464233
1772791455282228000,13.45522802734375,0.5723104476928711,-2.2816131114959717,1.406810998916626
1772791455302328600,13.47532861328125,0.7483196258544922,-2.505357503890991,1.4431800842285156
1772791455322429000,13.495428955078125,0.39487457275390625,-2.5537352561950684,1.7962301969528198
1772791455342529500,13.515529541015624,-0.5427722930908203,-2.5467944145202637,1.5871086120605469
1772791455362630100,13.535630126953125,-0.7284712791442871,-2.3170077800750732,0.8990100622177124
1772791455382730500,13.55573046875,0.7647314071655273,-2.295581102371216,0.3536437153816223
1772791455402831000,13.5758310546875,1.9122943878173828,-2.210993528366089,0.11712998151779175
1772791455422931500,13.595931396484374,1.7222404479980469,-2.171445846557617,0.8699554800987244
1772791455443032000,13.616031982421875,1.0172948837280273,-1.63712739944458,0.8990088701248169
1772791455463132700,13.636132568359375,0.6141328811645508,-1.098804235458374,-0.14611577987670898
1772791455483233000,13.65623291015625,1.088693618774414,-0.7791037559509277,-0.760776162147522
1772791455503333600,13.676333740234375,2.0588321685791016,-1.1230719089508057,-0.17085087299346924
1772791455523434000,13.69643408203125,2.6660470962524414,-1.4638488292694092,0.0016095638275146484
1772791455543534600,13.71653466796875,1.8517341613769531,-1.20939302444458,0.30237632989883423
1772791455563635200,13.73663525390625,0.15200138092041016,-1.165356159210205,0.7845155596733093
1772791455583735600,13.756735595703125,-0.8922343254089355,-1.319735050201416,0.8171057105064392
1772791455603836200,13.776836181640626,-0.3845186233520508,-1.7260067462921143,0.2487947940826416
1772791455623936500,13.7969365234375,1.1343908309936523,-2.0543394088745117,-0.14596080780029297
1772791455644037000,13.817037109375,1.9247665405273438,-2.207458019256592,0.010184168815612793
1772791455664138200,13.83713818359375,1.5950069427490234,-2.196289300918579,0.12090903520584106
1772791455684239600,13.857239501953124,0.7537317276000977,-2.0179007053375244,0.061538517475128174
1772791455704341000,13.877341064453125,-0.1536998748779297,-1.828678846359253,-0.34813421964645386
1772791455724442400,13.8974423828125,-0.2827625274658203,-1.525268316268921,-0.32387495040893555
1772791455744543700,13.917543701171875,0.21273517608642578,-1.284437656402588,0.07167613506317139
1772791455764644900,13.937644775390625,0.3133230209350586,-1.1906013488769531,0.3981685936450958
1772791455784746200,13.957746337890624,0.25978851318359375,-1.0050959587097168,0.6152640581130981
1772791455804847600,13.97784765625,0.7448749542236328,-1.1278533935546875,0.6680566668510437
1772791455824949000,13.997948974609375,2.081305503845215,-1.5665791034698486,0.07846611738204956
1772791455845050400,14.01805029296875,2.6115636825561523,-2.0643649101257324,0.09774824976921082
1772791455865151500,14.0381513671875,2.531055450439453,-2.549729347229004,1.584859848022461
1772791455885252900,14.0582529296875,2.680492401123047,-2.7517826557159424,2.8972699642181396
1772791455905354200,14.078354248046875,2.242584228515625,-3.0147087574005127,2.838613510131836
1772791455925455600,14.09845556640625,2.1241912841796875,-3.165696144104004,1.189680576324463
1772791455945557000,14.118556884765624,2.6284523010253906,-3.2383196353912354,0.04433572292327881
1772791455965658400,14.138658447265625,3.2225522994995117,-3.077021598815918,0.6624810099601746
1772791455985759500,14.158759521484376,2.7487220764160156,-2.8737380504608154,2.3145835399627686
1772791456005860900,14.17886083984375,0.5159091949462891,-2.4447829723358154,2.7227888107299805
1772791456025962200,14.198962158203125,-0.9721527099609375,-1.917128324508667,2.2527575492858887
1772791456046063600,14.219063720703126,0.9659709930419922,-1.6935279369354248,0.7395932078361511
1772791456066165000,14.2391650390625,2.8312997817993164,-1.5162427425384521,0.26156359910964966
1772791456086266000,14.25926611328125,1.0722999572753906,-0.9787943363189697,1.4680886268615723
1772791456106367500,14.279367431640624,-0.33275604248046875,0.13240528106689453,0.8198573589324951
1772791456126468900,14.29946875,-1.038724422454834,0.8832707405090332,-0.2625025510787964
1772791456146570200,14.3195703125,-0.7403903007507324,0.9611716270446777,-0.3052777051925659
1772791456166671600,14.339671630859375,1.7757282257080078,0.710052490234375,-0.43131980299949646
1772791456186773200,14.359773193359375,3.034043312072754,-0.07167673110961914,-1.204901933670044
1772791456206875000,14.379875,0.44324684143066406,-0.27585887908935547,-0.8924565315246582
1772791456226976300,14.399976318359375,-2.325411319732666,0.28502893447875977,1.0331032276153564
1772791456247078000,14.420077880859376,4.713896751403809,-1.9312324523925781,5.722115516662598
1772791456267179300,14.44017919921875,7.387887954711914,-0.38846778869628906,2.839784860610962
1772791456287281000,14.460281005859375,-1.7303814888000488,1.845015525817871,-4.161767482757568
1772791456307382300,14.48038232421875,-5.525319576263428,-0.2774486541748047,-5.330530643463135
1772791456327484000,14.50048388671875,-1.8716659545898438,-0.05972623825073242,-3.6069674491882324
1772791456347585500,14.52058544921875,1.6210556030273438,-2.1782543659210205,0.19207382202148438
1772791456367687000,14.54068701171875,5.24826717376709,-5.673205852508545,4.590723037719727
1772791456387788500,14.56078857421875,8.395658493041992,-5.91234016418457,3.7754440307617188
1772791456407890000,14.580889892578124,9.401147842407227,-1.4157257080078125,-4.39801025390625
1772791456427991600,14.600991455078125,-6.195732116699219,0.2611522674560547,-8.395308494567871
1772791456448093200,14.62109326171875,-16.615293502807617,-1.2859749794006348,-4.73219108581543
1772791456468194600,14.641194580078125,-9.720026969909668,2.5613837242126465,-2.5400285720825195
1772791456488296200,14.661296142578125,-3.7379794120788574,-0.7219076156616211,0.7831636667251587
1772791456508397600,14.6813974609375,-1.5880703926086426,-2.1358702182769775,-0.06835892796516418
1772791456528499200,14.701499267578125,0.9378747940063477,-1.4876348972320557,0.8351929187774658
1772791456548600800,14.721600830078126,0.27726173400878906,-1.8167579174041748,0.10081863403320312
1772791456568702200,14.7417021484375,-2.0968809127807617,4.358887672424316,-6.108733177185059
1772791456588803800,14.761803955078125,1.0090131759643555,4.33762788772583,-11.297571182250977
1772791456608905200,14.7819052734375,4.188142776489258,0.7656283378601074,-9.758243560791016
1772791456629006800,14.8020068359375,5.855103492736816,-3.2559494972229004,-3.1725456714630127
1772791456649108200,14.822108154296876,5.345396995544434,-3.861955404281616,0.8817653656005859
1772791456669209600,14.842209716796875,2.384610176086426,5.786825656890869,-3.3017330169677734
1772791456689311000,14.86231103515625,2.9331235885620117,6.227792263031006,-0.7287139892578125
1772791456709412400,14.882412353515624,2.6658763885498047,-1.120246410369873,4.117160797119141
1772791456729513700,14.902513671875,5.7874650955200195,-8.05203914642334,11.297235488891602
1772791456749615000,14.922614990234376,10.184903144836426,-9.209371566772461,10.103189468383789
1772791456769716500,14.942716552734375,10.743571281433105,-4.910114765167236,-0.603971004486084
1772791456789817900,14.96281787109375,7.34498929977417,-0.7012014389038086,-7.892313480377197
1772791456809919000,14.9829189453125,3.976531505584717,-0.8273301124572754,-10.480162620544434
1772791456830020400,15.003020263671875,-0.943903923034668,-2.5167551040649414,-6.316498279571533
1772791456850121700,15.023121826171876,-3.7133498191833496,-3.975296974182129,-4.3806304931640625
1772791456870223000,15.04322314453125,-4.517389297485352,-1.9626407623291016,-7.125866413116455
1772791456890324500,15.063324462890625,-4.703442096710205,0.040546417236328125,-10.165061950683594
1772791456910425900,15.08342578125,-6.878582954406738,-0.8181543350219727,-9.992494583129883
1772791456930527200,15.10352734375,-8.053054809570312,-3.27333927154541,-5.685443878173828
1772791456950628600,15.123628662109375,-6.808025360107422,-4.5393757820129395,-0.14125490188598633
1772791456970730000,15.14372998046875,-7.790546417236328,-3.21625018119812,1.2631244659423828
1772791456990831400,15.163831298828125,-11.114238739013672,-3.133781671524048,0.3688826560974121
1772791457010932700,15.1839326171875,-10.587395668029785,-3.780313491821289,-3.2469735145568848
1772791457031033900,15.204033935546875,-6.7843499183654785,-2.5806007385253906,-8.248394966125488
1772791457051135200,15.22413525390625,-4.337517738342285,-1.5665044784545898,-11.150243759155273
1772791457071236600,15.244236572265624,-5.382865905761719,-2.767714023590088,-11.146522521972656
1772791457091338000,15.264337890625,-6.332982063293457,-4.21523380279541,-10.951728820800781
1772791457111439400,15.284439453125,-4.654266834259033,-6.46495246887207,-12.097195625305176
1772791457131540700,15.304540771484374,5.301145553588867,-8.504449844360352,-13.063931465148926
1772791457151641600,15.3246416015625,15.797866821289062,-4.27437686920166,-14.024038314819336
1772791457171741700,15.34474169921875,20.73016357421875,3.562492609024048,-15.012763977050781
1772791457191841800,15.364841796875,6.363168716430664,-3.0575881004333496,-2.2651619911193848
1772791457211942000,15.38494189453125,11.422889709472656,-15.336270332336426,7.243383407592773
1772791457232042200,15.405042236328125,25.807390213012695,-15.975682258605957,-2.108579635620117
1772791457252142300,15.425142333984375,22.119667053222656,-13.021073341369629,-10.2019624710083
1772791457272242400,15.445242431640626,13.399163246154785,-13.899696350097656,-7.277850151062012
1772791457292342500,15.465342529296874,14.335529327392578,-13.194779396057129,-3.9015369415283203
1772791457312442600,15.485442626953125,12.948563575744629,-8.989812850952148,-3.3884365558624268
1772791457332542700,15.505542724609375,3.769012451171875,-6.052247524261475,-2.049114227294922
1772791457352642800,15.525642822265626,-2.343459129333496,-2.6270458698272705,-2.3917436599731445
1772791457372743200,15.5457431640625,-3.3053717613220215,-0.2652286887168884,-3.4720816612243652
1772791457392843300,15.56584326171875,-4.486433029174805,-1.2863751649856567,-1.4525113105773926
1772791457412943400,15.585943359375,-5.954598426818848,-2.559422731399536,2.3173911571502686
1772791457433043500,15.60604345703125,-4.704455852508545,-2.333378314971924,3.2546379566192627
1772791457453143600,15.6261435546875,-3.8823695182800293,-2.0215792655944824,2.5943121910095215
1772791457473243600,15.64624365234375,-6.086372375488281,-1.7745739221572876,2.564628839492798
1772791457493343700,15.66634375,-8.864644050598145,-1.5390933752059937,2.8257219791412354
1772791457533544000,15.7065439453125,-10.6393404006958,-2.1285672187805176,3.5997345447540283
1772791457553644000,15.72664404296875,-9.644987106323242,-1.366031289100647,1.383967399597168
1772791457573744400,15.746744384765625,-8.721694946289062,-1.2375441789627075,-0.532956600189209
1772791457593844500,15.766844482421876,-8.528060913085938,-1.780542016029358,-0.8772683143615723
1772791457613944600,15.786944580078124,-8.519193649291992,-2.237919330596924,0.7058005332946777
1772791457634044700,15.807044677734375,-8.962614059448242,-2.6320652961730957,0.7196919918060303
1772791457654145000,15.82714501953125,-9.28414249420166,-2.806717872619629,-1.4305541515350342
1772791457674245600,15.84724560546875,-5.959875583648682,-2.2592098712921143,-3.4423446655273438
1772791457694346200,15.86734619140625,-2.423990249633789,-0.9517852067947388,-3.7017481327056885
1772791457714446600,15.887446533203125,-6.270083427429199,-1.8040218353271484,-0.6296677589416504
1772791457734547200,15.907547119140625,-10.103979110717773,-3.98919677734375,3.175088405609131
1772791457754647800,15.927647705078124,0.3976740837097168,-4.079050064086914,5.450119972229004
1772791457774748400,15.94774853515625,1.1926426887512207,-0.270388126373291,7.6078410148620605
1772791457794849000,15.96784912109375,-9.510246276855469,4.956231117248535,6.318544864654541
1772791457835050200,16.00805029296875,2.5042057037353516,-15.21165657043457,5.502008438110352
1772791457855150800,16.02815087890625,27.659713745117188,-20.984140396118164,1.9441962242126465
1772791457875251500,16.04825146484375,30.224191665649414,-11.521986961364746,-4.851823806762695
1772791457895351800,16.068351806640624,20.366317749023438,-6.991170883178711,-5.264545440673828
1772791457915452400,16.088452392578127,22.16533088684082,-5.249716281890869,-3.4448914527893066
1772791457935553000,16.108552978515625,20.342693328857422,-2.534006118774414,-4.200528144836426
1772791457955653600,16.128653564453124,12.497684478759766,1.1076430082321167,-5.5630083084106445
1772791457975754200,16.148754150390626,5.819626808166504,2.923346519470215,-6.324455261230469
1772791457995854800,16.168854736328125,2.534116744995117,3.170034408569336,-6.254512786865234
1772791458015955500,16.18895556640625,0.636387825012207,2.8555240631103516,-5.936861991882324
1772791458036056000,16.20905615234375,-0.6436195373535156,2.308647632598877,-6.047090530395508
1772791458056156700,16.22915673828125,-1.5235390663146973,2.1778793334960938,-6.7680840492248535
1772791458076257300,16.24925732421875,-2.8127732276916504,1.706294298171997,-7.865233898162842
1772791458116458200,16.289458251953125,-4.736647605895996,0.40738657116889954,-8.884689331054688
1772791458136558800,16.309558837890624,-5.8781514167785645,-0.4107409715652466,-8.67258358001709
1772791458156660000,16.329659912109374,-6.026435375213623,-1.032278299331665,-8.652559280395508
1772791458176761600,16.34976171875,-6.631440162658691,-1.5874898433685303,-8.679632186889648
1772791458196863200,16.36986328125,-7.507218360900879,-2.1671998500823975,-8.045331954956055
1772791458216964900,16.38996484375,-7.24751091003418,-2.1894993782043457,-7.126124382019043
1772791458237066500,16.41006640625,-5.4779253005981445,-1.679763913154602,-7.0801873207092285
1772791458257168100,16.430168212890624,3.104640483856201,1.0397672653198242,-6.876437664031982
1772791458277269500,16.45026953125,5.972590923309326,4.263948440551758,-4.7677483558654785
1772791458297371100,16.47037109375,-2.7686562538146973,7.171020984649658,-4.041543006896973
1772791458317472800,16.49047265625,-4.809595584869385,9.992305755615234,-4.379311561584473
1772791458337574400,16.510574462890624,-2.842245578765869,6.6595258712768555,-3.4341483116149902
1772791458357676000,16.530676025390626,0.8224554061889648,1.5273914337158203,-4.533803939819336
1772791458377777400,16.55077734375,4.620977401733398,-1.6693986654281616,-4.3255205154418945
1772791458417980700,16.590980712890627,8.853826522827148,-2.661991834640503,-4.111866474151611
1772791458438082300,16.611082275390626,7.822840690612793,-4.074718475341797,-7.528782844543457
1772791458458184000,16.631183837890624,18.23727798461914,-3.303943395614624,-3.139209032058716
1772791458478285600,16.65128564453125,22.17697525024414,-2.399513006210327,5.441941738128662
1772791458498387000,16.671386962890626,15.895483016967773,-1.5250835418701172,1.6346875429153442
1772791458518488600,16.691488525390625,12.669276237487793,1.0962932109832764,-1.0265758037567139
1772791458538590200,16.711590087890624,8.15783977508545,1.464639663696289,-0.7340075969696045
1772791458558691800,16.73169189453125,3.56103515625,0.6658618450164795,0.15823039412498474
1772791458578793500,16.75179345703125,0.27102088928222656,0.6494910717010498,0.46139949560165405
1772791458598895000,16.77189501953125,-3.447524070739746,0.19303297996520996,0.4829580783843994
1772791458618996500,16.79199658203125,-6.314428806304932,-0.9380204677581787,0.318107545375824
1772791458639098000,16.81209814453125,-7.082564830780029,-1.853623628616333,0.2884727716445923
1772791458659200300,16.8322001953125,-6.753253936767578,-1.9771573543548584,-0.7656786441802979
1772791458679302400,16.852302490234376,-5.946809768676758,-2.5441553592681885,-1.9633888006210327
1772791458699404500,16.872404541015626,-5.012454032897949,-3.1558587551116943,-2.2134664058685303
1772791458739608800,16.91260888671875,-5.364678382873535,-3.639674425125122,-0.45988309383392334
1772791458759711000,16.9327109375,-6.469379901885986,-3.145094394683838,0.8679664134979248
1772791458779813000,16.952813232421875,-7.338961601257324,-2.0523176193237305,0.4519474506378174
1772791458799915300,16.972915283203125,-7.534132480621338,-1.0780372619628906,-1.9877514839172363
1772791458820017400,16.993017333984376,-8.770133972167969,-0.30640244483947754,-4.210733890533447
1772791458840119600,17.01311962890625,-8.160229682922363,1.8258302211761475,-4.585363864898682
1772791458860221700,17.0332216796875,-8.561972618103027,2.7611684799194336,-3.158626079559326
1772791458880323800,17.05332373046875,-11.86532211303711,0.9384338855743408,-1.169696569442749
1772791458900426000,17.073426025390624,-14.416050910949707,-0.8258059024810791,0.2781224250793457
1772791458920528100,17.093528076171875,-16.43838119506836,-1.4062236547470093,-0.1673564910888672
1772791458940630300,17.11363037109375,-18.44561004638672,-4.401750564575195,0.8161499500274658
1772791458960732400,17.133732421875,-19.271942138671875,-7.839428424835205,1.912792682647705
1772791458980834600,17.15383447265625,-16.428421020507812,-9.10860538482666,0.4274559020996094
1772791459000937000,17.17393701171875,-12.998481750488281,-6.420823574066162,1.602586030960083
1772791459021039000,17.1940390625,-16.589841842651367,-8.947736740112305,2.005511999130249
1772791459041141200,17.214141357421877,-14.197853088378906,-18.287961959838867,-3.909330368041992
1772791459061243400,17.234243408203124,1.523188591003418,-23.341007232666016,-6.246072769165039
1772791459081345500,17.254345458984375,9.270065307617188,-32.883758544921875,-0.43292832374572754
1772791459101447700,17.27444775390625,22.342485427856445,-37.731834411621094,4.4787373542785645
1772791459121549800,17.2945498046875,28.141498565673828,-30.183307647705078,-0.1463479995727539
1772791459141652000,17.31465185546875,18.7618465423584,-19.533565521240234,-4.659054279327393
1772791459161752800,17.3347529296875,12.097372055053711,-11.114866256713867,-6.356168746948242
1772791459181853400,17.354853515625,12.26400375366211,-5.537992477416992,-6.5114641189575195
1772791459201954000,17.3749541015625,11.057888984680176,-1.964324951171875,-6.488958358764648
1772791459222054700,17.3950546875,8.465065956115723,1.173750400543213,-6.656627178192139
1772791459242155300,17.4151552734375,6.781258583068848,3.9147820472717285,-6.428286552429199
1772791459262255900,17.435255859375,5.9059367179870605,5.569798469543457,-5.602104187011719
1772791459282356500,17.4553564453125,4.677739143371582,6.33317756652832,-4.691669464111328
1772791459302457000,17.47545703125,4.16075325012207,6.6871490478515625,-3.6613223552703857
1772791459342658300,17.515658203125,4.654555797576904,6.5911545753479,-3.730297803878784
1772791459362759000,17.535759033203124,4.892375946044922,6.200601577758789,-4.962615966796875
1772791459382859500,17.555859619140627,4.757725715637207,5.8181304931640625,-5.885830879211426
1772791459402960100,17.575960205078125,4.336672782897949,4.530545234680176,-5.89359188079834
1772791459423060500,17.596060546875,5.807643413543701,2.1922507286071777,-5.806934833526611
1772791459443161300,17.616161376953126,8.757282257080078,0.43480873107910156,-6.992737770080566
1772791459463262000,17.636261962890625,7.854089736938477,-2.3786487579345703,-6.768095970153809
1772791459483362300,17.6563623046875,6.062666893005371,-6.693739891052246,-4.815390586853027
1772791459503463200,17.676463134765626,8.043098449707031,-9.683032035827637,-3.1988306045532227
1772791459523563800,17.696563720703125,8.694866180419922,-11.568572998046875,-3.548448324203491
1772791459543664000,17.7166640625,6.765336036682129,-12.66510009765625,-4.144628524780273
1772791459563765000,17.736764892578126,4.447658061981201,-13.246147155761719,-2.9130859375
1772791459583865300,17.756865234375,2.7758045196533203,-13.530773162841797,-0.017441630363464355
1772791459603966000,17.776966064453124,0.2732820510864258,-13.490095138549805,1.711008071899414
1772791459624066800,17.79706689453125,-3.5063700675964355,-12.476739883422852,1.6992554664611816
1772791459644167200,17.817167236328125,-6.809824466705322,-10.804889678955078,1.2746108770370483
1772791459664268500,17.8372685546875,-7.746302604675293,-8.724560737609863,0.7167398929595947
1772791459684369700,17.85736962890625,-7.743401050567627,-7.1738786697387695,0.3961898684501648
1772791459704471000,17.877470947265625,-6.998703956604004,-6.248680591583252,-0.022514760494232178
1772791459724572200,17.897572265625,-5.109808921813965,-5.676736831665039,-0.0037155747413635254
1772791459744673500,17.917673583984374,-4.669428825378418,-5.3837785720825195,0.6858406662940979
1772791459764775000,17.93777490234375,-5.731495380401611,-5.22561502456665,1.8740917444229126
1772791459784876000,17.9578759765625,-6.75825309753418,-4.969048976898193,3.2967231273651123
1772791459804977400,17.977977294921875,-6.537302494049072,-4.559146404266357,3.5572140216827393
1772791459825078500,17.99807861328125,-7.044698715209961,-3.7822787761688232,2.39316463470459
1772791459845180000,18.018179931640624,-9.008624076843262,-2.4652702808380127,-0.19506937265396118
1772791459865281000,18.038281005859375,-10.710511207580566,-0.6078009605407715,-1.5978007316589355
1772791459885382400,18.05838232421875,-12.082475662231445,1.9917941093444824,-2.379210948944092
1772791459905483800,18.07848388671875,-11.547208786010742,4.276744365692139,-3.709693193435669
1772791459925585000,18.0985849609375,-9.819448471069336,5.644802570343018,-4.621854305267334
1772791459945686300,18.118686279296874,-7.341297626495361,5.461471080780029,-3.639880657196045
1772791459965787400,18.138787353515625,-5.606497287750244,4.25095272064209,-1.3902316093444824
1772791459985888800,18.158888671875,-4.057662010192871,2.781214714050293,0.9477386474609375
1772791460005990000,18.178989990234374,-4.554498195648193,2.1438746452331543,1.0611505508422852
1772791460026091300,18.19909130859375,-4.77573823928833,1.4439897537231445,2.157968521118164
1772791460046192600,18.219192626953124,-3.599849224090576,-0.008672237396240234,3.815922260284424
1772791460066293800,18.239293701171874,-2.2250185012817383,-0.9206336736679077,3.628364086151123
1772791460086395100,18.25939501953125,-2.696385383605957,-0.9383100867271423,1.9081015586853027
1772791460106496300,18.279496337890624,-3.614454746246338,-1.603256106376648,1.3082780838012695
1772791460146698800,18.31969873046875,-0.7835307121276855,-3.4864447116851807,0.5604987144470215
1772791460166800000,18.3397998046875,-0.36786460876464844,-4.372102737426758,0.9419994354248047
1772791460186901000,18.35990087890625,-1.264387607574463,-3.7167928218841553,0.604156494140625
1772791460207002000,18.380002197265625,-2.1048831939697266,-1.8035149574279785,-0.6033201217651367
1772791460227103500,18.400103515625,-5.327751636505127,-1.6111817359924316,-1.3675265312194824
1772791460247204600,18.42020458984375,-8.836967468261719,-6.3261871337890625,-0.8016905784606934
1772791460267305700,18.4403056640625,-4.001678943634033,-13.400480270385742,1.7041840553283691
1772791460287406800,18.46040673828125,10.054447174072266,-15.596117973327637,2.873539924621582
1772791460307508000,18.480508056640623,17.91097640991211,-14.051322937011719,1.211550235748291
1772791460327609000,18.500609130859374,14.588400840759277,-13.584617614746094,1.2934932708740234
1772791460347710200,18.520710205078124,7.938618183135986,-15.69499397277832,3.0428595542907715
1772791460367811300,18.540811279296875,3.697129249572754,-18.648040771484375,3.4701766967773438
1772791460387912400,18.560912353515626,4.2142558097839355,-18.912609100341797,-0.8383316993713379
1772791460408013600,18.581013671875,5.487462520599365,-15.488061904907227,-6.061157703399658
1772791460428115000,18.601114990234375,3.386758804321289,-10.909896850585938,-6.46400260925293
1772791460448215800,18.6212158203125,-1.6104321479797363,-8.0023832321167,-2.8878097534179688
1772791460468317200,18.641317138671877,-5.43052864074707,-4.953364372253418,-0.08374261856079102
1772791460488418300,18.661418212890624,-5.5839128494262695,-2.3418006896972656,-0.01581740379333496
1772791460508519400,18.68151953125,-4.904066562652588,-0.2451796531677246,-2.011145830154419
1772791460528620500,18.70162060546875,-5.2238311767578125,1.0310173034667969,-3.433011293411255
1772791460548721700,18.7217216796875,-6.701247692108154,2.310429334640503,-3.8333585262298584
1772791460568822800,18.74182275390625,-8.750174522399902,3.7792763710021973,-3.683598279953003
1772791460588924000,18.761923828125,-10.85041332244873,4.483642578125,-3.883547782897949
1772791460609025000,18.78202490234375,-11.466205596923828,4.047220706939697,-3.9533658027648926
1772791460629126100,18.802126220703126,-10.942765235900879,3.0607802867889404,-4.089533805847168
1772791460649227300,18.822227294921873,-10.362809181213379,2.2778539657592773,-3.95992112159729
1772791460669328000,18.842327880859376,-9.849525451660156,1.5219027996063232,-2.9620985984802246
1772791460689428700,18.8624287109375,-10.24421501159668,0.5053792595863342,-1.8969814777374268
1772791460709529300,18.882529296875,-10.746841430664062,-0.4356638491153717,-2.164623975753784
1772791460729630000,18.9026298828125,-10.091304779052734,-0.9097519516944885,-3.544334888458252
1772791460749730800,18.922730712890626,-7.49392032623291,-0.3752215802669525,-5.512997150421143
1772791460769831400,18.94283154296875,-3.9652342796325684,1.7535786628723145,-6.295395374298096
1772791460789932000,18.96293212890625,-2.8887252807617188,3.9519529342651367,-6.434832572937012
1772791460810032600,18.98303271484375,-9.787187576293945,3.5819480419158936,-4.6191840171813965
1772791460830133500,19.003133544921877,-15.212255477905273,-0.2644924521446228,-3.3048689365386963
1772791460850234000,19.023234130859375,-9.206600189208984,-8.442659378051758,-2.821263551712036
1772791460870334700,19.043334716796874,5.9088945388793945,-14.200369834899902,-4.190793037414551
1772791460890435600,19.063435546875,15.002646446228027,-11.22292423248291,-5.976681709289551
1772791460910536200,19.0835361328125,7.5813398361206055,-10.017874717712402,-4.530919075012207
1772791460930636800,19.10363671875,5.4865922927856445,-8.922029495239258,-3.960576295852661
1772791460950737700,19.123737548828124,8.207548141479492,-9.749340057373047,1.8771867752075195
1772791460970838300,19.14383837890625,16.54291534423828,-13.345569610595703,9.076377868652344
1772791460990939000,19.16393896484375,18.83633041381836,-12.376934051513672,6.793848991394043
1772791461011039700,19.184039794921876,8.84309196472168,-9.892680168151855,2.4215285778045654
1772791461031140400,19.204140380859375,3.2184486389160156,-6.677406311035156,-0.48437273502349854
1772791461051241000,19.224240966796874,3.3732337951660156,-4.266578197479248,-1.3592290878295898
1772791461071341800,19.244341796875,4.726003646850586,-4.190174579620361,-0.8876811861991882
1772791461091442400,19.2644423828125,3.3944053649902344,-3.6492953300476074,-2.647507667541504
1772791461111543000,19.28454296875,1.8762292861938477,-2.8706650733947754,-4.220156669616699
1772791461131643600,19.3046435546875,3.0155954360961914,-2.5625672340393066,-4.730052947998047
1772791461151744300,19.324744140625,4.393980026245117,-2.8836758136749268,-3.505924940109253
1772791461171844900,19.344844970703125,4.471308708190918,-3.329883098602295,-2.8839011192321777
1772791461191945500,19.364945556640624,3.9255380630493164,-2.863865375518799,-3.5846381187438965
1772791461212046000,19.385046142578126,1.7552661895751953,-2.297884702682495,-4.066868782043457
1772791461232146700,19.405146728515625,-0.5496416091918945,-1.4978663921356201,-4.157722473144531
1772791461252247300,19.425247314453124,-0.8206892013549805,-1.324717402458191,-3.9866106510162354
1772791461272348000,19.445347900390626,-0.48394775390625,-1.315746784210205,-3.569436550140381
1772791461292448500,19.465448486328125,-0.4201927185058594,-1.408319115638733,-2.6238207817077637
1772791461312549000,19.485549072265623,-2.0269412994384766,-2.028329372406006,-0.7962050437927246
1772791461332649700,19.505649658203126,-3.881072998046875,-2.1813783645629883,1.100144863128662
1772791461352750300,19.525750244140625,-4.248122215270996,-2.290807008743286,1.1504371166229248
1772791461372851000,19.545850830078123,-3.1945552825927734,-1.850853681564331,0.6526906490325928
1772791461392951600,19.56595166015625,-2.975846767425537,-1.4865480661392212,1.6794915199279785
1772791461413052000,19.586052001953124,-5.7126054763793945,-1.9747776985168457,3.7706055641174316
1772791461433152500,19.606152587890627,-8.787285804748535,-2.7498984336853027,4.34307336807251
1772791461453253000,19.626253173828125,-9.377687454223633,-2.9083404541015625,2.392472982406616
1772791461493454300,19.666454345703126,-9.197311401367188,-3.474994659423828,-0.6018054485321045
1772791461513555000,19.686554931640625,-9.898881912231445,-2.8263463973999023,0.2765347957611084
1772791461533655600,19.706655517578124,-12.358658790588379,-2.3665122985839844,0.5501179695129395
1772791461553756200,19.726756103515626,-12.158475875854492,-2.2856783866882324,-0.20903444290161133
1772791461573856800,19.746856689453125,-9.554923057556152,-1.6287113428115845,-0.841469407081604
1772791461593957400,19.766957275390624,-5.517576217651367,0.5687401294708252,-1.2146899700164795
1772791461614058000,19.78705810546875,-4.191934108734131,3.0319387912750244,-1.3936481475830078
1772791461634158600,19.80715869140625,-5.430225372314453,5.426850318908691,-2.913414716720581
1772791461654259500,19.827259521484375,-6.940927982330322,9.90106201171875,-4.863998889923096
1772791461674360600,19.847360595703126,-8.566017150878906,5.352961540222168,-5.5969929695129395
1772791461694461700,19.867461669921877,-2.3318042755126953,-8.904641151428223,-3.157292604446411
1772791461714562800,19.887562744140624,13.170079231262207,-19.082571029663086,-4.217780590057373
1772791461734664000,19.907663818359374,26.11819839477539,-15.419509887695312,-9.27029800415039
1772791461754765000,19.92776513671875,22.4364013671875,-10.964532852172852,-10.491067886352539
1772791461774866200,19.9478662109375,23.56229019165039,-9.791146278381348,-4.914891242980957
1772791461794967300,19.96796728515625,24.651290893554688,-9.727415084838867,2.9417030811309814
1772791461815068400,19.988068359375,18.641315460205078,-9.033947944641113,4.9751152992248535
1772791461835169500,20.00816943359375,11.062551498413086,-5.818428039550781,2.6446776390075684
1772791461855270700,20.028270751953126,3.0702457427978516,-2.053178310394287,-0.26005929708480835
1772791461875371800,20.048371826171874,-4.458361625671387,1.8036574125289917,-3.3309974670410156
1772791461895473000,20.068472900390624,-4.412226676940918,4.5992431640625,-5.463486671447754
1772791461915574300,20.08857421875,-5.189221382141113,1.7837713956832886,-3.8264076709747314
1772791461935675400,20.10867529296875,-10.093470573425293,-2.295438289642334,-0.6559927463531494
1772791461955776500,20.128776611328124,-13.721303939819336,-5.824723720550537,0.4179689586162567
1772791461975877600,20.148877685546875,-14.337520599365234,-6.992114067077637,-1.6479319334030151
1772791461995978800,20.168978759765626,-10.782841682434082,-6.538731575012207,-2.6216726303100586
1772791462016080000,20.189079833984376,-4.066790580749512,-4.392029285430908,-4.458806037902832
1772791462036181000,20.209180908203123,-3.8457674980163574,-4.390195369720459,-3.0567355155944824
1772791462056282000,20.2292822265625,-5.465895175933838,-6.002101898193359,-0.34107905626296997
1772791462076383200,20.24938330078125,-6.333529949188232,-7.896549224853516,0.5572828650474548
1772791462096484400,20.269484375,-5.040416240692139,-9.032562255859375,-2.7052226066589355
1772791462116585500,20.28958544921875,-2.740427017211914,-8.678370475769043,-4.9722089767456055
1772791462136686600,20.3096865234375,-1.6422829627990723,-6.4305830001831055,-6.122519493103027
1772791462156788700,20.329788818359376,-2.7596821784973145,-1.7029061317443848,-5.3466901779174805
1772791462176891400,20.349891357421875,5.121180534362793,-2.1896438598632812,-2.874586582183838
1772791462196994000,20.369994140625,16.446853637695312,3.442047119140625,-9.679708480834961
1772791462217097000,20.390096923828125,13.941827774047852,5.277322292327881,-4.1147990226745605
1772791462237199600,20.41019970703125,8.131389617919922,6.91788911819458,3.736924171447754
1772791462257302300,20.43030224609375,9.397905349731445,8.371607780456543,6.636758804321289
1772791462277405000,20.450405029296874,11.776443481445312,6.0619683265686035,6.081284523010254
1772791462297507800,20.4705078125,7.921829700469971,4.216413974761963,-0.142625629901886
1772791462317610500,20.490610595703124,4.337972640991211,3.750446319580078,1.280774474143982
1772791462337713200,20.510713134765624,2.610445976257324,1.7523951530456543,6.123803615570068
1772791462357815800,20.53081591796875,0.6169452667236328,-0.7085566520690918,4.582242965698242
1772791462377918700,20.550918701171874,-0.969602108001709,-3.824636697769165,2.116231918334961
1772791462398021400,20.571021484375,-1.2707371711730957,-7.075080871582031,1.169839859008789
1772791462418124000,20.5911240234375,-2.5160622596740723,-7.40610408782959,0.5101965665817261
1772791462438226700,20.611226806640627,-7.807577133178711,-7.137997627258301,1.0742095708847046
1772791462458329600,20.63132958984375,-8.061416625976562,-7.225879192352295,0.7955440282821655
1772791462478432300,20.651432373046877,-7.0766472816467285,-7.236725807189941,0.08018231391906738
1772791462498535000,20.671534912109376,-7.876385688781738,-7.264247894287109,0.7213645577430725
1772791462518637600,20.691637451171875,-5.517861843109131,-6.165078639984131,-0.3714110851287842
1772791462538740500,20.711740478515626,-3.052847385406494,-6.111903190612793,-0.3049294948577881
1772791462558843100,20.731843017578125,-4.725350379943848,-5.109869956970215,-0.03316742181777954
1772791462578945800,20.75194580078125,-3.848104953765869,-2.2071285247802734,-1.0028659105300903
1772791462599048700,20.772048583984375,0.9854931831359863,0.35874271392822266,-1.8005889654159546
1772791462639254000,20.81225390625,6.596892356872559,4.466017723083496,0.7021651864051819
1772791462659355600,20.832355712890624,5.745704174041748,3.6434249877929688,1.0059502124786377
1772791462679456800,20.852456787109375,4.532745361328125,2.789081573486328,0.2056567668914795
1772791462699558100,20.87255810546875,2.551102638244629,3.0157251358032227,-0.36198294162750244
1772791462719659300,20.8926591796875,8.684314727783203,2.042940139770508,-0.39651989936828613
1772791462739760400,20.912760498046875,12.935815811157227,1.4693055152893066,0.6291903853416443
1772791462759861800,20.93286181640625,7.790931701660156,1.7243423461914062,0.6581061482429504
1772791462779963000,20.952962890625,-2.702510356903076,2.612460136413574,-0.1250421404838562
1772791462800064000,20.97306396484375,-6.880928039550781,2.515517234802246,-1.6593494415283203
1772791462820165400,20.993165283203126,0.22817516326904297,0.9022068977355957,-4.0425825119018555
1772791462840266500,21.0132666015625,6.511926174163818,-1.3463683128356934,-3.8140034675598145
1772791462860367600,21.03336767578125,6.306817054748535,-2.3971242904663086,-1.0820798873901367
1772791462880469000,21.053468994140626,0.7710790634155273,-2.0970778465270996,0.6495218276977539
1772791462900570000,21.073570068359373,-2.860416889190674,-1.3912687301635742,1.2862976789474487
1772791462920671500,21.09367138671875,-1.9297099113464355,-1.1831293106079102,0.9716207981109619
1772791462940772600,21.113772705078127,0.45492982864379883,-1.4556503295898438,0.6151280403137207
1772791462960873700,21.133873779296874,1.7917137145996094,-1.6798267364501953,-0.1085282564163208
1772791462980975000,21.15397509765625,0.06478309631347656,-1.7785677909851074,-0.7836048007011414
1772791463001076200,21.174076171875,-3.887824773788452,-1.3031868934631348,-1.3764305114746094
1772791463021177300,21.19417724609375,-4.458630561828613,-0.8615579605102539,-1.2371325492858887
1772791463041278700,21.21427880859375,-0.8337311744689941,-1.0439362525939941,-1.1388505697250366
1772791463061379800,21.2343798828125,3.422360897064209,-1.0899443626403809,-1.7470383644104004
1772791463081481000,21.25448095703125,4.033691883087158,-0.5527734756469727,-1.932276725769043
1772791463101582300,21.274582275390625,1.6195201873779297,0.034908294677734375,-1.6204389333724976
1772791463121683500,21.294683349609375,-1.1786527633666992,0.5736322402954102,-0.9278172850608826
1772791463141784600,21.31478466796875,-2.4825797080993652,0.7881984710693359,-0.2895808815956116
1772791463161885400,21.334885498046877,-1.7092580795288086,0.5951070785522461,-0.6476532816886902
1772791463181986000,21.354986083984375,-0.3061652183532715,0.253662109375,-1.181028127670288
1772791463202086700,21.375086669921874,0.42479467391967773,-0.07730579376220703,-1.645810604095459
1772791463222187300,21.395187255859376,-1.0042295455932617,-0.3954615592956543,-1.1719216108322144
1772791463242287900,21.415287841796875,-2.729872703552246,-0.3906974792480469,-0.738190233707428
1772791463262388500,21.435388427734374,-3.233952045440674,-0.3417344093322754,-1.3318383693695068
1772791463282489000,21.455489013671876,-1.2769222259521484,-0.5981311798095703,-2.127840995788574
1772791463302590000,21.47558984375,0.434328556060791,-0.9273333549499512,-2.2423698902130127
1772791463322690600,21.495690673828125,0.4420642852783203,-1.1083030700683594,-2.259840488433838
1772791463342791200,21.515791259765624,-0.6757493019104004,-1.1935691833496094,-1.9533586502075195
1772791463362891800,21.535891845703127,-1.597963809967041,-0.9484167098999023,-1.0882916450500488
1772791463382992400,21.555992431640625,-1.5943069458007812,-0.2748856544494629,-1.0562958717346191
1772791463403093000,21.576093017578124,-2.5954694747924805,-0.8317732810974121,-1.100471019744873
1772791463423193600,21.596193603515626,-1.7254924774169922,-1.3130102157592773,-1.3323862552642822
1772791463443294200,21.616294189453125,0.04956960678100586,-2.371365547180176,-0.4189116954803467
1772791463463394800,21.636394775390624,1.6731715202331543,-3.9219508171081543,1.7818899154663086
1772791463483495700,21.65649560546875,1.6033644676208496,-4.80466365814209,3.247316360473633
1772791463503596300,21.67659619140625,0.2705821990966797,-4.6245622634887695,3.0406441688537598
1772791463543797500,21.716797607421874,1.7626566886901855,-3.953001022338867,5.0450439453125
1772791463583998700,21.756998779296875,5.113015174865723,-3.4236643314361572,8.20962905883789
1772791463604099300,21.777099365234374,9.709918022155762,-2.702960729598999,7.893857955932617
1772791463624200000,21.797199951171876,15.399848937988281,-1.2748498916625977,8.209380149841309
1772791463644300500,21.817300537109375,17.446439743041992,0.5136308670043945,7.654023170471191
1772791463664401700,21.837401611328126,17.424007415771484,2.0518746376037598,6.276429176330566
1772791463684502500,21.85750244140625,14.673553466796875,3.1342644691467285,3.7411558628082275
1772791463704603600,21.877603759765623,8.36806583404541,3.7082667350769043,0.24785614013671875
1772791463724704500,21.89770458984375,3.6692137718200684,3.660675048828125,-1.657891035079956
1772791463744805400,21.917805419921876,0.4257936477661133,2.084993362426758,-2.677098512649536
1772791463764906500,21.937906494140623,-1.7043414115905762,-0.040673255920410156,-4.234493255615234
1772791463785007400,21.95800732421875,-2.9646353721618652,-2.103811740875244,-4.703800201416016
1772791463805108500,21.9781083984375,-6.79984188079834,-4.2482709884643555,-5.83928108215332
1772791463825209300,21.998209228515623,-9.223373413085938,-6.416695594787598,-5.943583965301514
1772791463865411300,22.038411376953125,-9.200103759765625,-9.673301696777344,-8.444060325622559
1772791463885512400,22.058512451171875,-8.063002586364746,-10.278636932373047,-8.684293746948242
1772791463905613300,22.07861328125,-4.91560173034668,-9.963020324707031,-7.4067792892456055
1772791463925714400,22.09871435546875,-1.8143748044967651,-8.731833457946777,-4.95590353012085
1772791463945815300,22.118815185546875,-0.8893895149230957,-7.491213321685791,-3.488316774368286
1772791463965916400,22.13891650390625,0.24636507034301758,-5.696433067321777,-2.3259599208831787
1772791463986017300,22.159017333984377,2.0866827964782715,-2.7131142616271973,-0.28484582901000977
1772791464006118400,22.179118408203124,3.4317445755004883,0.2227640151977539,3.3335466384887695
1772791464026219300,22.19921923828125,5.252126693725586,2.8916635513305664,3.809344530105591
1772791464066421200,22.239421142578124,3.7352113723754883,9.58316421508789,-2.453998565673828
1772791464086522000,22.259522216796874,-0.7859296798706055,7.9014892578125,-0.2065572738647461
1772791464106623200,22.279623291015625,0.2843301296234131,6.215911865234375,2.077857494354248
1772791464126724000,22.29972412109375,0.3607144355773926,5.927431106567383,4.129387855529785
1772791464166926300,22.33992626953125,0.8898301124572754,-1.0236144065856934,-7.024094581604004
1772791464187027500,22.36002734375,-2.0352816581726074,-7.949892997741699,-4.204101085662842
1772791464207128600,22.380128662109374,2.781749725341797,-12.600049018859863,-0.25414443016052246
1772791464227229700,22.400229736328125,14.323602676391602,-11.56404972076416,-0.15368330478668213
1772791464267432000,22.440431884765626,9.654004096984863,-4.686432361602783,-1.2617263793945312
1772791464287533000,22.460532958984373,-10.17141056060791,-3.9366097450256348,-1.4421659708023071
1772791464307634000,22.480634033203124,-24.536460876464844,-3.9912571907043457,-1.0245471000671387
1772791464327735300,22.5007353515625,-28.050708770751953,-2.737583637237549,-1.9929624795913696
1772791464347836200,22.520836181640625,-24.51706314086914,-1.8968918323516846,-0.47824347019195557
1772791464367937300,22.540937255859376,-17.550823211669922,-1.9716424942016602,2.55299711227417
1772791464388038400,22.561038330078127,-9.069766998291016,-0.585407018661499,3.2935476303100586
1772791464408139500,22.581139404296874,-4.767043113708496,1.1764116287231445,2.6308507919311523
1772791464428240600,22.60124072265625,-5.274487495422363,1.0839862823486328,1.9824001789093018
1772791464448341800,22.621341796875,-5.926758289337158,0.53501296043396,2.5453684329986572
1772791464468443000,22.64144287109375,-5.189181327819824,-0.3681516647338867,3.8172261714935303
1772791464488544000,22.6615439453125,-1.3674769401550293,-2.441328525543213,4.82906436920166
1772791464508645000,22.68164501953125,3.179755687713623,-6.107465744018555,4.160670280456543
1772791464528746200,22.701746337890626,9.779903411865234,-11.321722984313965,0.6645164489746094
1772791464548847400,22.721847412109376,21.406726837158203,-20.039844512939453,0.5850335359573364
1772791464568948500,22.741948486328123,39.57819366455078,-30.687345504760742,9.491280555725098
1772791464589049600,22.762049560546874,43.30033874511719,-33.87990188598633,9.867112159729004
1772791464609150700,22.782150634765625,27.4644832611084,-30.292665481567383,3.1264615058898926
1772791464629251800,22.802251953125,19.391162872314453,-25.71446418762207,-0.7207865715026855
1772791464649353200,22.822353271484374,9.645938873291016,-21.474857330322266,-3.837336778640747
1772791464669455000,22.842455078125,-4.838316440582275,-16.698749542236328,-6.076132774353027
1772791464689557000,22.862556884765624,-14.65349006652832,-10.195327758789062,-5.698721885681152
1772791464709659100,22.8826591796875,-17.900394439697266,-6.950413703918457,-5.381465911865234
1772791464729761000,22.902760986328126,-19.972427368164062,-7.4404520988464355,-5.57075309753418
1772791464749863200,22.92286328125,-23.107362747192383,-8.924362182617188,-9.017312049865723
1772791464769965000,22.942965087890624,-26.037830352783203,-8.576414108276367,-15.673171043395996
1772791464790067200,22.963067138671875,-27.813587188720703,-10.217842102050781,-14.479697227478027
1772791464810169000,22.983169189453125,-24.962604522705078,-12.66650390625,-8.140697479248047
1772791464830271200,23.003271240234376,-19.31877899169922,-12.751232147216797,-1.2736496925354004
1772791464850373000,23.023373046875,-16.04747200012207,-10.704977035522461,5.034124851226807
1772791464870475300,23.043475341796874,-16.418241500854492,-7.808605670928955,5.771884918212891
1772791464890577200,23.0635771484375,-17.541873931884766,-5.491960048675537,2.077310562133789
1772791464910679000,23.083678955078124,-16.330745697021484,-7.908934116363525,2.5995049476623535
1772791464930781200,23.10378125,-10.643026351928711,-11.669133186340332,11.960232734680176
1772791464950883000,23.123883056640626,-5.676732063293457,-11.948114395141602,14.863065719604492
1772791464970985200,23.143985107421877,4.1349921226501465,-9.822670936584473,6.215851306915283
1772791464991087000,23.164087158203124,14.947084426879883,-7.056099891662598,4.459147930145264
1772791465011189200,23.184189208984375,22.560470581054688,-4.748510360717773,9.042482376098633
1772791465031291100,23.204291015625,22.680837631225586,-9.34188175201416,15.497383117675781
1772791465051393300,23.224393310546876,20.86432647705078,-24.081600189208984,21.926036834716797
1772791465071495200,23.2444951171875,27.018436431884766,-39.66764450073242,19.378137588500977
1772791465111699200,23.28469921875,18.72882080078125,-37.17677307128906,1.553633213043213
1772791465131801000,23.304801025390624,19.00408172607422,-35.43577194213867,-0.8018136024475098
1772791465151903000,23.324903076171875,17.733184814453125,-34.17223358154297,-0.5418972969055176
1772791465172004400,23.34500439453125,7.198259353637695,-29.88100242614746,3.5984983444213867
1772791465192105700,23.365105712890625,-1.1626129150390625,-29.249086380004883,0.9991393089294434
1772791465212206800,23.385206787109375,-17.76833152770996,-29.15894889831543,-5.5579633712768555
1772791465232308200,23.40530810546875,-31.751527786254883,-24.25902557373047,-15.552984237670898
1772791465252409600,23.42540966796875,-32.142913818359375,-20.373056411743164,-19.508516311645508
1772791465272511000,23.445510986328124,-29.707544326782227,-19.899545669555664,-18.340118408203125
1772791465292612400,23.4656123046875,-28.0369873046875,-20.159564971923828,-18.478425979614258
1772791465312713700,23.485713623046873,-22.374277114868164,-20.01578140258789,-19.501110076904297
1772791465332815000,23.505815185546876,-18.011560440063477,-20.49778938293457,-18.91205596923828
1772791465352916500,23.52591650390625,-16.270353317260742,-21.5291805267334,-16.52184295654297
1772791465373017900,23.546017822265625,-16.83302879333496,-22.053577423095703,-13.631810188293457
1772791465393119200,23.566119140625,-17.155500411987305,-22.772876739501953,-8.225318908691406
1772791465413220600,23.586220703125,-18.80388069152832,-21.809253692626953,6.988101959228516
1772791465433322000,23.606322021484374,-21.623214721679688,-16.696691513061523,22.809823989868164
1772791465453423400,23.62642333984375,-18.283554077148438,-9.745526313781738,17.869321823120117
1772791465473524700,23.646524658203123,-12.013694763183594,-5.8556060791015625,11.079109191894531
1772791465493625900,23.6666259765625,-13.735769271850586,-5.215206146240234,16.128572463989258
1772791465513727200,23.686727294921877,-11.343976974487305,-17.54888153076172,17.00212860107422
1772791465533828600,23.70682861328125,17.905656814575195,-20.946945190429688,3.7900524139404297
1772791465553930000,23.726929931640626,30.747623443603516,-27.905731201171875,10.856782913208008
1772791465574031400,23.74703125,43.16965103149414,-42.09932327270508,25.104455947875977
1772791465594132700,23.7671328125,43.16682434082031,-51.21335220336914,26.197505950927734
1772791465614234000,23.787234130859375,21.307743072509766,-53.16279983520508,16.509685516357422
1772791465634335500,23.80733544921875,12.433238983154297,-42.730892181396484,5.038508415222168
1772791465654436600,23.8274365234375,9.242313385009766,-35.213558197021484,1.1739039421081543
1772791465674537200,23.847537109375,9.679657936096191,-30.27281951904297,2.4415502548217773
1772791465694637800,23.867637939453125,11.51827335357666,-28.439998626708984,7.050797939300537
1772791465714738400,23.887738525390624,4.831686019897461,-33.046627044677734,12.71340560913086
1772791465734839000,23.907839111328126,-10.265519142150879,-40.55621337890625,14.273792266845703
1772791465754940000,23.92793994140625,-30.672222137451172,-41.3610954284668,8.05058765411377
1772791465775040500,23.94804052734375,-43.631954193115234,-30.015125274658203,-1.6399314403533936
1772791465795141000,23.96814111328125,-43.49797058105469,-19.583354949951172,-8.413905143737793
1772791465815241700,23.98824169921875,-40.139347076416016,-17.264183044433594,-10.253303527832031
1772791465835342300,24.00834228515625,-31.246631622314453,-19.74005126953125,-7.111670970916748
1772791465855443000,24.02844287109375,-25.334218978881836,-20.667804718017578,-5.516797065734863
1772791465875543800,24.048543701171877,-23.95479965209961,-20.644378662109375,-3.259714365005493
1772791465895644400,24.06864453125,-22.257659912109375,-19.175556182861328,4.035206317901611
1772791465915745000,24.0887451171875,-21.46585464477539,-17.149959564208984,8.594467163085938
1772791465935845600,24.108845703125,-20.664329528808594,-15.278380393981934,6.899140357971191
1772791465955946200,24.1289462890625,-18.575292587280273,-13.552777290344238,4.549166679382324
1772791465976046800,24.149046875,-16.803756713867188,-14.685020446777344,12.470416069030762
1772791465996147700,24.169147705078124,-16.72449493408203,-19.505207061767578,23.171268463134766
1772791466016248300,24.189248291015623,-12.289352416992188,-25.375125885009766,20.72950553894043
1772791466036349000,24.209348876953126,1.8540515899658203,-27.664941787719727,12.192280769348145
1772791466056449500,24.229449462890624,26.631256103515625,-27.729442596435547,16.642393112182617
1772791466076550100,24.249550048828127,55.54764938354492,-25.531978607177734,21.094318389892578
1772791466096651000,24.269651123046874,42.766517639160156,-34.881500244140625,26.565990447998047
1772791466116751600,24.289751708984376,15.761947631835938,-47.78257751464844,21.022428512573242
1772791466136852200,24.309852294921875,12.259668350219727,-42.99219512939453,5.7311224937438965
1772791466156952800,24.329952880859373,19.959436416625977,-31.177505493164062,-0.29869651794433594
1772791466177053400,24.350053466796876,22.779062271118164,-31.7132625579834,0.8437018394470215
1772791466197154000,24.370154052734375,16.686147689819336,-34.27193069458008,4.633681297302246
1772791466217254700,24.390254638671873,4.376997947692871,-32.590843200683594,6.446752071380615
1772791466237355300,24.410355224609376,-2.759249687194824,-27.832239151000977,2.366161823272705
1772791466257456000,24.4304560546875,-10.36268424987793,-22.856128692626953,-1.3101534843444824
1772791466277556700,24.450556640625,-16.84658432006836,-19.932863235473633,-3.1299734115600586
1772791466297657300,24.4706572265625,-20.663461685180664,-18.502111434936523,-5.138020992279053
1772791466317758000,24.490758056640626,-22.694744110107422,-16.759963989257812,-6.038253307342529
1772791466337858600,24.510858642578125,-24.377656936645508,-15.989423751831055,-6.782395362854004
1772791466357959200,24.530959228515623,-26.870986938476562,-14.688643455505371,-7.74704647064209
1772791466378059800,24.551059814453126,-26.06175422668457,-13.961986541748047,-8.143461227416992
1772791466398160400,24.571160400390625,-22.50198745727539,-13.866716384887695,-5.495716094970703
1772791466418261200,24.59126123046875,-20.25595474243164,-13.130197525024414,-1.0430481433868408
1772791466438361900,24.61136181640625,-18.80302619934082,-12.169496536254883,0.3452475070953369
1772791466458468400,24.63146826171875,-19.178943634033203,-11.33791732788086,-1.5408637523651123
1772791466478568200,24.651568115234376,-19.537296295166016,-11.373984336853027,-3.4739789962768555
1772791466498668800,24.671668701171875,-16.57421112060547,-10.978456497192383,-0.26920294761657715
1772791466518769700,24.691769775390625,-12.995489120483398,-9.19335651397705,5.810899257659912
1772791466538870300,24.711870361328124,-11.35147476196289,-7.459651947021484,7.915393352508545
1772791466558971000,24.731970947265626,-12.149068832397461,-7.852182865142822,7.906461715698242
1772791466579071500,24.752071533203125,-9.437761306762695,-11.538444519042969,9.867300033569336
1772791466599172000,24.772172119140624,-3.8850278854370117,-15.329172134399414,11.873422622680664
1772791466619272700,24.792272705078126,2.466041088104248,-17.879295349121094,13.99579906463623
1772791466639373300,24.812373291015625,19.9959716796875,-21.115123748779297,14.266963958740234
1772791466659475200,24.83247509765625,42.894371032714844,-24.20075225830078,15.64179801940918
1772791466679577900,24.852577880859375,40.81843948364258,-32.947357177734375,18.586254119873047
1772791466699680500,24.872680419921874,21.484281539916992,-42.780643463134766,16.894630432128906
1772791466719783200,24.892783203125,14.861404418945312,-37.85187530517578,8.768583297729492
1772791466739885600,24.912885498046876,20.724790573120117,-32.156707763671875,6.052560806274414
1772791466759988200,24.93298828125,22.398317337036133,-35.728759765625,8.484724044799805
1772791466780091000,24.9530908203125,11.875715255737305,-36.92976379394531,12.797886848449707
1772791466800193500,24.973193603515625,2.523569107055664,-33.586463928222656,11.362972259521484
1772791466820296000,24.9932958984375,-3.5365800857543945,-29.5402889251709,5.12565803527832
1772791466840398600,25.013398681640624,-13.392477989196777,-25.598819732666016,-0.11798763275146484
1772791466860501200,25.033501220703126,-21.60560417175293,-19.86419677734375,-5.458787441253662
1772791466880604000,25.05360400390625,-26.781333923339844,-16.360090255737305,-8.600621223449707
1772791466900706300,25.073706298828125,-27.259183883666992,-13.782958984375,-9.876802444458008
1772791466920809000,25.09380908203125,-25.804340362548828,-12.506632804870605,-13.40085220336914
1772791466940911600,25.11391162109375,-24.069568634033203,-12.892267227172852,-17.242891311645508
1772791466961014300,25.13401416015625,-24.59484100341797,-13.576879501342773,-18.741153717041016
1772791466981116700,25.15411669921875,-25.966041564941406,-13.479707717895508,-19.09172821044922
1772791467001219300,25.17421923828125,-25.860137939453125,-14.253162384033203,-17.187206268310547
1772791467021322000,25.194322021484375,-22.244949340820312,-15.824531555175781,-13.876365661621094
1772791467041424600,25.214424560546874,-16.672225952148438,-16.296470642089844,-9.24987506866455
1772791467061527000,25.234527099609377,-16.211755752563477,-14.212775230407715,-2.226646900177002
1772791467081629700,25.254629638671876,-18.343830108642578,-11.214266777038574,5.625717639923096
1772791467101732400,25.274732421875,-19.214433670043945,-8.366070747375488,5.442246437072754
1772791467121835000,25.2948349609375,-18.848918914794922,-7.838174819946289,5.00568151473999
1772791467141937400,25.3149375,-18.00355339050293,-11.540058135986328,13.031970977783203
1772791467162038800,25.335038818359376,-6.822006702423096,-18.049951553344727,17.44708251953125
1772791467182139600,25.3551396484375,13.306168556213379,-22.583301544189453,18.328832626342773
1772791467202240800,25.37524072265625,30.04013442993164,-22.295501708984375,21.978717803955078
1772791467222342000,25.395341796875,33.089752197265625,-26.363384246826172,23.495954513549805
1772791467242442800,25.41544287109375,25.791954040527344,-37.00400161743164,19.14366340637207
1772791467262544000,25.4355439453125,15.204320907592773,-38.635135650634766,9.435966491699219
1772791467282644700,25.455644775390624,17.808326721191406,-33.82589340209961,4.153164863586426
1772791467302745900,25.475745849609375,29.629627227783203,-33.35611343383789,5.550211429595947
1772791467322847000,25.495846923828125,30.561756134033203,-34.286407470703125,9.429994583129883
1772791467342947800,25.51594775390625,16.292570114135742,-36.41158676147461,13.316743850708008
1772791467383150000,25.556150146484374,-1.768089771270752,-38.10773849487305,5.76308012008667
1772791467403251000,25.5762509765625,-16.615480422973633,-35.85050964355469,-1.113914966583252
1772791467423352000,25.59635205078125,-29.75933837890625,-30.591827392578125,-6.011753559112549
1772791467443453000,25.616452880859374,-37.95219802856445,-25.378189086914062,-7.066641807556152
1772791467463554000,25.636553955078124,-40.32661056518555,-17.773204803466797,-12.640982627868652
1772791467483655200,25.6566552734375,-34.367454528808594,-14.742679595947266,-14.736854553222656
1772791467503756000,25.676756103515626,-25.153392791748047,-15.695087432861328,-11.588680267333984
1772791467523857200,25.696857177734376,-23.182619094848633,-15.808904647827148,-9.374286651611328
1772791467543958000,25.7169580078125,-24.670021057128906,-15.155654907226562,-7.260078430175781
1772791467564059100,25.73705908203125,-23.845788955688477,-14.75405502319336,-5.80027437210083
1772791467584160000,25.757159912109376,-17.234912872314453,-14.520798683166504,-1.5391883850097656
1772791467604261000,25.77726123046875,-11.42956256866455,-11.987064361572266,4.8132476806640625
1772791467624362200,25.7973623046875,-11.833419799804688,-8.69577407836914,6.769344329833984
1772791467644463000,25.817463134765624,-14.912823677062988,-6.4921875,5.406790256500244
1772791467664564000,25.83756396484375,-15.050439834594727,-5.256430149078369,5.6495232582092285
1772791467684664800,25.857664794921874,-11.383848190307617,-4.5308427810668945,7.996933937072754
1772791467704765700,25.877765625,-9.313146591186523,-4.286978721618652,11.62678337097168
1772791467724866600,25.897866455078123,-9.576469421386719,-5.820770263671875,13.759807586669922
1772791467744967700,25.9179677734375,-10.458782196044922,-12.525355339050293,16.710437774658203
1772791467765068500,25.938068603515624,-10.69095230102539,-29.950138092041016,20.74298095703125
1772791467785169400,25.95816943359375,12.551992416381836,-54.150413513183594,23.085886001586914
1772791467805270300,25.978270263671874,62.614402770996094,-56.37062454223633,22.16640853881836
1772791467825371100,25.99837109375,62.1125602722168,-43.09328842163086,15.753741264343262
1772791467845472000,26.018471923828123,19.350990295410156,-40.262271881103516,13.650677680969238
1772791467865572900,26.03857275390625,9.46561336517334,-37.88206481933594,9.319832801818848
1772791467885673700,26.058673828125,14.033122062683105,-31.181657791137695,6.77182674407959
1772791467905774600,26.078774658203123,12.271484375,-24.839176177978516,7.4316511154174805
1772791467925875500,26.09887548828125,10.216411590576172,-24.080825805664062,7.4666924476623535
1772791467945976300,26.118976318359376,-0.22536849975585938,-27.114036560058594,8.45556640625
1772791467966077200,26.1390771484375,-11.073423385620117,-27.841238021850586,4.442200660705566
1772791467986178000,26.159177978515626,-17.442230224609375,-27.425617218017578,-2.7277169227600098
1772791468026379800,26.1993798828125,-28.97256851196289,-21.367961883544922,-10.265107154846191
1772791468066581500,26.23958154296875,-24.347726821899414,-15.828054428100586,-10.821247100830078
1772791468086682400,26.259682373046875,-19.931137084960938,-16.925498962402344,-10.295714378356934
1772791468106783200,26.279783203125,-17.05078887939453,-17.282670974731445,-9.66470718383789
1772791468126884000,26.299884033203124,-15.92328929901123,-16.86035919189453,-8.292369842529297
1772791468146985000,26.31998486328125,-16.054611206054688,-15.679330825805664,-7.77569055557251
1772791468167086000,26.340086181640626,-16.327350616455078,-14.80972671508789,-7.329193592071533
1772791468187187200,26.360187255859376,-15.486417770385742,-14.450284004211426,-5.405376434326172
1772791468227389700,26.4003896484375,-12.13978099822998,-11.616220474243164,2.8681998252868652
1772791468247490800,26.42049072265625,-14.805084228515625,-10.111604690551758,2.1493897438049316
1772791468267592000,26.440592041015623,-15.942391395568848,-8.904629707336426,1.2058353424072266
1772791468287693000,26.460693115234374,-10.897008895874023,-11.548623085021973,4.169768810272217
1772791468307794200,26.480794189453125,9.474284172058105,-16.360395431518555,18.04567527770996
1772791468327895300,26.500895263671875,25.160682678222656,-11.802921295166016,24.33709716796875
1772791468347996400,26.520996337890626,16.625835418701172,-13.873220443725586,16.21564292907715
1772791468368097500,26.54109765625,20.36960792541504,-13.635873794555664,9.89874267578125
1772791468388198700,26.56119873046875,40.608009338378906,-12.532618522644043,5.044078826904297
1772791468408300000,26.581300048828126,32.76750564575195,-8.025074005126953,0.6292133331298828
1772791468428401200,26.601401123046877,9.183963775634766,-2.3602943420410156,-0.03125929832458496
1772791468448502300,26.621502197265624,7.546372413635254,0.3143935203552246,2.121455192565918
1772791468468603400,26.641603271484374,11.243599891662598,0.6778545379638672,3.185182571411133
1772791468488704500,26.66170458984375,5.937461853027344,1.2682042121887207,2.827061176300049
