time,seconds_elapsed,z,y,x
1772791442053059300,0.226059326171875,0.2996053695678711,-0.0378168560564518,-0.9484840035438538
1772791442073160400,0.246160400390625,0.32863378524780273,0.41891488432884216,-0.7032070755958557
1772791442093261800,0.26626171875,0.4095938205718994,-0.2934800982475281,-0.40147119760513306
1772791442113363200,0.28636328125,0.8226497769355774,-0.4090611934661865,-0.31678274273872375
1772791442133464600,0.306464599609375,1.2319772243499756,-0.3776359260082245,-0.08162581920623779
1772791442153566000,0.32656591796875,0.530767560005188,-0.9182571768760681,-0.8627303242683411
1772791442173667300,0.346667236328125,0.011185267008841038,-1.5821826457977295,-1.6113442182540894
1772791442193768400,0.3667685546875,0.21411797404289246,-0.7254444360733032,-1.5359768867492676
1772791442213869800,0.386869873046875,0.17496953904628754,-0.016777900978922844,-0.8776440024375916
1772791442233971200,0.40697119140625,-0.19680742919445038,0.7566034197807312,-0.5101280808448792
1772791442254072600,0.427072509765625,-0.8884297609329224,0.9488834738731384,-0.04460791125893593
1772791442274174000,0.447174072265625,-2.1190755367279053,0.4077296257019043,0.9239829778671265
1772791442294275300,0.467275390625,-2.1387827396392822,1.7417058944702148,1.1373019218444824
1772791442314376700,0.487376708984375,-2.0093533992767334,2.6306681632995605,0.8233155608177185
1772791442334477800,0.507477783203125,-2.1795291900634766,2.508695602416992,1.092028260231018
1772791442354579200,0.5275791015625,-2.0082881450653076,1.4442310333251953,0.8384955525398254
1772791442374680600,0.5476806640625,-2.070073366165161,-1.1496856212615967,0.450206995010376
1772791442394782000,0.567781982421875,-2.4181482791900635,-1.7512931823730469,-0.12929636240005493
1772791442414883300,0.58788330078125,-2.5899219512939453,0.5550022721290588,-0.43369540572166443
1772791442434984700,0.607984619140625,-2.4216103553771973,1.2245204448699951,-0.4150533080101013
1772791442455086000,0.628086181640625,-2.2261345386505127,-0.3355579972267151,-0.380698561668396
1772791442475187200,0.648187255859375,-2.7659566402435303,-1.527055263519287,0.01717737503349781
1772791442495288600,0.66828857421875,-3.6570496559143066,-1.137701392173767,0.4078627824783325
1772791442515390000,0.688389892578125,-3.516434907913208,-0.28495800495147705,0.36605116724967957
1772791442535491300,0.7084912109375,-3.11722731590271,-0.22184112668037415,0.7223818302154541
1772791442555592700,0.7285927734375,-3.338535785675049,1.1342393159866333,1.1532809734344482
1772791442575694000,0.748694091796875,-3.777158260345459,1.8887122869491577,1.3114725351333618
1772791442595795500,0.76879541015625,-3.469829559326172,0.7187865376472473,1.1349050998687744
1772791442615896600,0.788896484375,-2.9225504398345947,-0.6767086386680603,1.1484872102737427
1772791442635998000,0.808998046875,-2.808034658432007,-0.7787076234817505,0.6861628890037537
1772791442656100000,0.82910009765625,-2.7308030128479004,-1.063931941986084,-0.2376869171857834
1772791442676202500,0.849202392578125,-2.767021894454956,0.018642112612724304,-0.21904481947422028
1772791442696305000,0.869304931640625,-3.0415937900543213,-0.3861580193042755,-0.39135119318962097
1772791442716407000,0.889406982421875,-3.388070583343506,-0.392549604177475,-0.2376869171857834
1772791442736509400,0.909509521484375,-3.148918867111206,0.4724443852901459,0.0954742431640625
1772791442756611600,0.929611572265625,-2.4687483310699463,0.915061354637146,0.14580795168876648
1772791442776714000,0.9497138671875,-2.057556390762329,0.7254444360733032,0.05819002166390419
1772791442796816100,0.969816162109375,-1.7124111652374268,0.1560611128807068,0.13195951282978058
1772791442816918500,0.98991845703125,-1.7116122245788574,-0.805871844291687,0.24274691939353943
1772791442837021000,1.01002099609375,-2.2429122924804688,-1.5515563488006592,0.14900372922420502
1772791442857123000,1.030123046875,-2.9020440578460693,-1.3014856576919556,-0.1442100554704666
1772791442877225500,1.0502255859375,-2.713758945465088,-1.0455561876296997,-0.4257059395313263
1772791442897327600,1.07032763671875,-1.9739333391189575,-1.0410287380218506,-0.14873741567134857
1772791442917430000,1.090429931640625,-1.1936278343200684,-1.2428961992263794,0.2874879837036133
1772791442937532400,1.110532470703125,-0.8442213535308838,-1.267663598060608,0.4209122359752655
1772791442957634600,1.130634521484375,-0.8865655660629272,-0.8404929041862488,0.11038793623447418
1772791442977737000,1.150737060546875,-0.8538087010383606,-0.023968428373336792,-0.3740406632423401
1772791442997839000,1.170839111328125,-0.5480780601501465,0.4029359221458435,-0.699212372303009
1772791443017941500,1.19094140625,-0.16245268285274506,0.8985497951507568,-0.5892238616943359
1772791443038044000,1.2110439453125,-0.008788423612713814,0.9699224233627319,-0.3032006323337555
1772791443058146000,1.23114599609375,-0.11478214710950851,0.719319224357605,-0.29387956857681274
1772791443078248400,1.25124853515625,-0.1459411084651947,0.4119906723499298,-0.5609943866729736
1772791443098350600,1.2713505859375,-0.10439582169055939,0.11664635688066483,-0.8776440024375916
1772791443118453000,1.291452880859375,-0.12170635908842087,-0.03994738310575485,-0.9378314018249512
1772791443138555100,1.31155517578125,-0.11025477200746536,-0.06977476179599762,-0.6328997015953064
1772791443158656800,1.33165673828125,-0.2090579718351364,-0.24927166104316711,-0.2683132588863373
1772791443178758100,1.351758056640625,-0.47350963950157166,-0.6053360104560852,-0.15752583742141724
1772791443198859800,1.37185986328125,-0.4282359480857849,-0.24154850840568542,0.047537386417388916
1772791443218961200,1.391961181640625,-0.1363537311553955,0.5107938647270203,0.2366216629743576
1772791443239062800,1.412062744140625,-0.14620742201805115,0.5984117984771729,0.3514038026332855
1772791443259164200,1.4321640625,-0.505733847618103,0.11504846066236496,0.22170796990394592
1772791443279265800,1.452265869140625,-0.7494128942489624,0.21145480871200562,0.056059494614601135
1772791443299367200,1.4723671875,-0.10705898702144623,1.163267731666565,0.46432173252105713
1772791443319468800,1.49246875,0.39494645595550537,1.6599469184875488,1.0033451318740845
1772791443339570200,1.512570068359375,0.009054739959537983,0.7187865376472473,1.0193240642547607
1772791443359671800,1.532671875,-0.21864533424377441,-0.7044054865837097,0.1687111109495163
1772791443379773200,1.552773193359375,0.10359688103199005,-1.168327808380127,-0.6275733709335327
1772791443399874800,1.572874755859375,0.46019384264945984,-0.22503691911697388,-0.1687111109495163
1772791443419976200,1.59297607421875,0.629570722579956,0.1272989958524704,0.6209154725074768
1772791443440077800,1.613077880859375,0.5917539000511169,-0.8042739629745483,0.6736460328102112
1772791443460179200,1.63317919921875,-0.07936213165521622,-1.3393025398254395,0.10692582279443741
1772791443480280800,1.65328076171875,-0.14460952579975128,-0.6045370697975159,-0.47284385561943054
1772791443500382200,1.67338232421875,0.28362640738487244,0.34860748052597046,-0.30000483989715576
1772791443520483800,1.69348388671875,0.5731117725372314,0.8346339464187622,0.672314465045929
1772791443540585200,1.713585205078125,0.6061349511146545,0.7084002494812012,1.5444989204406738
1772791443560686800,1.733686767578125,0.5944170355796814,-0.06897581368684769,1.8057547807693481
1772791443580788200,1.753788330078125,0.6468812823295593,-0.6511423587799072,1.2331756353378296
1772791443600889900,1.773889892578125,0.9121319055557251,-0.32996538281440735,0.8707197904586792
1772791443620991200,1.7939912109375,0.9283771514892578,-0.19228006899356842,0.7482144832611084
1772791443641092600,1.814092529296875,0.31984537839889526,-1.0881667137145996,0.5103943943977356
1772791443661193000,1.83419287109375,-0.223439022898674,-0.9744498133659363,0.07070686668157578
1772791443681293300,1.854293212890625,-0.2101232260465622,0.16378426551818848,-0.15379741787910461
1772791443701393700,1.8743935546875,0.06444844603538513,0.8298403024673462,0.10532793402671814
1772791443721494300,1.894494384765625,0.07137265801429749,0.4069306552410126,0.5127912163734436
1772791443741594600,1.9145947265625,-0.30120325088500977,-0.2862895727157593,0.5255743861198425
1772791443761695000,1.934695068359375,-0.6910896897315979,-0.17363795638084412,0.1213068813085556
1772791443781795300,1.95479541015625,-0.7044054865837097,0.4540685713291168,-0.016644742339849472
1772791443801895700,1.974895751953125,-0.5123917460441589,0.5946833491325378,0.24541008472442627
1772791443821996000,1.99499609375,-0.5038696527481079,-0.41172435879707336,0.492284893989563
1772791443842096400,2.015096435546875,-0.730238139629364,-1.5504910945892334,0.3255711793899536
1772791443862196700,2.03519677734375,-0.572845458984375,-1.2058782577514648,0.044874224811792374
1772791443882297300,2.05529736328125,-0.09800424426794052,-0.005326317623257637,-0.6334323287010193
1772791443902397700,2.075397705078125,-0.28362640738487244,0.3560643196105957,-1.3498220443725586
1772791443922498000,2.095498046875,-0.2745716869831085,0.845552921295166,-1.2598072290420532
1772791443942598400,2.115598388671875,0.07217160612344742,1.160338282585144,-1.0313082933425903
1772791443962698800,2.13569873046875,-0.1435442566871643,0.4316980540752411,-1.3223915100097656
1772791443982799000,2.155799072265625,-0.22237375378608704,-0.30759483575820923,-1.3895031213760376
1772791444002899500,2.1758994140625,0.16964322328567505,0.05672528222203255,-0.5511407256126404
1772791444022999800,2.195999755859375,0.6178528666496277,0.16005584597587585,-0.09201213717460632
1772791444043100400,2.216100341796875,0.3637875020503998,-1.3579447269439697,-0.8792418837547302
1772791444063200800,2.23620068359375,-0.1861547976732254,-2.3393187522888184,-1.4307820796966553
1772791444083301000,2.256301025390625,0.11957582831382751,-1.480716347694397,-0.47470805048942566
1772791444103401500,2.2764013671875,1.0631330013275146,-0.6588655114173889,0.6728470921516418
1772791444123501800,2.296501708984375,0.7041391730308533,-0.6700507402420044,1.114665150642395
1772791444143602400,2.3166025390625,-0.6119939088821411,-0.791224479675293,0.7804386615753174
1772791444163703000,2.336703125,-1.212269902229309,-0.4671180546283722,-0.12689951062202454
1772791444183803600,2.3568037109375,-0.6852307915687561,0.3451453745365143,-0.23875218629837036
1772791444203904500,2.376904541015625,0.09028108417987823,0.608798086643219,0.5391564965248108
1772791444224005000,2.397005126953125,0.29747483134269714,0.20586217939853668,1.1112029552459717
1772791444244105700,2.417105712890625,-0.23142850399017334,-0.10013477504253387,1.0539450645446777
1772791444264206600,2.43720654296875,-0.4540685713291168,-0.27883273363113403,0.4779038429260254
1772791444284307200,2.45730712890625,-0.38828855752944946,-0.5302349328994751,-0.11757846176624298
1772791444304407800,2.47740771484375,-0.030892642214894295,-0.7712507843971252,-0.5657880902290344
1772791444324508700,2.4975087890625,0.2841590344905853,-0.5739107131958008,-0.7263765931129456
1772791444344609300,2.517609375,0.11371687799692154,-0.23089586198329926,-0.567918598651886
1772791444364710000,2.5377099609375,-0.24341271817684174,0.033289484679698944,-0.2126532346010208
1772791444384810800,2.557810791015625,-0.36005908250808716,0.19174742698669434,-0.08668582141399384
1772791444404911400,2.577911376953125,-0.2929474711418152,0.30173590779304504,-0.26751428842544556
1772791444425012000,2.598011962890625,-0.051132649183273315,0.7145255208015442,-0.3519364297389984
1772791444445112800,2.61811279296875,0.006391581147909164,0.9725856184959412,-0.2209090292453766
1772791444465213400,2.63821337890625,-0.3038664162158966,0.7728486657142639,-0.0930773988366127
1772791444485314000,2.65831396484375,-0.49135279655456543,0.25619587302207947,-0.17217321693897247
1772791444505414700,2.67841455078125,-0.388022243976593,-0.08335687220096588,-0.38709014654159546
1772791444525515500,2.698515625,-0.1459411084651947,0.33103063702583313,-0.23821955919265747
1772791444545616100,2.7186162109375,-0.16911058127880096,1.0572741031646729,0.16498269140720367
1772791444565716700,2.738716796875,-0.49694544076919556,0.7693865895271301,-0.015579478815197945
1772791444585817600,2.758817626953125,0.22050954401493073,0.8016108274459839,-0.23608903586864471
1772791444605918200,2.778918212890625,0.6700507402420044,1.2918983697891235,-0.7886945009231567
1772791444626018800,2.799018798828125,-0.2426137626171112,0.8162581920623779,-1.0147966146469116
1772791444646120000,2.819119873046875,-0.5701823234558105,-0.3603253960609436,-1.34076726436615
1772791444666221300,2.83922119140625,0.2575274705886841,-1.133440375328064,-1.0089377164840698
1772791444686322700,2.85932275390625,1.2223899364471436,-0.18588848412036896,0.49627965688705444
1772791444706424000,2.879424072265625,1.0293108224868774,-0.27110958099365234,1.0691250562667847
1772791444726525400,2.899525390625,0.527039110660553,-0.342215895652771,0.27097639441490173
1772791444746626800,2.919626708984375,0.8817718625068665,0.4143875241279602,0.156194269657135
1772791444766728200,2.939728271484375,1.1086729764938354,0.24181482195854187,0.9902955889701843
1772791444786829600,2.95982958984375,0.8775108456611633,-0.6010749340057373,0.9913608431816101
1772791444806931000,2.979930908203125,0.5344959497451782,-0.8436887264251709,0.05739107355475426
1772791444827032300,3.0000322265625,0.388022243976593,-0.2767021954059601,-0.01584579423069954
1772791444847133700,3.0201337890625,0.5494096875190735,0.08016107976436615,0.7865639328956604
1772791444867235000,3.040235107421875,0.457530677318573,-0.07403581589460373,1.0531461238861084
1772791444887336700,3.060336669921875,0.29640957713127136,-0.32277485728263855,0.8483492136001587
1772791444907437800,3.080437744140625,0.04846949130296707,-0.26924535632133484,0.23582270741462708
1772791444927539500,3.10053955078125,-0.5174517631530762,0.09986845403909683,-0.8017439842224121
1772791444947640800,3.120640869140625,-0.7084002494812012,0.7677887082099915,-1.4443641901016235
1772791444967742200,3.1407421875,-0.5012065172195435,0.7933549880981445,-1.3117388486862183
1772791444987843600,3.160843505859375,-0.371244341135025,0.23702113330364227,-0.456332266330719
1772791445007945000,3.180945068359375,-0.5067991018295288,-0.38189697265625,0.26272061467170715
1772791445028046300,3.20104638671875,-0.5909549593925476,-0.7153244614601135,0.26804694533348083
1772791445048147700,3.221147705078125,-0.21305270493030548,-0.3547327518463135,-0.11624687910079956
1772791445068249000,3.2412490234375,-0.09853687882423401,-0.09507477283477783,-0.49920910596847534
1772791445088350500,3.2613505859375,-0.3043990433216095,0.12197267264127731,-0.4893554449081421
1772791445108451800,3.281451904296875,-0.6585991978645325,0.07297055423259735,-0.09707213938236237
1772791445128553200,3.30155322265625,-0.927311897277832,0.04340948909521103,0.3279680013656616
1772791445148655400,3.3216552734375,-0.6098633408546448,0.37976643443107605,0.2834932506084442
1772791445168758300,3.34175830078125,-0.41891488432884216,0.7329013347625732,-0.11598056554794312
1772791445188861200,3.361861083984375,-0.90281081199646,1.344628930091858,-0.15273216366767883
1772791445208964000,3.381964111328125,-0.26578325033187866,1.9158765077590942,-0.06138581037521362
1772791445229067000,3.40206689453125,0.013049477711319923,0.9856351017951965,-0.7197186946868896
1772791445249170000,3.422169921875,-0.6157222986221313,-1.0183919668197632,-1.6651400327682495
1772791445269272800,3.44227294921875,-0.539289653301239,-1.386174201965332,-1.741839051246643
1772791445289375700,3.462375732421875,0.21598218381404877,-0.5869601964950562,0.017443690448999405
1772791445309478700,3.482478759765625,0.34088432788848877,0.10066740214824677,1.5128073692321777
1772791445329581600,3.50258154296875,-0.13528846204280853,-0.7970834374427795,0.5854954719543457
1772791445349684500,3.5226845703125,-0.6154559850692749,-0.6649907827377319,-0.7548723816871643
1772791445369787100,3.542787109375,-0.15819163620471954,0.3464769721031189,-0.19614164531230927
1772791445389890000,3.56289013671875,0.6378265619277954,-0.25300008058547974,1.27125883102417
1772791445409993000,3.582992919921875,0.6032054424285889,-1.9382469654083252,1.5578147172927856
1772791445430096000,3.603095947265625,-0.04873580485582352,-2.08365535736084,0.2744385302066803
1772791445450198800,3.62319873046875,-0.4753738343715668,-0.8580697774887085,-0.5386238694190979
1772791445470301700,3.6433017578125,-0.13235899806022644,-0.002130527049303055,0.5293028354644775
1772791445490404600,3.663404541015625,0.16911058127880096,-0.3312969505786896,1.797232747077942
1772791445510507500,3.683507568359375,-0.10226529836654663,-0.5041359663009644,1.9815232753753662
1772791445530610400,3.7036103515625,-0.4703138470649719,-0.034621063619852066,1.0587388277053833
1772791445550713000,3.723713134765625,-0.8532760739326477,0.6261086463928223,-0.13169319927692413
1772791445570816000,3.74381591796875,-0.7938876152038574,0.8452866077423096,-0.6206491589546204
1772791445590919000,3.7639189453125,-0.49321702122688293,0.5952159762382507,-0.19081532955169678
1772791445611021800,3.784021728515625,-0.6005423069000244,0.28362640738487244,0.7918902635574341
1772791445631124700,3.804124755859375,-0.9555413722991943,0.04340948909521103,1.253149390220642
1772791445651227100,3.82422705078125,-1.0942919254302979,-0.029028430581092834,0.9831050634384155
1772791445671329300,3.844329345703125,-0.69428551197052,0.14301162958145142,0.531965970993042
1772791445691431400,3.864431396484375,-0.5313001871109009,0.08096002787351608,0.23635534942150116
1772791445711533600,3.884533447265625,-0.9392961263656616,0.18269269168376923,0.25739431381225586
1772791445731636000,3.904635986328125,-1.0221203565597534,0.5097286105155945,0.30107009410858154
1772791445751738000,3.924738037109375,-0.6801707744598389,0.4655201733112335,0.3151848316192627
1772791445771840300,3.94484033203125,-0.600275993347168,-0.12863056361675262,0.4454133212566376
1772791445791942400,3.9649423828125,-0.6737791895866394,-0.339819073677063,0.36951327323913574
1772791445812044500,3.98504443359375,-0.627173900604248,0.3451453745365143,-0.22596903145313263
1772791445832147000,4.00514697265625,-0.37976643443107605,0.7917571067810059,-0.4384891092777252
1772791445852249000,4.0252490234375,-0.3038664162158966,0.2700442969799042,-0.4808333218097687
1772791445872351200,4.045351318359375,-0.1387505680322647,0.527039110660553,-1.2033482789993286
1772791445892453400,4.065453369140625,-0.21278639137744904,0.675909698009491,-2.216413974761963
1772791445932658000,4.105657958984375,0.388022243976593,0.5800359845161438,-1.184173583984375
1772791445952760000,4.125760009765625,1.2836425304412842,0.42370855808258057,0.8933566212654114
1772791445972862200,4.1458623046875,1.4966952800750732,-1.6516910791397095,1.303216814994812
1772791445992964400,4.16596435546875,1.2431625127792358,-2.244243860244751,0.6502102017402649
1772791446013066500,4.18606640625,0.9752487540245056,-0.6157222986221313,0.08056055754423141
1772791446033169000,4.2061689453125,1.24955415725708,0.3283674716949463,0.12050793319940567
1772791446053271000,4.22627099609375,1.7763268947601318,-0.33662328124046326,0.28615641593933105
1772791446073373200,4.246373291015625,1.1147983074188232,-1.676458477973938,0.39721015095710754
1772791446093475300,4.266475341796875,0.289485365152359,-1.5504910945892334,-0.19800585508346558
1772791446113577500,4.286577392578125,0.3243727385997772,-0.14727267622947693,-0.44701120257377625
1772791446133679600,4.3066796875,0.7195855379104614,0.9219855666160583,-0.08002792298793793
1772791446153781000,4.326781005859375,0.7685876488685608,0.9161266088485718,0.38096487522125244
1772791446173882000,4.346882080078125,0.5006738305091858,0.5379580855369568,0.4496743679046631
1772791446193983200,4.366983154296875,0.40852856636047363,0.21038953959941864,0.09733845293521881
1772791446214084400,4.38708447265625,0.5446159839630127,0.2679137885570526,-0.2107890248298645
1772791446234185500,4.407185546875,0.696682333946228,0.6463486552238464,-0.25899219512939453
1772791446254286600,4.42728662109375,0.5107938647270203,0.614923357963562,0.022770008072257042
1772791446274387700,4.4473876953125,0.016777900978922844,0.12809793651103973,0.500806987285614
1772791446294488800,4.46748876953125,-0.4335622489452362,-0.39734330773353577,0.655802845954895
1772791446314590000,4.48758984375,-0.4503401517868042,-0.455133855342865,0.315717488527298
1772791446334691000,4.507691162109375,-0.1177116185426712,0.019973691552877426,-0.01584579423069954
1772791446354792200,4.527792236328125,-0.036485277116298676,0.2354232370853424,-0.07976160943508148
1772791446374893300,4.547893310546875,-0.3374222218990326,-0.0026631588116288185,-0.005992107093334198
1772791446394994400,4.567994384765625,-0.6972149610519409,-0.3661843240261078,-0.04727106913924217
1772791446415095300,4.58809521484375,-0.8929571509361267,-0.5363602042198181,-0.2504700720310211
1772791446435196400,4.608196533203125,-0.4348938465118408,-0.09747160971164703,-0.33169642090797424
1772791446455297500,4.628297607421875,0.23861902952194214,0.2564621865749359,0.1380847841501236
1772791446475398700,4.648398681640625,0.158457949757576,-0.3507380187511444,0.4715122580528259
1772791446495499800,4.668499755859375,-0.2804306149482727,-0.021038955077528954,-0.341017484664917
1772791446515601000,4.688600830078125,-0.1747032105922699,0.8921582102775574,-1.7362463474273682
1772791446535702000,4.708701904296875,0.16831164062023163,0.6056023240089417,-1.8699369430541992
1772791446555803100,4.72880322265625,0.09001477062702179,-0.19307900965213776,-0.6379597187042236
1772791446575904300,4.748904296875,0.061518967151641846,0.3475422263145447,0.4978775382041931
1772791446596005400,4.76900537109375,-0.05805686116218567,0.2913495600223541,0.3466101288795471
1772791446616106500,4.7891064453125,-0.24660851061344147,-0.16138742864131927,-0.6957502365112305
1772791446636207600,4.80920751953125,-0.40666434168815613,0.36591801047325134,-1.0033451318740845
1772791446656309200,4.829309326171875,-0.6652570962905884,0.25300008058547974,-0.5759080648422241
1772791446676411000,4.849410888671875,0.15206636488437653,-0.223439022898674,0.45180490612983704
1772791446696512800,4.8695126953125,0.5044022798538208,-1.5656710863113403,1.4845778942108154
1772791446716614400,4.889614501953125,0.009054739959537983,-1.796034336090088,1.5594125986099243
1772791446736716300,4.90971630859375,-0.36671698093414307,-1.2389014959335327,1.045156717300415
1772791446756818200,4.929818115234375,0.003994738217443228,-0.7456844449043274,0.8805734515190125
1772791446776919800,4.949919921875,0.4522043764591217,-0.26631587743759155,0.6344975829124451
1772791446797021700,4.970021728515625,0.4966791272163391,-0.16405057907104492,0.16498269140720367
1772791446817123300,4.990123291015625,0.037550538778305054,0.16857795417308807,-0.2898848354816437
1772791446837225000,5.010224853515625,-0.6564686298370361,0.6655234098434448,-0.5745764970779419
1772791446857326800,5.030326904296875,-0.7680550217628479,1.0482193231582642,-0.519715428352356
1772791446877428700,5.0504287109375,-0.25726112723350525,1.0349035263061523,0.04114580526947975
1772791446897530400,5.0705302734375,0.20692743360996246,0.24474430084228516,0.884035587310791
1772791446917632300,5.09063232421875,0.16351795196533203,-0.49268439412117004,1.3106735944747925
1772791446937734000,5.11073388671875,-0.15925689041614532,-0.49401596188545227,0.9540766477584839
1772791446957835800,5.130835693359375,-0.2034653276205063,0.08788423985242844,0.3127880096435547
1772791446977937400,5.1509375,-0.1038631945848465,0.5257075428962708,0.08082687109708786
1772791447018141000,5.191140869140625,-0.24208113551139832,0.32756853103637695,0.5812343955039978
1772791447038242800,5.211242919921875,-0.30759483575820923,-0.024234745651483536,0.7617965936660767
1772791447058344400,5.231344482421875,-0.15686005353927612,-0.22477060556411743,0.6587323546409607
1772791447078446300,5.2514462890625,0.11078740656375885,-0.046871595084667206,0.42650488018989563
1772791447098548000,5.2715478515625,0.3009369373321533,0.6974812746047974,0.3615238070487976
1772791447118649900,5.29164990234375,0.8420908451080322,1.4373067617416382,0.6062681078910828
1772791447138751500,5.31175146484375,0.31851378083229065,0.13608741760253906,-1.6608790159225464
1772791447158852000,5.33185205078125,-0.6157222986221313,-0.9997498393058777,-3.5061817169189453
1772791447178952700,5.35195263671875,0.6572675704956055,0.8293076753616333,-1.0936261415481567
1772791447199053600,5.372053466796875,2.075932264328003,0.11638004332780838,1.8965685367584229
1772791447219154200,5.392154296875,2.1675448417663574,-1.7462332248687744,2.0382485389709473
1772791447239254800,5.4122548828125,1.4913688898086548,-1.4229257106781006,0.4874912202358246
1772791447259355400,5.43235546875,0.7914907932281494,0.7741802930831909,0.035819485783576965
1772791447279456300,5.452456298828125,0.6034718155860901,1.0942919254302979,0.506932258605957
1772791447299556900,5.472556884765625,0.648479163646698,-0.578970730304718,1.6230621337890625
1772791447319657500,5.492657470703125,0.39894118905067444,-1.82053542137146,1.8571537733078003
1772791447339758300,5.51275830078125,0.23382534086704254,-1.1765835285186768,0.53436279296875
1772791447359859000,5.53285888671875,0.43010014295578003,0.13768531382083893,-0.5434175729751587
1772791447379959600,5.55295947265625,0.5981454849243164,0.49987491965293884,-0.4557996392250061
1772791447400060200,5.57306005859375,0.38935381174087524,0.5464801788330078,0.1351553052663803
1772791447420160800,5.593160888671875,0.2577937841415405,0.7459507584571838,0.12823109328746796
1772791447440261600,5.61326171875,0.05379580706357956,0.7036065459251404,-0.30053746700286865
1772791447460362200,5.6333623046875,-0.0942758247256279,0.21278639137744904,-0.8219839930534363
1772791447480462800,5.653462890625,-0.06311686336994171,-0.3028011620044708,-0.9333040118217468
1772791447500563500,5.6735634765625,-0.03142527490854263,-0.3938812017440796,-0.4012048840522766
1772791447520664300,5.693664306640625,-0.05326317623257637,0.08149266242980957,0.3553985357284546
1772791447540765000,5.713764892578125,-0.190948486328125,0.5467464923858643,0.8677902817726135
1772791447560865500,5.733865478515625,-0.3331611752510071,0.6937528848648071,1.013198733329773
1772791447580966400,5.75396630859375,-0.3411506414413452,0.5664538741111755,0.7929555177688599
1772791447601067000,5.77406689453125,-0.34434643387794495,0.5134570002555847,0.3332943320274353
1772791447621167600,5.794167724609375,-0.40666434168815613,0.629570722579956,-0.0696416050195694
1772791447641268500,5.8142685546875,-0.4287685751914978,0.7579349875450134,-0.248605877161026
1772791447661370000,5.8343701171875,-0.3981422483921051,0.47643911838531494,-0.14900372922420502
1772791447681472000,5.854471923828125,-0.3829622268676758,0.03968106582760811,0.12050793319940567
1772791447701573600,5.87457373046875,-0.3763043284416199,-0.2671148180961609,0.1988048106431961
1772791447721675300,5.89467529296875,-0.23196113109588623,-0.12463583052158356,0.1170458272099495
1772791447741777200,5.914777099609375,0.02876211516559124,0.07243791967630386,-0.2568616569042206
1772791447761878800,5.934878662109375,0.17337164282798767,0.6141244173049927,-0.3908185660839081
1772791447802082300,5.975082275390625,-0.4114580452442169,0.5528717637062073,-1.9836537837982178
1772791447822184000,5.995183837890625,0.47457489371299744,0.39547908306121826,-1.2046798467636108
1772791447842285800,6.015285888671875,1.1563435792922974,-0.8029423952102661,0.03049316816031933
1772791447862387500,6.035387451171875,1.219460368156433,-0.34141695499420166,0.8747144937515259
1772791447882489000,6.055489013671875,1.2687288522720337,0.26525062322616577,0.9245156049728394
1772791447902591000,6.075591064453125,0.9427582025527954,-0.36112433671951294,0.6997449994087219
1772791447922692600,6.095692626953125,0.6157222986221313,-0.9853687882423401,0.7508776187896729
1772791447942794200,6.115794189453125,0.6756433844566345,-0.6258423328399658,0.8914924263954163
1772791447982997800,6.155997802734375,0.18029585480690002,0.30892643332481384,-0.2304963916540146
1772791448003099600,6.176099609375,0.1249021515250206,-0.001864211168140173,-0.7053375840187073
1772791448023201300,6.196201171875,0.6660560369491577,-0.2631200850009918,-0.5857617855072021
1772791448043303000,6.216302978515625,1.1869698762893677,-0.4775043725967407,0.01584579423069954
1772791448063404800,6.23640478515625,1.1044119596481323,-0.6111949682235718,0.5194491147994995
1772791448083506400,6.25650634765625,0.5909549593925476,-0.570448637008667,0.35513222217559814
1772791448103608000,6.276608154296875,0.2822948396205902,-0.3914843499660492,-0.2893522083759308
1772791448123710000,6.2967099609375,0.36591801047325134,-0.25965797901153564,-0.6331660151481628
1772791448143811600,6.3168115234375,0.518517017364502,-0.16325163841247559,-0.24940481781959534
1772791448163913700,6.336913818359375,0.3512706458568573,-0.03488738089799881,0.5000080466270447
1772791448184015600,6.357015625,-0.11984214931726456,-0.04420843720436096,0.9402282238006592
1772791448204117500,6.377117431640625,-0.6418212652206421,-0.057790547609329224,0.7761776447296143
1772791448224219600,6.3972197265625,-0.8743150234222412,0.017576847225427628,0.23875218629837036
1772791448244321500,6.417321533203125,-0.7597991824150085,0.30945906043052673,-0.2613890469074249
1772791448264423400,6.43742333984375,-0.5787044167518616,0.4977443814277649,-0.23529008030891418
1772791448284525600,6.457525634765625,-0.5171854496002197,0.5448822975158691,0.12290477752685547
1772791448304627500,6.47762744140625,-0.6511423587799072,0.5328980684280396,0.25979113578796387
1772791448324729300,6.497729248046875,-0.6862960457801819,0.652207612991333,0.0025300008710473776
1772791448344831500,6.51783154296875,-0.6303696632385254,1.2418309450149536,-0.42011329531669617
1772791448364933400,6.537933349609375,-0.48176541924476624,1.8548901081085205,-0.8097334504127502
1772791448385035300,6.55803515625,-0.4556664824485779,2.065812349319458,-0.7660576105117798
1772791448405137200,6.57813720703125,-0.6961497068405151,1.5283868312835693,-0.8233155608177185
1772791448425239300,6.5982392578125,-0.8839024305343628,0.20373165607452393,-2.0078885555267334
1772791448445341200,6.618341064453125,-0.8881634473800659,-0.8490150570869446,-2.5791361331939697
1772791448465443300,6.638443359375,-0.30120325088500977,-0.37870118021965027,-1.300553560256958
1772791448485545200,6.658545166015625,0.3526022136211395,0.39068540930747986,0.1237037256360054
1772791448505647000,6.678647216796875,0.5584644079208374,-0.26391902565956116,0.20812585949897766
1772791448525749000,6.6987490234375,0.16964322328567505,-1.3757878541946411,-0.5908218026161194
1772791448545851100,6.71885107421875,0.014913689345121384,-1.1155972480773926,-1.1295788288116455
1772791448565953000,6.738953125,0.4340948760509491,-0.1062600389122963,-0.6781733632087708
1772791448586055000,6.759054931640625,0.8519445061683655,0.026631588116288185,0.28802061080932617
1772791448606157000,6.779156982421875,0.5451486110687256,-0.6721813082695007,0.8960197567939758
1772791448626259000,6.799259033203125,-0.1392832100391388,-0.9874992966651917,0.42410802841186523
1772791448646360300,6.8193603515625,-0.24607586860656738,-0.5129243731498718,-0.5426186323165894
1772791448666461000,6.8394609375,0.3723095953464508,0.011451583355665207,-0.6936197280883789
1772791448686561500,6.8595615234375,0.9033434391021729,-0.22423797845840454,-0.00519315991550684
1772791448706662400,6.879662353515625,0.9779118895530701,-0.6237117648124695,0.8835029602050781
1772791448726763000,6.899762939453125,0.4737759530544281,-0.39734330773353577,1.0046766996383667
1772791448746863600,6.919863525390625,0.13954952359199524,0.12516845762729645,0.5263733267784119
1772791448766964200,6.939964111328125,0.1765674352645874,0.20985691249370575,0.011318424716591835
1772791448787064800,6.96006494140625,0.8202528953552246,-0.12836425006389618,0.16018900275230408
1772791448807165400,6.98016552734375,1.2093404531478882,0.034621063619852066,0.86805659532547
1772791448827266000,7.00026611328125,0.7459507584571838,0.13235899806022644,1.1335735321044922
1772791448847366700,7.02036669921875,0.06098633632063866,0.1627189964056015,0.8819050192832947
1772791448867467500,7.040467529296875,-0.27164220809936523,0.3523359000682831,0.3146522045135498
1772791448887568100,7.060568115234375,-0.3627222180366516,0.5523391366004944,0.049934227019548416
1772791448907668700,7.080668701171875,-0.3747064471244812,0.8364982008934021,0.23369218409061432
1772791448927769300,7.100769287109375,-0.776044487953186,0.54781174659729,0.6781733632087708
1772791448947870000,7.120869873046875,-1.1499519348144531,-0.27244114875793457,0.838229238986969
1772791448967970600,7.140970458984375,-0.8873645067214966,-0.558198094367981,0.6787060499191284
1772791448988071200,7.1610712890625,-0.6588655114173889,-0.15446321666240692,0.7175881266593933
1772791449008172000,7.181172119140625,-0.7720497250556946,0.08455529063940048,0.8267776370048523
1772791449028272600,7.201272705078125,-1.1267825365066528,-0.6981470584869385,0.45127224922180176
1772791449048373200,7.221373291015625,-1.3584773540496826,-0.27656903862953186,-0.20972375571727753
1772791449068473900,7.241473876953125,-1.3353078365325928,0.772316038608551,-1.7104136943817139
1772791449088574500,7.261574462890625,-0.9512803554534912,0.7968171238899231,-2.245708703994751
1772791449108675000,7.281675048828125,-0.6625939011573792,-0.6575338840484619,-1.110137701034546
1772791449128775700,7.301775634765625,-0.4069306552410126,-1.09562349319458,-0.06697844713926315
1772791449148876500,7.32187646484375,-0.46978121995925903,0.14966952800750732,0.26032376289367676
1772791449168977400,7.341977294921875,-0.2828274667263031,1.0452898740768433,0.08562055230140686
1772791449189078300,7.362078369140625,0.10439582169055939,0.8386287093162537,0.18575532734394073
1772791449209179100,7.38217919921875,0.27590325474739075,-0.020506322383880615,0.2858901023864746
1772791449229280000,7.402280029296875,0.3837611973285675,-0.40746331214904785,0.6233122944831848
1772791449249380900,7.422380859375,0.19734007120132446,-0.3051980137825012,1.01266610622406
1772791449269481700,7.442481689453125,-0.14141373336315155,-0.36538538336753845,0.1753690093755722
1772791449289582600,7.46258251953125,-0.009587371721863747,-0.35100433230400085,-1.1138662099838257
1772791449309683500,7.482683349609375,0.33182957768440247,-0.20692743360996246,-1.4193304777145386
1772791449329784300,7.502784423828125,0.423974871635437,0.05699159950017929,-0.5980123281478882
1772791449349885200,7.52288525390625,0.28016430139541626,0.13715267181396484,0.506932258605957
1772791449369986000,7.542986083984375,0.1723063737154007,0.013315794058144093,0.863262951374054
1772791449390087000,7.5630869140625,0.1411474198102951,-0.16884426772594452,0.48722490668296814
1772791449410187800,7.583187744140625,0.1866874396800995,-0.09108003228902817,-0.05259738489985466
1772791449430288600,7.60328857421875,0.2977411448955536,0.22024323046207428,-0.1998700648546219
1772791449450389500,7.623389404296875,0.26338639855384827,0.23196113109588623,0.2701774537563324
1772791449470490400,7.643490478515625,0.0756337121129036,-0.1435442566871643,0.983371376991272
1772791449490591200,7.66359130859375,0.011185267008841038,-0.4214448928833008,1.2819114923477173
1772791449510692000,7.683692138671875,0.041278962045907974,-0.3055974841117859,1.0355693101882935
1772791449530793000,7.70379296875,0.0828242376446724,0.02143842913210392,0.6257091760635376
1772791449550893800,7.723893798828125,0.016777900978922844,0.14740583300590515,0.43982067704200745
1772791449570994700,7.74399462890625,-0.05672528222203255,-0.03848264366388321,0.4432827830314636
1772791449591095600,7.764095458984375,-0.05273054540157318,-0.10293108969926834,0.481632262468338
1772791449611196400,7.784196533203125,-0.10705898702144623,-0.1681784838438034,0.43555963039398193
1772791449631297300,7.80429736328125,-0.2540653645992279,-0.1567268967628479,0.20519638061523438
1772791449651398400,7.8243984375,-0.17390426993370056,-0.18122795224189758,-0.24833956360816956
1772791449671500000,7.8445,0.07350318133831024,0.21358533203601837,-0.09813740104436874
1772791449691601700,7.8646015625,-0.18961690366268158,0.4016043543815613,-0.4198469817638397
1772791449711703300,7.884703369140625,-0.6106623411178589,0.23222744464874268,-1.6885758638381958
1772791449731804700,7.9048046875,-0.37204328179359436,0.497211754322052,-1.9892464876174927
1772791449751906300,7.92490625,0.0013315794058144093,0.4538022577762604,-0.8560724258422852
1772791449792109600,7.965109619140625,0.33236223459243774,0.08602003008127213,0.8970850706100464
1772791449812211200,7.985211181640625,0.057257913053035736,-0.17443689703941345,0.4267711937427521
1772791449832312600,8.0053125,0.05752423033118248,-0.37683698534965515,-0.21957744657993317
1772791449852414200,8.025414306640625,0.1555284708738327,-0.26578325033187866,-0.40253645181655884
1772791449872515800,8.045515869140624,0.47297701239585876,0.2131858617067337,-0.3098585307598114
1772791449892617200,8.0656171875,0.6343644261360168,0.5053343772888184,0.08748476952314377
1772791449912718800,8.08571875,0.42184436321258545,0.01344895176589489,0.41292276978492737
1772791449932820500,8.105820556640625,0.2844253480434418,-0.7857649922370911,0.006258423440158367
1772791449952922000,8.125922119140625,0.8554065823554993,-0.8904271721839905,-0.4874912202358246
1772791449973023500,8.1460234375,0.896152913570404,-0.6318344473838806,-0.859534502029419
1772791449993125000,8.166125,0.6788392066955566,0.18122795224189758,-0.5316996574401855
1772791450013226800,8.186226806640626,0.44581279158592224,0.6765754818916321,-0.011584741063416004
1772791450033328400,8.206328369140625,0.42717066407203674,0.5002743601799011,0.28615641593933105
1772791450053429800,8.2264296875,0.5528717637062073,-0.030226852744817734,0.3820301294326782
1772791450073531400,8.246531494140624,0.5339633226394653,-0.29947221279144287,0.3439469635486603
1772791450093633000,8.266633056640625,0.446878045797348,-0.058456335216760635,0.30719536542892456
1772791450113734700,8.286734619140624,0.26445168256759644,0.46032699942588806,0.5378249287605286
1772791450133836000,8.3068359375,0.10466214269399643,0.5804354548454285,0.8331692218780518
1772791450153937700,8.326937744140626,-0.0029294746927917004,0.16764584183692932,0.9165260791778564
1772791450174039300,8.347039306640625,-0.10892319679260254,-0.16951005160808563,0.7860313057899475
1772791450194141200,8.36714111328125,-0.18082848191261292,-0.22144165635108948,0.5032038688659668
1772791450214242800,8.387242919921874,-0.07510107755661011,-0.22969745099544525,0.4659196436405182
1772791450234344400,8.407344482421875,-0.18828532099723816,-0.65953129529953,0.4707133173942566
1772791450254446000,8.427446044921876,-0.7203844785690308,-0.6805702447891235,0.20785954594612122
1772791450274547700,8.447547607421875,-1.0088045597076416,0.12157320231199265,-0.1964079588651657
1772791450294649300,8.4676494140625,-0.7078676223754883,1.082707166671753,-0.0720384493470192
1772791450314751200,8.487751220703124,-0.43862226605415344,0.9096018671989441,0.2792322039604187
1772791450334852900,8.507852783203125,-0.7211834192276001,-0.056592125445604324,0.10479529947042465
1772791450354954500,8.52795458984375,-0.8404929041862488,-0.7048049569129944,-0.6233122944831848
1772791450375056100,8.54805615234375,-0.7318360209465027,-0.6837660074234009,-1.0616682767868042
1772791450395157800,8.56815771484375,-0.5608612298965454,0.5151880979537964,-0.7524755001068115
1772791450415259400,8.58825927734375,-0.4370243549346924,1.303216814994812,-0.14847110211849213
1772791450435361000,8.608361083984375,-0.5816338658332825,0.20306585729122162,-0.3772364556789398
1772791450455463000,8.628462890625,-0.3832285404205322,-0.30772799253463745,-0.3889543414115906
1772791450475564500,8.648564453125,0.027963167056441307,0.5756417512893677,-0.037683695554733276
1772791450495666200,8.668666259765626,0.08495476841926575,0.6470144391059875,0.013715268112719059
1772791450515767800,8.688767822265625,-0.36112433671951294,-0.05099949240684509,-0.1170458272099495
1772791450535869400,8.708869384765626,-0.2455432415008545,-0.4845617413520813,0.03795001283288002
1772791450555971000,8.72897119140625,0.26445168256759644,-0.6219807267189026,0.133291095495224
1772791450576073000,8.749072998046875,0.8625971674919128,-0.38575854897499084,0.27710166573524475
1772791450596174600,8.769174560546874,0.8881634473800659,-0.11970898509025574,0.756470263004303
1772791450616276200,8.789276123046875,0.16058847308158875,-0.33968591690063477,0.8890955448150635
1772791450636377900,8.8093779296875,-0.16058847308158875,-0.18602164089679718,0.5061333179473877
1772791450656479500,8.8294794921875,0.15659373998641968,0.1868205964565277,-0.006258423440158367
1772791450676581000,8.8495810546875,0.3384874761104584,0.3271690607070923,-0.32637012004852295
1772791450696683000,8.86968310546875,0.4311653971672058,0.22676797211170197,-0.30160272121429443
1772791450716784600,8.88978466796875,0.30652958154678345,-0.12397003918886185,-0.11731214821338654
1772791450736886300,8.90988623046875,0.22290639579296112,-0.3625890612602234,-0.044874224811792374
1772791450756988200,8.92998828125,0.2503369152545929,-0.2808300852775574,0.17270584404468536
1772791450777089800,8.95008984375,0.30599695444107056,0.012117372825741768,0.48429542779922485
1772791450797191400,8.97019140625,0.2511358857154846,0.09840371459722519,0.661928117275238
1772791450817293000,8.99029296875,-0.05619265139102936,-0.03715106472373009,0.5647228360176086
1772791450837395000,9.01039501953125,-0.29401272535324097,-0.06564686447381973,0.23449113965034485
1772791450857496600,9.03049658203125,-0.1837579607963562,0.12929636240005493,0.060853179544210434
1772791450877598200,9.05059814453125,-0.061518967151641846,0.11038793623447418,0.37670382857322693
1772791450897700000,9.0707001953125,-0.040746331214904785,-0.3945469856262207,0.762595534324646
1772791450917801700,9.0908017578125,-0.05459475517272949,-1.2014840841293335,0.5894901752471924
1772791450937903400,9.1109033203125,0.1440768986940384,-0.10346371680498123,0.30772799253463745
1772791450958005000,9.1310048828125,0.6127928495407104,2.050499200820923,0.34554484486579895
1772791450978107000,9.15110693359375,-0.06977476179599762,1.716805338859558,-0.1290300488471985
1772791450998208500,9.17120849609375,-0.3856253921985626,0.6552702188491821,-0.9021450281143188
1772791451018310100,9.19131005859375,-0.025832640007138252,-0.5551354289054871,-1.7090821266174316
1772791451038412000,9.211412109375,0.5121254324913025,-1.1807115077972412,-1.4627399444580078
1772791451058513700,9.231513671875,0.8282423615455627,-1.2624704837799072,-0.38336169719696045
1772791451078615300,9.251615234375,0.6961497068405151,-1.3263862133026123,-0.32024484872817993
1772791451098717000,9.271717041015625,-0.3243727385997772,-0.9183903336524963,-1.3636704683303833
1772791451118818800,9.29181884765625,-0.7313033938407898,0.4198469817638397,-1.8885791301727295
1772791451138920200,9.311920166015625,0.19441059231758118,1.6470305919647217,-0.764992356300354
1772791451159020800,9.332020751953126,1.2404993772506714,0.7543397545814514,0.7460839152336121
1772791451179121200,9.35212109375,1.458612084388733,-1.1508840322494507,1.5796526670455933
1772791451199221500,9.372221435546875,0.7848328948020935,-1.6907063722610474,1.1807115077972412
1772791451219321900,9.39232177734375,0.4479433000087738,-0.48136594891548157,-0.08375634253025055
1772791451239422200,9.412422119140626,0.6601970791816711,0.35167011618614197,-0.7977492213249207
1772791451259522800,9.432522705078124,0.8679234385490417,0.1902827024459839,-0.42064592242240906
1772791451279623200,9.452623046875,0.8751139640808105,-0.11544793099164963,0.1303616166114807
1772791451299723500,9.4727236328125,0.648479163646698,-0.1615205854177475,0.3103911578655243
1772791451319824000,9.492823974609376,0.3129211664199829,0.058988966047763824,0.3042658865451813
1772791451339924500,9.512924560546875,0.06950844824314117,0.3524690568447113,0.2557964026927948
1772791451360024800,9.53302490234375,-0.010652635246515274,0.47524067759513855,0.3253048360347748
1772791451380125200,9.553125244140626,-0.07217160612344742,0.4850943684577942,0.4384891092777252
1772791451400225500,9.5732255859375,-0.20426428318023682,0.3873564600944519,0.5530049204826355
1772791451420326100,9.593326171875,-0.2695116698741913,0.31012484431266785,0.6779070496559143
1772791451440426500,9.613426513671875,-0.3115895688533783,0.24274691939353943,0.683233380317688
1772791451460526800,9.63352685546875,-0.31611695885658264,0.19614164531230927,0.4390217363834381
1772791451480627200,9.653627197265624,-0.2756369411945343,0.1074584573507309,0.17803215980529785
1772791451500727600,9.6737275390625,-0.23329271376132965,-0.2898848354816437,0.22144165635108948
1772791451520828200,9.693828125,-0.22956429421901703,-0.525840699672699,0.47950175404548645
1772791451540928500,9.713928466796874,-0.1392832100391388,0.2997385263442993,0.056592125445604324
1772791451561028900,9.73402880859375,-0.2814958989620209,0.5231775641441345,-1.8401095867156982
1772791451581129200,9.754129150390625,-0.7422223687171936,0.3950796127319336,-2.9288089275360107
1772791451601229600,9.7742294921875,-0.36831486225128174,0.34687644243240356,-1.7154737710952759
1772791451621330200,9.794330078125,0.37257590889930725,-0.3055974841117859,-0.31012484431266785
1772791451641430800,9.8144306640625,0.4143875241279602,-0.4808333218097687,0.026764746755361557
1772791451661532400,9.834532470703126,-0.0828242376446724,0.15353110432624817,-0.5924196839332581
1772791451681634000,9.854634033203125,-0.2886864244937897,0.8941555619239807,-1.0222535133361816
1772791451721837600,9.894837646484374,0.2793653607368469,0.6600639224052429,-0.5095954537391663
1772791451741939200,9.914939208984375,0.27297377586364746,-0.2443448156118393,-0.13249215483665466
1772791451762041000,9.935041015625,-0.11185266822576523,-0.8225166201591492,-0.2731069326400757
1772791451782142700,9.955142822265625,-0.39947381615638733,-0.764992356300354,-1.2496873140335083
1772791451802244600,9.97524462890625,0.14860425889492035,-0.31438589096069336,-1.7959011793136597
1772791451822346200,9.99534619140625,0.8641950488090515,-0.09494160860776901,-1.023052453994751
1772791451842448000,10.01544775390625,0.9704550504684448,-0.49441543221473694,0.28003114461898804
1772791451862549800,10.0355498046875,0.6133254766464233,-0.6187849640846252,0.8677902817726135
1772791451882651400,10.0556513671875,0.3685811758041382,-0.08695213496685028,0.5599291324615479
1772791451922855000,10.09585498046875,0.558198094367981,0.33835431933403015,0.16471637785434723
1772791451942956500,10.11595654296875,0.5233107209205627,0.06511422991752625,0.38815540075302124
1772791451963058400,10.136058349609375,0.29401272535324097,-0.09627319127321243,0.5918870568275452
1772791451983160000,10.15616015625,0.10705898702144623,0.0318247489631176,0.7093323469161987
1772791452003261700,10.17626171875,0.01651158556342125,0.07150581479072571,0.800944983959198
1772791452043465200,10.21646533203125,-0.1086568832397461,-0.14074794948101044,0.7660576105117798
1772791452063566800,10.23656689453125,-0.18588848412036896,-0.2227732390165329,0.7628618478775024
1772791452083668700,10.256668701171876,-0.20879164338111877,-0.48189857602119446,0.6321007609367371
1772791452103770400,10.276770263671875,-0.1483379453420639,-1.0062745809555054,0.6110618114471436
1772791452123872000,10.2968720703125,-0.26338639855384827,-1.0163946151733398,0.7093323469161987
1772791452143974000,10.316973876953124,-0.27164220809936523,-0.13915005326271057,0.6741786599159241
1772791452164075500,10.337075439453125,-0.4293012022972107,0.3026680052280426,-0.3601922392845154
1772791452184177200,10.35717724609375,-1.344628930091858,-0.3463438153266907,-1.6012241840362549
1772791452204278800,10.37727880859375,-1.232243537902832,0.40013960003852844,-1.5540863275527954
1772791452224380400,10.39738037109375,-0.5637907385826111,1.0851041078567505,-0.6834996938705444
1772791452244482000,10.41748193359375,-0.24820640683174133,0.39374804496765137,0.3008037805557251
1772791452264583700,10.437583740234375,-0.10466214269399643,-0.5484775304794312,0.8659260869026184
1772791452284685300,10.457685302734374,-0.06551370769739151,-0.7250449657440186,0.46938174962997437
1772791452304787000,10.477786865234375,-0.16777899861335754,-0.4286354184150696,-0.2834932506084442
1772791452324888600,10.497888671875,-0.040746331214904785,0.012650004588067532,-0.5436838865280151
1772791452344990200,10.517990234375,0.36245590448379517,0.23848587274551392,-0.2773679792881012
1772791452365091800,10.538091796875,0.39308223128318787,0.1964079588651657,0.07177212834358215
1772791452385193500,10.558193359375,-0.04181159287691116,0.026498429477214813,-0.11970898509025574
1772791452405295000,10.578295166015625,-0.2756369411945343,0.029161589220166206,-0.7420892119407654
1772791452425396700,10.598396728515626,0.04900212213397026,0.1988048106431961,-1.2070767879486084
1772791452445498400,10.618498291015625,0.5102612376213074,0.11012161523103714,-1.1178609132766724
1772791452465600000,10.63860009765625,0.6969486474990845,-0.23981745541095734,-0.5029375553131104
1772791452485701600,10.65870166015625,0.594150722026825,-0.3165164291858673,0.0834900289773941
1772791452505803300,10.67880322265625,0.30360010266304016,-0.027297377586364746,0.26511746644973755
1772791452525905000,10.69890478515625,0.13049478828907013,0.35886064171791077,0.2347574532032013
1772791452546006500,10.719006591796875,0.12836425006389618,0.4424838423728943,0.2643185257911682
1772791452566108200,10.739108154296876,0.16724637150764465,0.28455850481987,0.41665118932724
1772791452586210000,10.7592099609375,0.16298532485961914,0.03715106472373009,0.5711144208908081
1772791452606311400,10.7793115234375,0.03435475006699562,-0.3165164291858673,0.6882933974266052
1772791452626413300,10.799413330078124,-0.10439582169055939,-0.39241644740104675,0.7261102795600891
1772791452646514400,10.819514404296875,-0.15819163620471954,-0.13062794506549835,0.7000113129615784
1772791452666615000,10.839614990234375,-0.10599371790885925,0.10639319568872452,0.7599323391914368
1772791452686715600,10.859715576171874,-0.09480845183134079,-0.013715268112719059,0.9578050374984741
1772791452706816300,10.879816162109375,-0.21891164779663086,-0.32344064116477966,1.0864356756210327
1772791452726916900,10.899916748046875,-0.3877559304237366,-0.370045930147171,1.0494177341461182
1772791452747017500,10.920017578125,-0.21891164779663086,0.10559424757957458,0.8299734592437744
1772791452767118300,10.940118408203125,0.0330231711268425,0.14900372922420502,-0.35699644684791565
1772791452787219000,10.960218994140625,-1.3347752094268799,-0.8185218572616577,-2.7317352294921875
1772791452807319600,10.980319580078126,-1.9358501434326172,-0.3447459042072296,-3.67848801612854
1772791452827420200,11.000420166015624,-0.6386255025863647,1.6084147691726685,-1.5628747940063477
1772791452847520800,11.020520751953125,0.24394534528255463,0.6664555072784424,0.33462589979171753
1772791452867621400,11.040621337890625,0.17044216394424438,-1.1303777694702148,0.5585975646972656
1772791452887722200,11.06072216796875,0.10839056223630905,-1.0728535652160645,-0.22144165635108948
1772791452907822800,11.08082275390625,-0.012783162295818329,0.18042901158332825,-0.8038744926452637
1772791452927923500,11.10092333984375,0.2937464118003845,0.9157271385192871,-0.989496648311615
1772791452948024000,11.121024169921874,0.7060034275054932,0.6648576259613037,-0.7471492290496826
1772791452968124700,11.141124755859375,0.815725564956665,-0.04221106693148613,-0.09600687772035599
1772791452988225300,11.161225341796875,0.818122386932373,-0.30000483989715576,0.15539531409740448
1772791453008326000,11.181325927734376,0.727841317653656,-0.12450267374515533,-0.13915005326271057
1772791453028426500,11.201426513671874,0.7776423692703247,-0.020639481022953987,-0.11811109632253647
1772791453048527400,11.22152734375,0.7539402842521667,-0.03262369707226753,0.4635227918624878
1772791453068628000,11.2416279296875,0.585096001625061,0.14207951724529266,1.1191924810409546
1772791453088728600,11.261728515625,0.5206475257873535,0.24887219071388245,1.4150694608688354
1772791453108829200,11.2818291015625,0.4724443852901459,0.353268027305603,1.343430519104004
1772791453128929800,11.3019296875,0.4396875202655792,0.3673827648162842,1.1532809734344482
1772791453149031000,11.322031005859374,0.4756401777267456,0.22303955256938934,1.0592714548110962
1772791453169132300,11.34213232421875,0.4942822754383087,-0.020373165607452393,1.0515482425689697
1772791453189233700,11.362233642578126,0.5731117725372314,-0.2089248150587082,1.1109366416931152
1772791453209335000,11.3823349609375,0.6010749340057373,-0.35886064171791077,1.1748524904251099
1772791453229436700,11.402436767578125,0.45726436376571655,-0.504535436630249,1.226251482963562
1772791453249538000,11.4225380859375,0.27776744961738586,-0.48669227957725525,1.2984230518341064
1772791453269639400,11.442639404296875,0.1483379453420639,-0.4147869944572449,1.1873693466186523
1772791453289740800,11.46274072265625,0.11638004332780838,-0.3085269629955292,0.9476850628852844
1772791453309842200,11.48284228515625,-0.01784316450357437,-0.32344064116477966,0.7333008050918579
1772791453329943600,11.502943603515625,-0.06072001904249191,-0.4840291142463684,0.6214480996131897
1772791453350045000,11.523044921875,-0.08362318575382233,-0.8685892224311829,0.3988080322742462
1772791453370146600,11.543146484375,-0.15579478442668915,-0.8720513582229614,0.1777658462524414
1772791453390248000,11.563248046875,0.07030738890171051,-0.3045322000980377,-0.599077582359314
1772791453410349300,11.583349365234374,-0.6364949345588684,-0.9708545207977295,-2.6212141513824463
1772791453430450700,11.60345068359375,-1.3747225999832153,-0.8853671550750732,-3.6332144737243652
1772791453450552000,11.623552001953126,-0.5837644338607788,1.4475599527359009,-2.3743393421173096
1772791453470653400,11.6436533203125,0.2647179961204529,1.13224196434021,-0.9982850551605225
1772791453490754800,11.6637548828125,0.776044487953186,-0.7178544402122498,-0.33649012446403503
1772791453510856400,11.6838564453125,1.0618014335632324,-0.9476850628852844,0.1428784728050232
1772791453530957800,11.703957763671875,0.8721845149993896,0.2757700979709625,-0.03475422412157059
1772791453551059200,11.72405908203125,0.4324969947338104,1.0720546245574951,-1.045156717300415
1772791453571160600,11.74416064453125,0.3536674976348877,1.0161283016204834,-1.429450511932373
1772791453591262000,11.764261962890625,0.20106849074363708,0.26698166131973267,-0.99322509765625
1772791453611363300,11.78436328125,-0.00426105409860611,-0.3442132771015167,-0.5367596745491028
1772791453631464700,11.804464599609375,0.10120003670454025,0.3026680052280426,0.0011984214652329683
1772791453651565300,11.8245654296875,0.2455432415008545,0.9426250457763672,0.6105291843414307
1772791453671665700,11.844665771484374,0.46205806732177734,0.6584660410881042,1.1128009557724
1772791453691765800,11.864765869140625,0.5954822897911072,-0.09094687551259995,1.248355746269226
1772791453711865900,11.884865966796875,0.497211754322052,-0.41159120202064514,0.9753819108009338
1772791453731966000,11.904966064453125,0.3033337891101837,-0.12716583907604218,0.4004059135913849
1772791453752066300,11.92506640625,-0.12197267264127731,0.2035984843969345,-0.08881634473800659
1772791453772166400,11.94516650390625,-0.7683213353157043,0.27603641152381897,-0.17190690338611603
1772791453792266500,11.9652666015625,-0.7954855561256409,0.12503530085086823,0.3327617049217224
1772791453812366800,11.985366943359375,-0.5904223322868347,-0.2605900764465332,0.8539418578147888
1772791453832467000,12.005467041015624,-0.5645896792411804,-0.5657880902290344,1.119991421699524
1772791453852567000,12.025567138671875,-0.6428865194320679,-0.4491417407989502,1.1128009557724
1772791453872667100,12.045667236328125,-0.6679202318191528,-0.05925528332591057,0.8598008155822754
1772791453892767500,12.065767578125,-0.618651807308197,0.12450267374515533,0.6134586334228516
1772791453912867600,12.08586767578125,-0.47590649127960205,-0.045673172920942307,0.6305028200149536
1772791453932967700,12.1059677734375,-0.48602649569511414,-0.6107954978942871,0.8185218572616577
1772791453953067800,12.12606787109375,-0.8692550659179688,-1.090164065361023,0.8683229088783264
1772791453973168000,12.146168212890625,-1.0562087297439575,-0.9415597915649414,0.2864227294921875
1772791453993268200,12.166268310546876,-0.5965476036071777,-0.07283739000558853,-0.14074794948101044
1772791454013368300,12.186368408203125,-0.33289486169815063,-0.17323848605155945,-0.8755134344100952
1772791454033468700,12.20646875,-1.5382405519485474,-1.8041568994522095,-2.2459750175476074
1772791454053568800,12.22656884765625,-2.1867196559906006,-1.6219968795776367,-3.1929943561553955
1772791454073668900,12.2466689453125,-1.426387906074524,1.1554114818572998,-2.290982484817505
1772791454093769200,12.266769287109375,-0.42370855808258057,2.1751348972320557,-0.7767102718353271
1772791454113869300,12.286869384765625,-0.3355579972267151,0.9586040377616882,-0.14314478635787964
1772791454133969400,12.306969482421875,-0.5297023057937622,-0.030759483575820923,-0.5058670043945312
1772791454154070800,12.32707080078125,-0.6950844526290894,-0.47657227516174316,-0.9753819108009338
1772791454174172200,12.347172119140625,-0.29933905601501465,-0.22357217967510223,-0.4342280328273773
1772791454194273800,12.367273681640626,0.5776391625404358,0.7077344655990601,0.5434175729751587
1772791454214375200,12.387375244140625,0.766190767288208,1.1863040924072266,0.9146618843078613
1772791454234476800,12.407476806640625,0.5219791531562805,0.3567301332950592,1.013198733329773
1772791454254578200,12.427578125,0.2671148180961609,-0.810798704624176,0.8158587217330933
1772791454274679800,12.4476796875,0.12863056361675262,-0.5673859715461731,-0.015046847052872181
1772791454294781200,12.46778125,-0.08921582251787186,0.5474122762680054,-0.7237133979797363
1772791454314882800,12.4878828125,-0.09108003228902817,0.7500786781311035,-0.3439469635486603
1772791454334984400,12.507984375,-0.1105210930109024,-0.2635195553302765,0.756470263004303
1772791454355085800,12.5280859375,-0.6836328506469727,-1.3556809425354004,1.1753851175308228
1772791454375187500,12.5481875,-0.7022749781608582,-1.1950925588607788,0.7261102795600891
1772791454395288800,12.568288818359376,-0.2149169147014618,-0.10639319568872452,0.42650488018989563
1772791454415390500,12.588390380859375,0.014913689345121384,0.19587533175945282,0.7482144832611084
1772791454435491800,12.608491943359375,-0.055926334112882614,-0.05073317512869835,1.223854660987854
1772791454455593500,12.628593505859374,-0.32330748438835144,-0.3247722089290619,1.2121367454528809
1772791454475694800,12.64869482421875,-0.45619910955429077,-0.4954806864261627,0.9359671473503113
1772791454495796500,12.66879638671875,-0.5171854496002197,-0.248605877161026,0.5588638782501221
1772791454515897900,12.68889794921875,-0.5243759751319885,-0.030226852744817734,0.21425113081932068
1772791454535999500,12.70899951171875,-0.6008086204528809,-0.11438266932964325,0.0552605465054512
1772791454556100900,12.729100830078124,-0.7374286651611328,0.006258423440158367,-0.13009530305862427
1772791454576202500,12.749202392578125,-0.8135949969291687,0.2246374487876892,-0.2227732390165329
1772791454596304000,12.769303955078126,-0.7534076571464539,0.3487406373023987,-0.18628795444965363
1772791454616405500,12.789405517578125,-0.6591318249702454,0.5948165059089661,-0.1327584683895111
1772791454636507100,12.809507080078125,-0.602672815322876,0.8712524175643921,-0.13622057437896729
1772791454656608800,12.82960888671875,-0.6990792155265808,0.7197186946868896,-0.02809632569551468
1772791454676710400,12.84971044921875,-0.6745781302452087,0.39721015095710754,0.07416897267103195
1772791454696812300,12.869812255859374,-0.4135885536670685,0.2768353521823883,0.11491530388593674
1772791454716914000,12.889913818359375,-0.07030738890171051,0.15699321031570435,0.13595426082611084
1772791454737015600,12.910015625,0.16884426772594452,0.2414153516292572,0.09893634915351868
1772791454757117200,12.9301171875,0.24048323929309845,0.33009853959083557,0.19054901599884033
1772791454777219000,12.950218994140625,0.23755376040935516,0.41638487577438354,0.2970753610134125
1772791454797320700,12.97032080078125,0.32996538281440735,0.3727090656757355,0.313586950302124
1772791454817422300,12.99042236328125,0.43915489315986633,0.13435636460781097,0.2797648310661316
1772791454837524200,13.010524169921876,0.41758328676223755,0.046205803751945496,0.2438121885061264
1772791454857625900,13.0306259765625,0.39547908306121826,0.20439743995666504,0.10399635136127472
1772791454877727500,13.0507275390625,0.46019384264945984,0.5253080725669861,-0.11571425199508667
1772791454897829400,13.070829345703125,0.4767054319381714,0.6006754636764526,-0.20066902041435242
1772791454917931000,13.090930908203125,0.5123917460441589,0.41638487577438354,-0.21238692104816437
1772791454938032600,13.11103271484375,0.5888243913650513,0.29441219568252563,-0.33249539136886597
1772791454958134300,13.13113427734375,0.6274402141571045,0.3069290518760681,-0.3716438114643097
1772791454978236200,13.151236083984376,0.6753770709037781,0.28615641593933105,-0.13728584349155426
1772791454998337800,13.171337890625,0.7717834115028381,0.2371542900800705,0.12263846397399902
1772791455018439400,13.191439453125,0.8665918707847595,0.024900535121560097,0.18362480401992798
1772791455038541300,13.211541259765625,0.9163929224014282,-0.08615318685770035,0.007057370617985725
1772791455058643000,13.231642822265625,0.7496792078018188,-0.1945437490940094,-0.26218798756599426
1772791455078744600,13.25174462890625,0.3904190957546234,-0.21824586391448975,-0.7543397545814514
1772791455098846200,13.27184619140625,0.23036323487758636,-0.1476721614599228,-1.0837724208831787
1772791455118948000,13.291947998046876,0.31664958596229553,-0.1261005699634552,-0.9466198086738586
1772791455139049700,13.3120498046875,0.388022243976593,-0.0882837176322937,-0.6459491848945618
1772791455159150000,13.332150146484375,0.46498751640319824,-0.028895273804664612,-0.2720416784286499
1772791455179250700,13.352250732421876,0.566720187664032,0.19081532955169678,0.05579317733645439
1772791455199351000,13.37235107421875,0.5645896792411804,0.3655185401439667,0.16551531851291656
1772791455219451600,13.39245166015625,0.4846948981285095,0.22490376234054565,0.12157320231199265
1772791455239552300,13.41255224609375,0.4460791051387787,-0.133291095495224,0.04647212103009224
1772791455259652600,13.432652587890624,0.4617917239665985,-0.2587258815765381,0.10586056113243103
1772791455279753200,13.452753173828125,0.4274369776248932,0.005992107093334198,0.22064270079135895
1772791455299853600,13.472853515625,0.38163065910339355,0.16231952607631683,0.3500722348690033
1772791455319954200,13.4929541015625,0.1818937510251999,0.03715106472373009,0.41345539689064026
1772791455340054800,13.5130546875,-0.047936856746673584,-0.10159950703382492,0.23289324343204498
1772791455360155100,13.533155029296875,-0.14567478001117706,-0.03848264366388321,-0.10932266712188721
1772791455380255700,13.553255859375,-0.16325163841247559,0.10239845514297485,-0.265383780002594
1772791455400356000,13.573356201171874,-0.06285054981708527,0.30000483989715576,-0.2126532346010208
1772791455420456700,13.593456787109375,-0.09747160971164703,0.43928804993629456,-0.15699321031570435
1772791455440557000,13.61355712890625,-0.2173137664794922,0.44221752882003784,-0.2113216519355774
1772791455460657700,13.63365771484375,-0.15765899419784546,0.5237101912498474,-0.3506048619747162
1772791455480758300,13.65375830078125,0.037550538778305054,0.510660707950592,-0.39534592628479004
1772791455500858600,13.673858642578125,0.13555479049682617,0.39960697293281555,-0.22809955477714539
1772791455520959200,13.693959228515626,0.260456919670105,0.24594271183013916,0.14128057658672333
1772791455541059800,13.714059814453124,0.3267695903778076,0.12397003918886185,0.49441543221473694
1772791455561160200,13.73416015625,0.28122955560684204,0.003328948514536023,0.5407543778419495
1772791455581260800,13.7542607421875,0.19254638254642487,-0.08189213275909424,0.2792322039604187
1772791455601361200,13.774361083984376,0.21758008003234863,-0.08189213275909424,0.006258423440158367
1772791455621461800,13.794461669921875,0.3454116880893707,-0.05446159839630127,-0.010519477538764477
1772791455641562400,13.814562255859375,0.4348938465118408,-0.01105210930109024,0.20626164972782135
1772791455661663700,13.834663818359376,0.474308580160141,-0.05020054429769516,0.4145206809043884
1772791455681764900,13.854764892578125,0.47590649127960205,-0.10213214159011841,0.4605933129787445
1772791455701866200,13.8748662109375,0.5470128059387207,-0.07044055312871933,0.3463438153266907
1772791455721967600,13.894967529296874,0.5965476036071777,-0.03368895873427391,0.1471395194530487
1772791455742069000,13.915069091796875,0.5904223322868347,0.051798440515995026,0.02809632569551468
1772791455762170400,13.93517041015625,0.5587307214736938,0.19241322576999664,-0.05579317733645439
1772791455782271500,13.955271484375,0.43862226605415344,0.1543300598859787,-0.1940111219882965
1772791455802372900,13.975372802734375,0.3033337891101837,0.12530162930488586,-0.35459959506988525
1772791455822474200,13.99547412109375,0.33236223459243774,0.06165212765336037,-0.3343595862388611
1772791455842575600,14.01557568359375,0.5028043985366821,0.023568956181406975,-0.19614164531230927
1772791455862677000,14.035677001953125,0.5179843902587891,0.04274369776248932,-0.07310371100902557
1772791455882778400,14.0557783203125,0.28602325916290283,0.016911057755351067,-0.007590002380311489
1772791455902879500,14.07587939453125,0.017576847225427628,0.17963005602359772,-0.06831002235412598
1772791455922980900,14.09598095703125,0.0013315794058144093,0.3308974802494049,-0.17723321914672852
1772791455943082200,14.116082275390625,0.2383527159690857,0.3037332594394684,-0.15805847942829132
1772791455963183600,14.13618359375,0.4751075208187103,0.0390152782201767,0.046205803751945496
1772791455983285000,14.156284912109374,0.3781685531139374,-0.25845956802368164,0.27896589040756226
1772791456003386000,14.17638623046875,0.13741900026798248,-0.20972375571727753,0.20066902041435242
1772791456023487500,14.196487548828125,-0.1531316339969635,-0.06564686447381973,-0.22809955477714539
1772791456043588900,14.2165888671875,-0.17550216615200043,-0.2174469232559204,-0.43023329973220825
1772791456063690200,14.236690185546875,0.01837579533457756,-0.2504700720310211,-0.04886896535754204
1772791456083791600,14.25679150390625,-0.03621895983815193,0.15512900054454803,0.23129534721374512
1772791456103893000,14.27689306640625,-0.158457949757576,0.17323848605155945,0.26085641980171204
1772791456123994000,14.296994140625,-0.12996214628219604,-0.04700475186109543,0.15219952166080475
1772791456144095500,14.317095458984374,-0.02503369376063347,-0.2299637645483017,-0.10665950924158096
1772791456164197000,14.337197021484375,0.05672528222203255,-0.4454133212566376,0.044874224811792374
1772791456184298800,14.357298828125,0.3177148401737213,-0.42597225308418274,0.8057386875152588
1772791456204400000,14.377400146484375,0.6596644520759583,-0.08908266574144363,1.2699272632598877
1772791456224501800,14.397501708984375,0.5653886198997498,0.24541008472442627,0.9964208602905273
1772791456244603100,14.41760302734375,-0.4388885796070099,1.188967227935791,1.4883062839508057
1772791456264704800,14.437704833984375,-0.9555413722991943,0.9713871479034424,1.8646106719970703
1772791456284806100,14.45780615234375,-0.5001412034034729,0.6078659892082214,1.0190577507019043
1772791456304907800,14.47790771484375,0.38589170575141907,0.4965459704399109,-0.2677806317806244
1772791456325009400,14.498009521484375,1.6282552480697632,0.49095332622528076,-0.9404945373535156
1772791456345110800,14.51811083984375,2.12546706199646,0.7543397545814514,-0.6637923121452332
1772791456365212400,14.53821240234375,1.3901689052581787,2.1799285411834717,0.44514700770378113
1772791456385313800,14.558313720703126,0.8663255572319031,2.261953830718994,1.301086187362671
1772791456405415400,14.57841552734375,1.056475043296814,0.947418749332428,2.8718173503875732
1772791456425517000,14.59851708984375,2.3949787616729736,0.8118639588356018,2.384725570678711
1772791456445618400,14.618618408203124,2.655435562133789,0.735164999961853,-0.5873596668243408
1772791456465720000,14.638719970703125,2.4807324409484863,0.8795081973075867,-2.3551645278930664
1772791456485821400,14.658821533203126,2.090846061706543,1.1319756507873535,-3.2132341861724854
1772791456505923000,14.678923095703125,2.1204071044921875,1.5269221067428589,-3.2944605350494385
1772791456526024400,14.6990244140625,2.1145482063293457,1.8512948751449585,-2.6489109992980957
1772791456546126000,14.7191259765625,2.151832342147827,2.264883518218994,-2.019606590270996
1772791456566227700,14.739227783203125,3.494330644607544,2.419879198074341,-1.534379005432129
1772791456586329000,14.7593291015625,5.565735816955566,1.2880367040634155,-1.2646009922027588
1772791456606430700,14.7794306640625,7.014493942260742,0.39001959562301636,-0.8962860703468323
1772791456626532000,14.799531982421875,6.032853603363037,-0.20812585949897766,-0.018508953973650932
1772791456646633700,14.8196337890625,3.5031189918518066,-0.5524722933769226,0.4906870126724243
1772791456666735000,14.839735107421875,3.70685076713562,-0.22410480678081512,0.6046702265739441
1772791456686836200,14.859836181640626,3.822431802749634,-0.370045930147171,0.6526070833206177
1772791456706937600,14.8799375,2.7643587589263916,-1.3447620868682861,0.58256596326828
1772791456727039000,14.9000390625,1.0479530096054077,-0.8648608326911926,1.1010830402374268
1772791456747140400,14.920140380859374,-1.264734148979187,0.04913527891039848,2.247572898864746
1772791456767241700,14.94024169921875,-1.7273248434066772,0.1692437380552292,3.6369428634643555
1772791456787343000,14.960343017578126,-0.06498107314109802,0.11944267153739929,4.497941970825195
1772791456807444500,14.980444580078125,2.1736702919006348,0.12290477752685547,4.7677202224731445
1772791456827545900,15.0005458984375,2.980074644088745,0.4022701382637024,4.280894756317139
1772791456847647200,15.020647216796876,2.3252038955688477,0.31252169609069824,3.0270795822143555
1772791456867748400,15.040748291015625,2.09031343460083,-0.7846997380256653,1.6137410402297974
1772791456887849700,15.060849609375,3.250917911529541,-1.9263958930969238,0.5362270474433899
1772791456907951000,15.080951171875,5.158006191253662,-1.7133432626724243,-0.3050648272037506
1772791456928052500,15.101052490234375,6.169207572937012,-0.7218492031097412,-0.9074713587760925
1772791456948153900,15.12115380859375,5.2078070640563965,-0.13675320148468018,-1.2646009922027588
1772791456968255200,15.141255126953125,3.436540126800537,0.12237215042114258,-1.7508937120437622
1772791456988356600,15.161356689453125,1.814942717552185,0.5697828531265259,-2.6704823970794678
1772791457008458000,15.1814580078125,1.068192958831787,0.756470263004303,-3.7354795932769775
1772791457028559400,15.201559326171875,1.2876372337341309,1.12478506565094,-4.019372463226318
1772791457048660700,15.22166064453125,1.9646122455596924,1.3431642055511475,-4.018040657043457
1772791457068762000,15.24176220703125,2.576073408126831,1.6584821939468384,-4.418313503265381
1772791457088863500,15.261863525390625,3.2152316570281982,2.6619603633880615,-4.83163595199585
1772791457108964600,15.281964599609376,3.677023410797119,4.086750507354736,-5.001278877258301
1772791457129066000,15.30206591796875,3.842938184738159,4.25239896774292,-3.904057741165161
1772791457149166600,15.32216650390625,4.427501678466797,3.1583731174468994,-0.9479513764381409
1772791457169266700,15.3422666015625,5.521260738372803,1.310939908027649,1.8971011638641357
1772791457189366800,15.36236669921875,4.94149112701416,0.7764439582824707,0.9777787327766418
1772791457209467100,15.382467041015625,2.1811270713806152,2.113882303237915,-0.708267092704773
1772791457229567200,15.402567138671875,0.9970866441726685,1.1772493124008179,1.2675304412841797
1772791457249667300,15.422667236328126,2.1920459270477295,0.003328948514536023,3.100848913192749
1772791457269767400,15.442767333984374,3.6706318855285645,0.3391532599925995,3.11869215965271
1772791457289867500,15.462867431640625,4.592350959777832,0.6624607443809509,3.957587242126465
1772791457309967600,15.482967529296875,5.031506061553955,0.46618595719337463,4.9687886238098145
1772791457330067700,15.503067626953126,4.9428229331970215,0.5202480554580688,4.749077796936035
1772791457350168000,15.52316796875,4.654402732849121,0.5588638782501221,3.3743553161621094
1772791457370268200,15.54326806640625,4.468247890472412,0.19001637399196625,1.8688716888427734
1772791457390368300,15.5633681640625,3.9081854820251465,-0.41212382912635803,0.6837660074234009
1772791457410468400,15.58346826171875,2.8274757862091064,-0.8350334167480469,-0.2198437601327896
1772791457430568400,15.603568359375,1.9254637956619263,-1.4515546560287476,-0.46485435962677
1772791457470768600,15.6437685546875,1.4218604564666748,-2.3056297302246094,0.44594594836235046
1772791457490868700,15.66386865234375,1.3299815654754639,-2.0789949893951416,0.5221123099327087
1772791457510968800,15.68396875,0.9006803035736084,-1.6486284732818604,0.3351585268974304
1772791457531069000,15.70406884765625,0.4346275329589844,-1.1309103965759277,0.1098553016781807
1772791457551169300,15.724169189453125,0.2700442969799042,-0.5455480813980103,0.18761953711509705
1772791457571269400,15.744269287109375,0.23568955063819885,-0.13781847059726715,0.4989427924156189
1772791457591369500,15.764369384765626,-0.008788423612713814,0.025433165952563286,0.8427566289901733
1772791457611469600,15.784469482421875,-0.7683213353157043,-0.05632580816745758,1.073119878768921
1772791457631569700,15.804569580078125,-1.8181384801864624,-0.4243743419647217,0.922385036945343
1772791457651670000,15.824669921875,-2.577138900756836,-0.8150597810745239,0.5367596745491028
1772791457671770600,15.8447705078125,-2.775277853012085,-1.4835126399993896,0.6041375994682312
1772791457691871200,15.864871337890625,-2.703106164932251,-2.4744739532470703,1.1306440830230713
1772791457711971800,15.884971923828125,-2.8557052612304688,-2.862229824066162,0.9197219014167786
1772791457732072400,15.905072509765626,-3.3286821842193604,-2.872882604598999,-1.035302996635437
1772791457752173000,15.925173095703125,-3.992607593536377,-4.551205158233643,-1.3468925952911377
1772791457772273700,15.945273681640625,-4.688757419586182,-5.546693801879883,-1.4656693935394287
1772791457792374300,15.965374267578126,-4.228031158447266,-3.605517625808716,-4.6334967613220215
1772791457812475000,15.985474853515624,-3.164365291595459,-0.7149249911308289,-8.768051147460938
1772791457832575200,16.0055751953125,-2.5454471111297607,1.979659080505371,-10.63785457611084
1772791457852675800,16.02567578125,-2.0088207721710205,2.807901382446289,-7.021551132202148
1772791457872776400,16.0457763671875,-0.5566002130508423,2.6851298809051514,-3.078212022781372
1772791457892877000,16.065876953125,0.047404225915670395,2.4925835132598877,-2.4417171478271484
1772791457912977700,16.085977783203123,-0.40666434168815613,1.5745925903320312,-1.704554796218872
1772791457933078300,16.106078369140626,-0.9885645508766174,0.1045289859175682,-0.6752439141273499
1772791457953179000,16.126178955078124,-1.2159982919692993,-0.9532777070999146,-0.20040270686149597
1772791457973279500,16.146279541015623,-1.0759161710739136,-1.295227289199829,-0.20253323018550873
1772791457993380000,16.166380126953126,-0.7619297504425049,-1.1796462535858154,-0.04034685716032982
1772791458013480400,16.18648046875,-0.4937496483325958,-0.9266461133956909,0.2997385263442993
1772791458033581000,16.2065810546875,-0.3760380148887634,-0.6773744225502014,0.7053375840187073
1772791458053681700,16.226681640625,-0.23568955063819885,-0.5207806825637817,1.23610520362854
1772791458073782300,16.2467822265625,0.03568632900714874,-0.4576638340950012,1.7322516441345215
1772791458113983500,16.2869833984375,0.7914907932281494,-0.5644565224647522,2.7085657119750977
1772791458134084000,16.307083984375,1.0474203824996948,-0.6904239058494568,3.0254814624786377
1772791458154185500,16.327185546875,1.2825772762298584,-1.1034798622131348,3.2395994663238525
1772791458174287000,16.347287109375,1.4847110509872437,-1.3764536380767822,3.522160768508911
1772791458194388700,16.367388671875,1.4980268478393555,-1.4510220289230347,3.5589122772216797
1772791458214490000,16.387489990234375,1.2570109367370605,-1.4859094619750977,3.3099069595336914
1772791458234591700,16.407591796875,1.0538119077682495,-1.1495524644851685,3.1567752361297607
1772791458254693400,16.427693359375,1.0628666877746582,-1.0427597761154175,4.108588218688965
1772791458274795000,16.447794921875,1.0175930261611938,-0.9317061305046082,5.565069675445557
1772791458294896600,16.467896728515626,0.738760232925415,0.94502192735672,4.020437717437744
1772791458314998300,16.487998291015625,1.13823401927948,3.2627689838409424,1.6803200244903564
1772791458335099600,16.508099609375,1.4157352447509766,5.414335250854492,-0.2246374487876892
1772791458355201300,16.528201171875,1.7616795301437378,6.6420512199401855,-1.045689344406128
1772791458375303000,16.548302978515625,2.189382791519165,6.996517658233643,-0.7721828818321228
1772791458415506200,16.588506103515623,2.899380922317505,7.332608222961426,0.37856802344322205
1772791458455709200,16.628709228515625,3.457312822341919,3.713641881942749,-0.47231122851371765
1772791458475810800,16.648810791015624,1.259674072265625,1.2472903728485107,0.020373165607452393
1772791458495912400,16.668912353515626,-0.14034846425056458,-0.40626487135887146,-0.3705785572528839
1772791458516014000,16.68901416015625,-0.1880190074443817,-1.0086714029312134,-0.1753690093755722
1772791458536115700,16.70911572265625,0.37071171402931213,-1.1381008625030518,-0.08961529284715652
1772791458556217300,16.72921728515625,0.8018771409988403,-0.9761808514595032,-0.17670059204101562
1772791458576318700,16.749318603515626,1.004809856414795,-0.8448871374130249,-0.2137184888124466
1772791458596420400,16.76942041015625,0.9206539988517761,-0.6502102017402649,-0.48855647444725037
1772791458616522000,16.78952197265625,0.7012097239494324,-0.47577333450317383,-1.0193240642547607
1772791458636623600,16.80962353515625,0.5344959497451782,-0.27337324619293213,-1.3359736204147339
1772791458656725800,16.829725830078125,0.6016075611114502,-0.058456335216760635,-1.2954936027526855
1772791458676828000,16.849827880859376,0.8484823703765869,-0.09387634694576263,-1.029976725578308
1772791458696930000,16.869929931640623,1.0293108224868774,-0.4017375111579895,-0.4443480372428894
1772791458737134300,16.91013427734375,0.5901560187339783,-1.3964272737503052,1.0408955812454224
1772791458757236500,16.930236572265624,-0.20985691249370575,-1.8374464511871338,1.5937674045562744
1772791458777338600,16.950338623046875,-1.1243855953216553,-2.1474380493164062,1.9285264015197754
1772791458797440800,16.970440673828126,-1.6327826976776123,-2.5080296993255615,1.9892464876174927
1772791458817543000,16.99054296875,-1.5297183990478516,-2.6731457710266113,1.5809842348098755
1772791458857747200,17.030747314453127,-0.22530323266983032,-1.70695161819458,0.6302365064620972
1772791458877849300,17.050849365234374,0.10173266381025314,-0.884035587310791,-0.1050616130232811
1772791458897951500,17.070951416015625,0.0684431791305542,0.03688475117087364,-1.5945663452148438
1772791458918053600,17.0910537109375,-0.04420843720436096,0.9663271903991699,-3.559178590774536
1772791458938156000,17.111156005859375,-0.38509276509284973,1.868605375289917,-5.44442892074585
1772791458958258200,17.131258056640625,-1.0183919668197632,2.437189817428589,-6.885197639465332
1772791458978360000,17.151360107421876,-1.5060162544250488,2.0771307945251465,-7.741403102874756
1772791458998462500,17.17146240234375,-1.750760555267334,1.0195903778076172,-8.335021018981934
1772791459018564600,17.191564697265626,-2.027729034423828,1.1378345489501953,-9.851956367492676
1772791459038666800,17.211666748046873,-1.5371752977371216,1.7413064241409302,-11.626152992248535
1772791459058769000,17.231768798828124,0.2767021954059601,1.033438801765442,-11.155572891235352
1772791459078871000,17.25187109375,1.2239878177642822,1.595897912979126,-9.711874008178711
1772791459098973200,17.27197314453125,-0.1693768948316574,2.5509066581726074,-6.2779974937438965
1772791459119075300,17.292075439453125,-1.520397424697876,1.2510188817977905,-2.545846700668335
1772791459139177200,17.31217724609375,-2.1084227561950684,-0.016378426924347878,-0.9897629618644714
1772791459159277800,17.33227783203125,-1.7784574031829834,-0.12769846618175507,-0.9343692660331726
1772791459179378400,17.35237841796875,-0.9707213640213013,0.3572627604007721,-0.4912196397781372
1772791459199479000,17.37247900390625,-0.1885516494512558,0.5588638782501221,0.30399957299232483
1772791459219579600,17.39257958984375,0.34914010763168335,0.3798995912075043,0.7759113311767578
1772791459239680300,17.41268017578125,0.6543381214141846,0.003328948514536023,0.8800408244132996
1772791459259780900,17.43278076171875,0.7267760634422302,-0.4257059395313263,0.8885629177093506
1772791459279881500,17.452881591796874,0.6708496809005737,-0.6555365324020386,0.7215828895568848
1772791459299982000,17.472982177734377,0.5603286027908325,-0.5149217844009399,0.5324985980987549
1772791459320082700,17.493082763671875,0.43915489315986633,0.062184758484363556,0.4605933129787445
1772791459340183300,17.513183349609374,0.48549383878707886,0.5133238434791565,0.4952143728733063
1772791459360284000,17.533283935546876,0.6455497145652771,0.7828355431556702,0.5293028354644775
1772791459380384500,17.553384521484375,0.9113329648971558,0.9490166306495667,0.5293028354644775
1772791459400485000,17.573485107421874,1.2301130294799805,1.1404978036880493,0.3980090916156769
1772791459420585700,17.593585693359376,1.5803184509277344,1.320793628692627,0.4107922613620758
1772791459440686300,17.613686279296875,2.0674102306365967,0.9988177418708801,1.0012145042419434
1772791459460787000,17.633786865234374,2.3816628456115723,0.26698166131973267,1.241431474685669
1772791459480887600,17.653887451171876,2.2421133518218994,-0.12450267374515533,0.9468861222267151
1772791459500988200,17.67398828125,1.822399616241455,-0.41398802399635315,1.3242557048797607
1772791459521088800,17.6940888671875,1.6247931718826294,-0.7394260168075562,2.1921792030334473
1772791459541189400,17.714189453125,1.7992300987243652,-1.213468313217163,2.954641580581665
1772791459561290000,17.7342900390625,2.0564911365509033,-1.5996263027191162,3.650524854660034
1772791459581390600,17.754390625,2.070605993270874,-1.7290558815002441,4.677172660827637
1772791459601491200,17.7744912109375,1.852759599685669,-1.784449577331543,5.794101238250732
1772791459621591800,17.794591796875,1.4950973987579346,-1.8504959344863892,6.418612003326416
1772791459641692400,17.8146923828125,1.1004172563552856,-1.7729979753494263,6.148035049438477
1772791459661793800,17.834793701171876,0.7933549880981445,-1.4185315370559692,5.344560146331787
1772791459681895200,17.854895263671875,0.6466149687767029,-0.8456860780715942,4.340282917022705
1772791459701996300,17.874996337890625,0.7858981490135193,-0.24487745761871338,3.414569139480591
1772791459722097700,17.89509765625,1.0436919927597046,0.09973529726266861,3.06862473487854
1772791459742198800,17.91519873046875,1.148620367050171,-0.011318424716591835,3.116827964782715
1772791459762300200,17.935300048828125,0.8740487098693848,-0.46032699942588806,3.193793296813965
1772791459782401300,17.9554013671875,0.1062600389122963,-1.0443577766418457,3.2246859073638916
1772791459802502700,17.975502685546875,-0.9115992784500122,-1.905889630317688,3.43560791015625
1772791459822604000,17.99560400390625,-1.8791248798370361,-2.6702160835266113,3.794069290161133
1772791459842705200,18.015705078125,-2.3286659717559814,-2.9064383506774902,3.795400857925415
1772791459862806500,18.035806640625,-2.302833318710327,-2.861697196960449,3.1173605918884277
1772791459882907600,18.05590771484375,-1.8719342947006226,-2.1261327266693115,2.0193402767181396
1772791459903009000,18.076009033203125,-1.12624990940094,-1.56047785282135,0.7072018384933472
1772791459943211500,18.11621142578125,0.522245466709137,-1.7181369066238403,-1.378051519393921
1772791459963313000,18.13631298828125,0.7134602665901184,-2.2401161193847656,-1.9764633178710938
1772791459983414000,18.1564140625,0.3028011620044708,-2.7173540592193604,-2.249969720840454
1772791460003515400,18.176515380859374,-0.13795162737369537,-2.9631636142730713,-2.657433032989502
1772791460023616500,18.196616455078125,-0.45247069001197815,-2.8140268325805664,-3.3202931880950928
1772791460043718000,18.2167177734375,-0.8407592177391052,-2.2467739582061768,-3.961315631866455
1772791460063819000,18.236819091796875,-1.1728551387786865,-1.7948359251022339,-4.37650203704834
1772791460083920400,18.25692041015625,-1.2583425045013428,-1.3556809425354004,-4.740289688110352
1772791460104021800,18.277021728515624,-1.1558109521865845,-0.6203828454017639,-5.167993068695068
1772791460124123000,18.297122802734375,-0.9672592878341675,-0.12183951586484909,-5.491034030914307
1772791460144224000,18.31722412109375,-0.7528749704360962,0.05446159839630127,-5.589038372039795
1772791460164325000,18.3373251953125,-0.690557062625885,0.17563532292842865,-5.246822357177734
1772791460184426500,18.357426513671875,-0.7315697073936462,0.5828322768211365,-4.720315933227539
1772791460204527600,18.377527587890626,-0.6617949604988098,0.9218524098396301,-4.619381904602051
1772791460224628700,18.397628662109376,-0.44288331270217896,1.3447620868682861,-5.31819486618042
1772791460244729900,18.417729736328123,-0.4210454225540161,1.8574200868606567,-6.849245071411133
1772791460264831000,18.4378310546875,-0.6444844603538513,2.400171995162964,-8.018637657165527
1772791460284932000,18.45793212890625,-0.8841687440872192,3.1053762435913086,-5.988778591156006
1772791460305033200,18.478033203125,-0.9890971779823303,2.863295078277588,-2.171672821044922
1772791460325134300,18.49813427734375,-1.5017552375793457,2.176999092102051,0.5833649635314941
1772791460345235500,18.5182353515625,-2.4546334743499756,1.7833843231201172,2.1194748878479004
1772791460365336600,18.538336669921875,-3.6740939617156982,1.774595856666565,2.8451857566833496
1772791460385437700,18.558437744140626,-4.35559606552124,1.4084115028381348,3.2734217643737793
1772791460405538800,18.578538818359377,-3.772364377975464,0.9793766736984253,3.852658748626709
1772791460425640200,18.59864013671875,-2.286588191986084,1.353017807006836,4.353865146636963
1772791460445741300,18.6187412109375,-0.8796413540840149,2.203364372253418,4.491550445556641
1772791460465842400,18.638842529296873,-0.3475422263145447,2.733333110809326,3.853990316390991
1772791460485943600,18.658943603515624,-0.7843002676963806,2.338120222091675,2.854506731033325
1772791460506044700,18.679044677734375,-1.3954951763153076,1.5178673267364502,2.056091785430908
1772791460526145800,18.699145751953125,-1.7241289615631104,0.7522091865539551,1.6656726598739624
1772791460546247000,18.719246826171876,-1.7598153352737427,0.16285216808319092,1.439304232597351
1772791460566348000,18.73934814453125,-1.584313154220581,-0.19134795665740967,1.1282472610473633
1772791460586449200,18.75944921875,-1.312138319015503,-0.3535343408584595,0.5918870568275452
1772791460606550300,18.77955029296875,-0.9837708473205566,-0.18655426800251007,0.03715106472373009
1772791460626651400,18.7996513671875,-0.6237117648124695,-0.08029423654079437,-0.2544648349285126
1772791460646752500,18.81975244140625,-0.36298853158950806,-0.14554162323474884,-0.3279680013656616
1772791460666853000,18.83985302734375,-0.4210454225540161,-0.216115340590477,-0.23449113965034485
1772791460686953700,18.85995361328125,-0.8633961081504822,-0.26272061467170715,-0.2299637645483017
1772791460707054600,18.8800546875,-1.3928320407867432,-0.19667427241802216,-0.3561974763870239
1772791460727155200,18.9001552734375,-1.6546205282211304,-0.13488899171352386,-0.4033353924751282
1772791460747255800,18.920255859375,-1.4343773126602173,-0.3255711793899536,-0.1988048106431961
1772791460767356700,18.940356689453125,-0.74248868227005,-0.5945501923561096,0.43795645236968994
1772791460787457300,18.960457275390624,0.1110537201166153,-0.6065344214439392,0.9455545544624329
1772791460807558000,18.980557861328126,0.5882917642593384,0.11944267153739929,-0.5775060057640076
1772791460827658800,19.00065869140625,0.6010749340057373,2.0731360912323,-4.629768371582031
1772791460847759400,19.02075927734375,0.26578325033187866,4.431363105773926,-7.5872063636779785
1772791460867860000,19.04085986328125,0.16911058127880096,4.507795810699463,-6.77254581451416
1772791460887960600,19.060960693359377,0.7965508103370667,2.9232163429260254,-3.467832326889038
1772791460908061400,19.0810615234375,1.0817750692367554,1.9317222833633423,-2.3431801795959473
1772791460928162000,19.101162109375,1.445296287536621,0.49920910596847534,-2.9889962673187256
1772791460948262700,19.1212626953125,1.5217289924621582,0.17190690338611603,-3.2622363567352295
1772791460968363500,19.141363525390624,0.24873903393745422,0.6440849304199219,-1.4273200035095215
1772791460988464000,19.161464111328126,-1.1592730283737183,-0.4131890833377838,1.4811158180236816
1772791461008564700,19.181564697265625,-2.1686103343963623,-1.2614052295684814,2.5897886753082275
1772791461028665300,19.201665283203123,-2.4807324409484863,-1.5048178434371948,2.6595635414123535
1772791461048766200,19.22176611328125,-2.3089587688446045,-1.3777852058410645,2.7293384075164795
1772791461068866800,19.24186669921875,-2.1694092750549316,-0.8970850706100464,3.0433247089385986
1772791461088967400,19.261967529296875,-1.6884427070617676,-0.24940481781959534,3.15384578704834
1772791461109068300,19.282068359375,-0.9984182119369507,0.19054901599884033,2.811363697052002
1772791461129169000,19.3021689453125,-0.3866906464099884,0.11464899033308029,2.3330602645874023
1772791461149269500,19.32226953125,-0.20879164338111877,-0.2504700720310211,2.0329222679138184
1772791461169370000,19.3423701171875,-0.39707696437835693,-0.7740471363067627,1.841174840927124
1772791461189470700,19.362470703125,-0.6135917901992798,-1.3428977727890015,1.7165390253067017
1772791461209571300,19.3825712890625,-0.6197170615196228,-1.620398998260498,1.3905683755874634
1772791461229672000,19.402671875,-0.2948116660118103,-1.3966935873031616,0.7623292207717896
1772791461249772500,19.4227724609375,0.24421165883541107,-0.9953556060791016,0.20812585949897766
1772791461269873200,19.442873046875,0.8572708368301392,-0.5253080725669861,-0.04673843830823898
1772791461289973500,19.462973388671877,1.3028173446655273,-0.08508792519569397,-0.09440898150205612
1772791461310074400,19.483074462890624,1.4705963134765625,0.3495396077632904,-0.16844479739665985
1772791461330174700,19.5031748046875,1.2407656908035278,0.9106671810150146,-0.2707100808620453
1772791461350275300,19.523275390625,0.8996150493621826,1.1527483463287354,-0.17696690559387207
1772791461370376000,19.5433759765625,0.7920234203338623,0.8414250016212463,0.29760798811912537
1772791461390476500,19.5634765625,0.654604434967041,0.27417218685150146,0.9096018671989441
1772791461410577200,19.5835771484375,0.12410320341587067,0.03715106472373009,1.226251482963562
1772791461430677800,19.603677734375,-0.7472823858261108,0.03741738200187683,1.1266493797302246
1772791461450778400,19.6237783203125,-1.4788520336151123,-0.07789739221334457,0.9687240123748779
1772791461470879000,19.64387890625,-1.830122709274292,-0.13728584349155426,0.9719198346138
1772791461490979600,19.6639794921875,-2.031723976135254,-0.11997530609369278,1.1844398975372314
1772791461511080200,19.684080078125,-2.219210147857666,-0.15512900054454803,1.2803136110305786
1772791461531180800,19.704180908203124,-2.4290671348571777,0.1356879472732544,0.941293478012085
1772791461551281400,19.724281494140627,-2.475139856338501,0.4430164694786072,0.48189857602119446
1772791461571382000,19.744382080078125,-2.328932285308838,0.5314333438873291,0.44887542724609375
1772791461591482400,19.764482421875,-2.253298759460449,0.33302801847457886,0.9111998081207275
1772791461611583000,19.7845830078125,-2.551572561264038,0.17164058983325958,1.3282504081726074
1772791461631683600,19.80468359375,-2.709231376647949,-0.0864195004105568,0.49255120754241943
1772791461651784700,19.82478466796875,-2.509228229522705,0.5767070651054382,-1.9524948596954346
1772791461671885800,19.8448857421875,-2.130793333053589,1.9165422916412354,-5.5512213706970215
1772791461691987000,19.864987060546873,-1.9773954153060913,3.203380584716797,-8.136083602905273
1772791461712088000,19.885088134765624,-1.5909711122512817,3.795933485031128,-7.122485160827637
1772791461732189200,19.905189208984375,-0.10226529836654663,3.125349998474121,-3.275552272796631
1772791461752290300,19.925290283203125,1.3129372596740723,2.397242307662964,-1.3535504341125488
1772791461792492500,19.965492431640627,-1.2066771984100342,-1.1381008625030518,0.3633880317211151
1772791461812593700,19.98559375,-3.7238950729370117,-2.0433084964752197,1.5407705307006836
1772791461832694800,20.00569482421875,-5.102345943450928,-2.3791329860687256,2.4787349700927734
1772791461852796000,20.0257958984375,-5.209404945373535,-2.1775317192077637,2.992192029953003
1772791461872897300,20.045897216796874,-4.4714436531066895,-0.9072050452232361,2.9328036308288574
1772791461892998100,20.065998046875,-3.307643175125122,0.6147902011871338,3.755985975265503
1772791461913099500,20.086099609375,-2.3297312259674072,1.2318440675735474,5.1466875076293945
1772791461933200600,20.10620068359375,-1.4964289665222168,1.2233220338821411,5.724859237670898
1772791461953301800,20.1263017578125,-1.1371687650680542,0.7213165760040283,4.399405002593994
1772791461973403000,20.14640283203125,-1.080976128578186,-0.48855647444725037,2.098435878753662
1772791461993504000,20.16650390625,-1.0404961109161377,-0.9812408685684204,1.2142672538757324
1772791462013605000,20.186605224609377,-0.6527402400970459,-1.7386432886123657,1.9335864782333374
1772791462033706200,20.206706298828124,-0.1693768948316574,-2.1136159896850586,3.232675313949585
1772791462053807400,20.226807373046874,-0.4162517189979553,-2.328799247741699,3.4843437671661377
1772791462073908500,20.246908447265625,-1.3813804388046265,-2.260622262954712,2.8595666885375977
1772791462094009600,20.267009521484376,-1.689241647720337,-1.6038874387741089,2.531465530395508
1772791462134211800,20.3072119140625,-0.20586217939853668,1.704554796218872,2.032655954360962
1772791462154314500,20.327314453125,0.5347622632980347,1.8896443843841553,-1.0763156414031982
1772791462174417200,20.347417236328123,0.830905556678772,2.759432077407837,-1.7479642629623413
1772791462194519800,20.367519775390626,3.213367462158203,3.2854058742523193,-0.46805015206336975
1772791462214622500,20.38762255859375,3.7063181400299072,4.40712833404541,0.6896249651908875
1772791462234725400,20.407725341796876,3.263967514038086,5.468131065368652,0.5125249028205872
1772791462254828000,20.427828125,1.8724669218063354,3.9538586139678955,0.6225133538246155
1772791462274930700,20.4479306640625,0.2631200850009918,-0.8946881890296936,1.285373568534851
1772791462295033300,20.468033447265626,0.6974812746047974,-3.1141648292541504,1.402552604675293
1772791462315136300,20.48813623046875,1.7811206579208374,-1.739974856376648,1.0768482685089111
1772791462335239000,20.508239013671876,1.7805880308151245,-0.036352116614580154,0.774846076965332
1772791462355341600,20.528341552734375,1.4266542196273804,0.48855647444725037,0.6691186428070068
1772791462375444200,20.5484443359375,1.1643329858779907,-0.3783017098903656,0.7732481360435486
1772791462395547100,20.568547119140625,0.9965540170669556,-1.2891020774841309,1.20920729637146
1772791462415649800,20.58864990234375,1.0319740772247314,-0.8725839853286743,1.6896411180496216
1772791462435752400,20.60875244140625,0.921186625957489,1.1138662099838257,1.4078788757324219
1772791462455855000,20.628855224609374,0.6290380954742432,1.9967032670974731,0.9649956226348877
1772791462475958000,20.6489580078125,0.29987168312072754,1.0012145042419434,0.6550039052963257
1772791462496060700,20.669060791015625,-0.10199898481369019,0.043276332318782806,0.27710166573524475
1772791462516163300,20.689163330078124,-0.22024323046207428,-0.2246374487876892,0.18948374688625336
1772791462536266000,20.709265869140626,-0.23329271376132965,-0.029161589220166206,0.5063996315002441
1772791462556369000,20.729368896484374,-0.2977411448955536,0.307461678981781,0.30053746700286865
1772791462576471600,20.749471435546877,-0.407196968793869,0.06458160281181335,-0.28322693705558777
1772791462596574200,20.76957421875,-0.3430148661136627,-0.44887542724609375,-0.6608628630638123
1772791462636779800,20.80977978515625,0.08602003008127213,1.5753916501998901,-0.556999683380127
1772791462656881000,20.829880859375,-0.09880319237709045,0.3620564341545105,-0.5607280731201172
1772791462676982300,20.849982177734375,-0.04447475075721741,-1.3325115442276,-0.719186007976532
1772791462697083400,20.87008349609375,0.37923380732536316,0.19241322576999664,-1.4395705461502075
1772791462717184500,20.8901845703125,0.7779086828231812,1.7431706190109253,-1.0720546245574951
1772791462737286000,20.910285888671876,0.6748444437980652,0.6470144391059875,0.3655185401439667
1772791462757387000,20.930386962890626,0.46338963508605957,-1.042493462562561,1.4427663087844849
1772791462777488100,20.950488037109373,0.34807485342025757,-0.7274418473243713,0.9892303347587585
1772791462797589500,20.970589599609376,0.3861580193042755,1.007872462272644,-0.42916804552078247
1772791462817690600,20.990690673828126,0.6175865530967712,1.5868431329727173,-0.8227829337120056
1772791462837791700,21.010791748046874,0.9030771255493164,0.884035587310791,-0.016378426924347878
1772791462857893000,21.03089306640625,0.9478182196617126,0.05712475627660751,1.035302996635437
1772791462877994200,21.050994140625,0.8362318873405457,-0.0027963167522102594,1.1902987957000732
1772791462898095400,21.071095458984374,0.660729706287384,0.6736460328102112,0.6193175911903381
1772791462918196700,21.09119677734375,0.49561384320259094,1.1980220079421997,0.18948374688625336
1772791462938297900,21.1112978515625,0.342215895652771,1.2371704578399658,0.30399957299232483
1772791462958399000,21.13139892578125,0.22370533645153046,0.7103976011276245,0.796151340007782
1772791462978500400,21.151500244140625,0.1278316229581833,-0.003861580276861787,1.0898977518081665
1772791462998601500,21.1716015625,0.13555479049682617,-0.11917635798454285,0.5956154465675354
1772791463018702600,21.19170263671875,0.20985691249370575,0.45420172810554504,-0.23635534942150116
1772791463038804000,21.211803955078125,0.27830010652542114,0.8483492136001587,-0.647280752658844
1772791463058905000,21.231905029296875,0.40666434168815613,0.8944218754768372,-0.3279680013656616
1772791463079006200,21.252006103515626,0.5038696527481079,0.5791038870811462,0.23102903366088867
1772791463099107600,21.272107666015625,0.5938844084739685,0.28429219126701355,0.5213133096694946
1772791463119208700,21.292208740234376,0.6825675964355469,0.4382227957248688,0.3727090656757355
1772791463139309800,21.312309814453126,0.6769749522209167,0.856605052947998,-0.031558431684970856
1772791463159410400,21.332410400390625,0.6657897233963013,1.0387650728225708,-0.27470484375953674
1772791463179511000,21.352510986328124,0.660729706287384,0.7343660593032837,-0.216115340590477
1772791463199611600,21.372611572265626,0.7022749781608582,0.2624543011188507,0.051798440515995026
1772791463219712500,21.39271240234375,0.6985465288162231,0.3295659124851227,0.12929636240005493
1772791463239813000,21.412813232421875,0.5992107391357422,0.5660544037818909,-0.10772477090358734
1772791463259913700,21.432913818359374,0.5384907126426697,0.8057386875152588,-0.5125249028205872
1772791463280014300,21.453014404296876,0.5837644338607788,0.7865639328956604,-0.6480796933174133
1772791463300115000,21.473114990234375,0.6391581296920776,0.456332266330719,-0.4251733124256134
1772791463320215600,21.493215576171874,0.7099981307983398,0.04034685716032982,-0.1399489939212799
1772791463340316200,21.513316162109376,0.7712507843971252,-0.12290477752685547,-0.0954742431640625
1772791463360416800,21.533416748046875,0.7126613259315491,0.05206475406885147,-0.3367564380168915
1772791463380517600,21.553517578125,0.604004442691803,0.10319740325212479,-0.5993438959121704
1772791463400618200,21.5736181640625,0.5400885939598083,0.17936374247074127,-1.1309103965759277
1772791463420718800,21.59371875,0.6066675782203674,0.4523375332355499,-1.5900390148162842
1772791463440819500,21.6138193359375,0.7225149869918823,0.45127224922180176,-1.8963022232055664
1772791463460920000,21.633920166015624,0.7267760634422302,0.16311848163604736,-1.9418421983718872
1772791463481020700,21.654020751953126,0.5832318067550659,-0.07816371321678162,-1.8046895265579224
1772791463501121300,21.674121337890625,0.457530677318573,-0.3050648272037506,-1.669667363166809
1772791463541322500,21.714322509765626,0.33822116255760193,-1.3468925952911377,-1.1436935663223267
1772791463561423400,21.73442333984375,0.010652635246515274,-1.6883095502853394,-0.7815039753913879
1772791463581524000,21.75452392578125,-0.39840856194496155,-1.9176075458526611,-0.5048017501831055
1772791463601624600,21.77462451171875,-0.724112868309021,-2.36688232421875,-0.28855326771736145
1772791463621725200,21.79472509765625,-1.0253161191940308,-2.4555656909942627,0.18335849046707153
1772791463641825800,21.81482568359375,-1.2684625387191772,-1.9892464876174927,0.7117291688919067
1772791463661927000,21.834927001953126,-1.4495573043823242,-1.6622105836868286,1.4110746383666992
1772791463682027800,21.85502783203125,-1.549692153930664,-1.8723337650299072,2.153829574584961
1772791463702129000,21.87512890625,-1.3432973623275757,-1.7285232543945312,2.2443771362304688
1772791463722229800,21.895229736328126,-1.1126677989959717,-1.073119878768921,2.0097527503967285
1772791463742331000,21.915330810546877,-1.0628666877746582,-0.6494112610816956,1.699761152267456
1772791463762431700,21.935431640625,-1.0402297973632812,-0.8653934597969055,1.581250548362732
1772791463782532900,21.955532958984374,-1.1827088594436646,-1.5040189027786255,1.8251959085464478
1772791463802633700,21.9756337890625,-1.4053488969802856,-2.104827642440796,1.7285232543945312
1772791463822734800,21.99573486328125,-1.798431158065796,-2.2877864837646484,1.1881682872772217
1772791463842835700,22.015835693359374,-2.0295932292938232,-1.967941164970398,0.5024049282073975
1772791463862936600,22.0359365234375,-1.8239974975585938,-1.261671543121338,-0.25260061025619507
1772791463883037700,22.05603759765625,-1.339568853378296,-0.6861628890037537,-0.96446293592453
1772791463903138600,22.076138671875,-0.818122386932373,-0.3982754051685333,-1.1186598539352417
1772791463923239700,22.09623974609375,-0.46259069442749023,-0.23342587053775787,-0.6637923121452332
1772791463943340500,22.116340576171876,-0.19174742698669434,0.21824586391448975,-0.199337437748909
1772791463963441700,22.136441650390626,0.10732530057430267,0.6246439218521118,0.26804694533348083
1772791463983542500,22.15654248046875,0.26738113164901733,0.32344064116477966,0.5378249287605286
1772791464003643600,22.1766435546875,-0.10199898481369019,-0.41345539689064026,0.4845617413520813
1772791464023744500,22.19674462890625,-0.7267760634422302,-0.33302801847457886,0.6305028200149536
1772791464043845400,22.216845458984373,-0.41651803255081177,-0.45659857988357544,0.9010797739028931
1772791464063946500,22.236946533203124,0.32703590393066406,-0.697880744934082,0.330364853143692
1772791464084047400,22.25704736328125,1.0335719585418701,-0.9234502911567688,-1.3596757650375366
1772791464104148500,22.2771484375,1.782718539237976,-0.7237133979797363,-3.085402727127075
1772791464124249300,22.297249267578124,2.3603577613830566,1.4779199361801147,-4.720582008361816
1772791464144350500,22.3173505859375,3.9558560848236084,5.024714946746826,-6.77547550201416
1772791464164451600,22.33745166015625,5.791571617126465,6.961097717285156,-7.792003154754639
1772791464184552700,22.357552734375,6.112215995788574,6.738457679748535,-9.26872444152832
1772791464204653800,22.37765380859375,5.027245044708252,5.493164539337158,-9.669529914855957
1772791464224755000,22.3977548828125,3.6892738342285156,3.591935396194458,-7.203178882598877
1772791464244856000,22.41785595703125,2.4993746280670166,0.6717818379402161,-2.6510415077209473
1772791464264957200,22.437957275390627,1.6969647407531738,-1.2294472455978394,2.2387845516204834
1772791464285058300,22.458058349609374,1.3925657272338867,-2.019073963165283,3.5421342849731445
1772791464305159400,22.478159423828124,1.4152026176452637,-1.183640956878662,2.0915117263793945
1772791464325260500,22.498260498046875,1.7342489957809448,0.33728906512260437,-0.7250449657440186
1772791464345361700,22.518361572265626,1.5313162803649902,1.4512883424758911,-3.211902618408203
1772791464365462800,22.538462890625,0.4748412072658539,1.3221251964569092,-4.699276924133301
1772791464385564000,22.55856396484375,-0.6285054683685303,0.4856269955635071,-4.7522735595703125
1772791464405664800,22.578664794921874,-1.2314445972442627,-0.5878922939300537,-3.8846166133880615
1772791464425766100,22.59876611328125,-1.3643362522125244,-1.2797809839248657,-3.5605101585388184
1772791464445867000,22.618866943359375,-1.2311782836914062,-1.1828420162200928,-3.8638439178466797
1772791464465968000,22.638968017578126,-1.0037446022033691,-0.06378265470266342,-4.5839619636535645
1772791464486069200,22.6590693359375,-1.0530129671096802,0.9080039858818054,-5.137898921966553
1772791464506170400,22.67917041015625,-1.3406341075897217,1.4709957838058472,-5.5155348777771
1772791464526271500,22.699271484375,-0.9621992707252502,1.6145399808883667,-5.358408451080322
1772791464546372600,22.71937255859375,-0.13422320783138275,1.0693913698196411,-4.157057762145996
1772791464566473700,22.7394736328125,-1.2343741655349731,1.2472903728485107,-0.1261005699634552
1772791464586574800,22.759574951171874,-2.792055606842041,0.5977460145950317,5.303281307220459
1772791464606676000,22.779676025390625,-3.222155809402466,-0.030759483575820923,8.074297904968262
1772791464626777000,22.799777099609376,-3.0256147384643555,-0.45180490612983704,9.773126602172852
1772791464646878700,22.819878662109375,-2.6735451221466064,-0.46139225363731384,10.577667236328125
1772791464666980600,22.839980712890625,-1.9523617029190063,0.39135119318962097,9.64449691772461
1772791464687082800,22.860082763671876,-1.4191973209381104,1.834517002105713,7.641800880432129
1772791464707184600,22.8801845703125,-1.4567478895187378,2.1679444313049316,5.894236087799072
1772791464727286500,22.90028662109375,-1.891908049583435,1.243295669555664,4.514986515045166
1772791464747388700,22.920388671875,-1.6647405624389648,0.13622057437896729,3.0899300575256348
1772791464767490600,22.940490478515624,0.06205160170793533,-0.7769765853881836,1.404949426651001
1772791464787592700,22.9605927734375,2.118809223175049,-0.5210469961166382,-0.7378281354904175
1772791464807694600,22.980694580078126,3.4951295852661133,0.481632262468338,-2.5061655044555664
1772791464827796700,23.000796630859377,3.706051826477051,0.7261102795600891,-3.320559501647949
1772791464847898600,23.020898681640624,2.7707505226135254,-1.0957566499710083,-3.6942007541656494
1772791464868000800,23.041000732421875,1.725993275642395,-3.277416467666626,-4.533628463745117
1772791464888102700,23.0611025390625,1.884983777999878,-3.8590502738952637,-6.223935127258301
1772791464908204500,23.08120458984375,2.6354620456695557,-3.453451156616211,-8.630365371704102
1772791464928306700,23.101306640625,2.209090232849121,-2.0531623363494873,-10.286051750183105
1772791464948408600,23.12140869140625,1.0402297973632812,-0.36072486639022827,-11.343591690063477
1772791464968510700,23.1415107421875,0.9864340424537659,0.4504733085632324,-11.03759479522705
1772791464988612600,23.161612548828124,1.2258520126342773,0.48855647444725037,-9.01758861541748
1772791465008714800,23.18171484375,0.9166592359542847,2.0121495723724365,-5.942439556121826
1772791465028816600,23.201816650390626,-0.42610540986061096,5.228713035583496,-3.0534446239471436
1772791465048918800,23.221918701171877,-2.990727424621582,5.4790496826171875,-0.7751123905181885
1772791465069020700,23.242020751953124,-5.492764949798584,2.361556053161621,1.8944380283355713
1772791465089122800,23.262122802734375,-5.7931694984436035,1.5000241994857788,5.818069934844971
1772791465109224700,23.282224609375,-4.664522647857666,4.010583877563477,7.54219913482666
1772791465129326600,23.30232666015625,-2.983004093170166,4.014578819274902,9.026110649108887
1772791465149428200,23.32242822265625,-1.4791183471679688,2.5618255138397217,10.79178524017334
1772791465169529600,23.342529541015626,-1.2317109107971191,3.013763666152954,11.906317710876465
1772791465189631000,23.362630859375,-1.515337347984314,1.5357105731964111,13.085297584533691
1772791465209732400,23.382732421875,-2.207758665084839,-1.3130704164505005,12.503664016723633
1772791465229833700,23.402833740234374,-1.9747322797775269,-1.7588832378387451,9.830385208129883
1772791465249935000,23.42293505859375,-0.7486139535903931,-0.313586950302124,6.663356304168701
1772791465270036500,23.443036376953124,0.4655201733112335,1.5133399963378906,3.6768901348114014
1772791465290137900,23.463137939453127,1.4820479154586792,2.082723379135132,0.9183903336524963
1772791465310239000,23.483239013671874,2.589123010635376,1.0763156414031982,-0.7546060681343079
1772791465330340400,23.50334033203125,3.9409425258636475,-0.3553985357284546,-1.6749937534332275
1772791465350441700,23.523441650390627,5.439235687255859,-1.2057451009750366,-2.360224485397339
1772791465370543000,23.543543212890626,7.008901596069336,-1.6949673891067505,-3.2217564582824707
1772791465390644500,23.56364453125,8.450469017028809,-1.7479642629623413,-3.835348129272461
1772791465410745900,23.583745849609375,7.956719398498535,-1.4954968690872192,-4.679037094116211
1772791465430847200,23.60384716796875,4.799278259277344,-0.8121302723884583,-6.725940704345703
1772791465450948600,23.623948486328125,2.703638792037964,0.20732691884040833,-9.072183609008789
1772791465471050000,23.644050048828124,2.4541008472442627,1.129312515258789,-10.692449569702148
1772791465491151400,23.6641513671875,2.69644832611084,2.3671486377716064,-13.468792915344238
1772791465511252700,23.684252685546873,1.1440930366516113,5.586907863616943,-16.513582229614258
1772791465531354000,23.70435400390625,0.6894918084144592,5.56933069229126,-14.640849113464355
1772791465551455500,23.72445556640625,0.3384874761104584,5.6103434562683105,-10.736924171447754
1772791465571556900,23.744556884765625,-1.8769943714141846,6.67827033996582,-4.798612594604492
1772791465591658000,23.764657958984376,-4.279429912567139,6.3616204261779785,1.997235894203186
1772791465611759400,23.78475927734375,-4.7537384033203125,4.682498931884766,5.579184532165527
1772791465631860700,23.80486083984375,-3.6253581047058105,2.8366637229919434,6.993587970733643
1772791465651961600,23.824961669921876,-1.2114709615707397,3.9645113945007324,7.736876010894775
1772791465672062500,23.8450625,1.1241192817687988,5.664938449859619,8.567248344421387
1772791465712263700,23.885263671875,1.57765531539917,5.913943767547607,13.474651336669922
1772791465732364300,23.9053642578125,0.6458160281181335,4.5690484046936035,15.403044700622559
1772791465752465000,23.92546484375,-0.24421165883541107,2.334125518798828,13.787039756774902
1772791465772565500,23.9455654296875,0.08548739552497864,4.085152626037598,9.380577087402344
1772791465792666400,23.965666259765626,1.4266542196273804,6.350701808929443,4.466783046722412
1772791465812767000,23.98576708984375,2.34144926071167,6.830869197845459,0.14580795168876648
1772791465832867600,24.00586767578125,2.6575660705566406,5.594364643096924,-2.409226655960083
1772791465852968200,24.02596826171875,3.209639072418213,4.5147199630737305,-3.594864845275879
1772791465873068800,24.04606884765625,3.8152413368225098,3.482745885848999,-4.7056684494018555
1772791465893169400,24.06616943359375,3.3180296421051025,1.600158929824829,-5.7498931884765625
1772791465913270300,24.086270263671874,2.2900502681732178,-0.9362334609031677,-7.005306243896484
1772791465933371000,24.106370849609377,2.0785953998565674,-2.5146877765655518,-8.4031982421875
1772791465953471500,24.126471435546875,2.8280084133148193,-3.3935301303863525,-9.784845352172852
1772791465973572000,24.146572021484374,2.7217483520507812,-4.034552574157715,-11.402713775634766
1772791465993672700,24.166672607421877,1.2737888097763062,-3.844935417175293,-13.660273551940918
1772791466013773600,24.186773681640624,0.8660592436790466,-2.7245445251464844,-15.824889183044434
1772791466033874200,24.206874267578126,1.9278606176376343,-0.6446176171302795,-15.587069511413574
1772791466053974800,24.226974853515625,1.4540847539901733,1.4845778942108154,-12.553997039794922
1772791466074075400,24.247075439453123,-0.7222486734390259,5.870001316070557,-4.584761142730713
1772791466094176000,24.267176025390626,-4.403000354766846,6.123268127441406,1.131709337234497
1772791466114276600,24.287276611328124,-6.492781162261963,4.448939800262451,3.1189584732055664
1772791466134377500,24.30737744140625,-5.686376571655273,3.16875958442688,3.744001865386963
1772791466154477800,24.327477783203125,-4.000064373016357,4.4795660972595215,5.371458053588867
1772791466174578700,24.34757861328125,-2.4599597454071045,4.857734680175781,7.642333507537842
1772791466194679300,24.36767919921875,-1.4325131177902222,4.411389350891113,9.810145378112793
1772791466214780000,24.38777978515625,-0.864461362361908,4.056922912597656,10.508158683776855
1772791466234880500,24.407880615234376,-0.04953475296497345,3.6129744052886963,10.570743560791016
1772791466254981000,24.427981201171875,0.8101329207420349,3.3194942474365234,9.919334411621094
1772791466275081700,24.448081787109373,1.3491562604904175,2.7509098052978516,8.856201171875
1772791466295182300,24.468182373046876,1.8018932342529297,1.9719359874725342,7.552585124969482
1772791466315283200,24.488283203125,2.227998733520508,1.5623421669006348,6.262551307678223
1772791466335383800,24.5083837890625,2.730536699295044,1.2179956436157227,4.7629265785217285
1772791466355484400,24.528484375,3.354248523712158,1.6656726598739624,2.6947171688079834
1772791466375585000,24.5485849609375,4.006189823150635,2.706435203552246,0.5982786417007446
1772791466395685600,24.568685546875,4.188083648681641,3.4896700382232666,-1.0137313604354858
1772791466415786200,24.5887861328125,3.498591661453247,3.3141679763793945,-2.273671865463257
1772791466435886800,24.608886962890626,2.610694646835327,2.0515644550323486,-3.4238901138305664
1772791466455992800,24.628992919921874,2.435724973678589,0.7396923303604126,-4.6537370681762695
1772791466476093400,24.649093505859376,2.867689371109009,0.11784477531909943,-6.140045642852783
1772791466496194000,24.669194091796875,3.064230442047119,-0.3817638158798218,-7.240196704864502
1772791466516294700,24.689294677734374,2.2522335052490234,-1.4004220962524414,-7.984549522399902
1772791466536395300,24.709395263671876,1.3179973363876343,-2.414020299911499,-8.797079086303711
1772791466556496000,24.729495849609375,0.8910929560661316,-2.222539186477661,-10.128392219543457
1772791466576596700,24.7495966796875,0.6591318249702454,-2.1290624141693115,-11.62801742553711
1772791466596697300,24.769697265625,0.6841654777526855,-1.640372633934021,-12.677301406860352
1772791466616798000,24.7897978515625,0.5664538741111755,0.15539531409740448,-12.992619514465332
1772791466636898600,24.809898681640625,0.04420843720436096,2.4305319786071777,-11.31775951385498
1772791466657001000,24.8300009765625,-1.6064174175262451,4.63056755065918,-5.862011909484863
1772791466677103600,24.850103515625,-3.7976644039154053,4.800477027893066,-0.5604617595672607
1772791466697206300,24.870206298828126,-4.967057704925537,3.714707136154175,2.4752728939056396
1772791466717308700,24.89030859375,-4.632564544677734,2.3200109004974365,3.752523899078369
1772791466737411300,24.910411376953125,-3.8759613037109375,2.6702160835266113,5.705418109893799
1772791466757514000,24.930513916015624,-2.8162903785705566,3.198054313659668,8.638887405395508
1772791466777616600,24.95061669921875,-2.275402784347534,3.668900728225708,10.593113899230957
1772791466797719000,24.970718994140626,-1.9483669996261597,3.7408061027526855,11.375283241271973
1772791466817821700,24.99082177734375,-1.306812047958374,3.4835448265075684,11.808046340942383
1772791466837924400,25.01092431640625,-0.8519445061683655,2.447309732437134,11.020284652709961
1772791466858027000,25.031027099609375,-0.503337025642395,1.3370388746261597,9.195754051208496
1772791466878129400,25.05112939453125,-0.16192005574703217,1.1335735321044922,6.840989112854004
1772791466898232000,25.071232177734377,-0.08415582031011581,1.5839136838912964,4.816988468170166
1772791466918334700,25.091334716796876,-0.07376950234174728,1.6885758638381958,3.1770153045654297
1772791466938437400,25.111437255859375,0.3896201252937317,1.337837815284729,2.2220065593719482
1772791466978642400,25.151642333984373,2.8381283283233643,1.2800472974777222,-0.41531962156295776
1772791466998745000,25.1717451171875,4.209388732910156,1.0371671915054321,-2.5343949794769287
1772791467018847500,25.191847412109375,5.219258785247803,0.3295659124851227,-4.174101829528809
1772791467038950100,25.2119501953125,5.878922939300537,-0.46032699942588806,-4.587424278259277
1772791467059052800,25.232052734375,5.872531414031982,-1.1463567018508911,-4.692086219787598
1772791467099257900,25.2722578125,4.004858016967773,-2.3282666206359863,-6.82927131652832
1772791467119360500,25.292360595703126,4.1265645027160645,-1.821201205253601,-8.594945907592773
1772791467139463000,25.312462890625,3.737210750579834,0.01717737503349781,-11.05490493774414
1772791467179665000,25.352664794921875,2.3204102516174316,2.7450509071350098,-11.94333553314209
1772791467199766000,25.37276611328125,0.21704743802547455,3.7844817638397217,-8.182954788208008
1772791467219867100,25.3928671875,-2.349172353744507,4.388219833374023,-4.48036527633667
1772791467239968000,25.412968017578127,-3.8221654891967773,4.94668436050415,-1.0118671655654907
1772791467260069000,25.433069091796874,-3.707383394241333,3.667036533355713,0.24541008472442627
1772791467280170000,25.453169921875,-2.7004430294036865,3.075815200805664,1.2701935768127441
1772791467300271000,25.47327099609375,-1.6889753341674805,3.399655342102051,4.325103282928467
1772791467320372200,25.493372314453126,-1.0458225011825562,4.161585330963135,8.665519714355469
1772791467340473000,25.51347314453125,-1.0231856107711792,4.717652797698975,11.448253631591797
1772791467360574200,25.53357421875,-1.096156120300293,4.275834560394287,13.483972549438477
1772791467380675000,25.553675048828126,-0.8551402688026428,3.468897581100464,14.898109436035156
1772791467400776200,25.573776123046876,-0.5177180767059326,1.3961609601974487,14.420605659484863
1772791467420877300,25.593877197265623,-0.5129243731498718,0.17563532292842865,12.02482795715332
1772791467440978200,25.613978271484374,-0.05432844161987305,3.691537618637085,8.479897499084473
1772791467461079300,25.634079345703125,1.3627383708953857,6.499572277069092,4.054259777069092
1772791467481180200,25.65418017578125,2.3299975395202637,5.081439971923828,0.6741786599159241
1772791467501281300,25.67428125,2.5630240440368652,2.109621286392212,-0.41824910044670105
1772791467521382400,25.69438232421875,2.745983123779297,0.3442132771015167,-0.9985513687133789
1772791467541483300,25.714483154296875,2.988330602645874,0.31012484431266785,-2.2369203567504883
1772791467561584400,25.73458447265625,3.419229507446289,1.0869683027267456,-4.064113616943359
