time,seconds_elapsed,z,y,x
1772718022096510500,0.069510498046875,-0.17059139907360077,0.024877671152353287,0.03623305261135101
1772718022116382500,0.089382568359375,-0.2547967731952667,-0.002086273394525051,0.11587068438529968
1772718022136254200,0.109254150390625,-0.29173827171325684,-0.028378203511238098,0.19882309436798096
1772718022156127500,0.12912744140625,-0.2532542943954468,-0.02581264078617096,0.2701191008090973
1772718022175999500,0.14899951171875,-0.1815233677625656,-0.01615704968571663,0.26447540521621704
1772718022195872300,0.168872314453125,-0.15305574238300323,0.005362547002732754,0.20091518759727478
1772718022215744500,0.18874462890625,-0.16670310497283936,0.05559961497783661,0.1582673192024231
1772718022235617300,0.2086171875,-0.15404587984085083,0.10015825927257538,0.23165811598300934
1772718022255489300,0.2284892578125,-0.12667347490787506,0.0778476744890213,0.3515643775463104
1772718022275362600,0.248362548828125,-0.14109838008880615,-0.010946984402835369,0.44197800755500793
1772718022295234600,0.268234619140625,-0.1727328896522522,-0.0103050097823143,0.5223504304885864
1772718022315107300,0.288107421875,-0.14913883805274963,0.09715782105922699,0.6930449604988098
1772718022334979300,0.307979248046875,-0.1576983630657196,-0.008321577683091164,0.8250703811645508
1772718022354852400,0.327852294921875,-0.28422772884368896,-0.35686224699020386,0.834471583366394
1772718022374724400,0.347724365234375,-0.3599666953086853,-0.5738347768783569,0.8334707617759705
1772718022394597400,0.367597412109375,-0.4022786021232605,-0.5788214206695557,0.9851505160331726
1772718022414469400,0.387469482421875,-0.7058321833610535,-0.27832210063934326,1.0756007432937622
1772718022434342400,0.40734228515625,-1.299813151359558,-0.36773255467414856,0.4059291481971741
1772718022454214400,0.42721435546875,-1.5084396600723267,0.13776163756847382,-0.5494647026062012
1772718022474087400,0.44708740234375,-1.0670876502990723,0.48893624544143677,-1.2873905897140503
1772718022493959400,0.46695947265625,-0.2724716067314148,0.6709207892417908,-1.3225589990615845
1772718022513831400,0.48683154296875,0.09976600855588913,0.5901690125465393,-0.7703753709793091
1772718022533704400,0.506704345703125,-0.018044745549559593,0.34817907214164734,0.034790221601724625
1772718022553576400,0.526576416015625,-0.17127011716365814,0.02405453845858574,0.6588857769966125
1772718022573449500,0.546449462890625,-0.03497129678726196,0.035552654415369034,0.5780448317527771
1772718022593321200,0.5663212890625,0.11318299174308777,-0.07705894112586975,0.15849320590496063
1772718022613194500,0.586194580078125,0.05439053848385811,-0.9676345586776733,-0.15290124714374542
1772718022633066500,0.60606640625,0.3891220986843109,-2.6760683059692383,-0.32714319229125977
1772718022652939300,0.625939208984375,1.0039087533950806,-4.548120021820068,0.15124179422855377
1772718022672811500,0.6458115234375,0.738017737865448,-3.6813526153564453,1.038930058479309
1772718022692684300,0.665684326171875,2.454185724258423,-4.213891983032227,1.5247015953063965
1772718022712556300,0.685556396484375,3.364819049835205,-5.679505348205566,1.942755103111267
1772718022732429600,0.7054296875,3.2843148708343506,-6.268522262573242,2.389145851135254
1772718022752301600,0.725301513671875,3.000213146209717,-6.5482683181762695,2.7759313583374023
1772718022772174300,0.74517431640625,2.8963913917541504,-6.482215404510498,2.943188190460205
1772718022792046300,0.76504638671875,3.1898598670959473,-5.96935510635376,2.669456720352173
1772718022811919400,0.78491943359375,3.6626219749450684,-5.320218563079834,1.857720971107483
1772718022831791400,0.804791259765625,4.071158409118652,-4.642839431762695,0.8331735134124756
1772718022851664400,0.824664306640625,4.274241924285889,-3.9943904876708984,0.1220168024301529
1772718022871536400,0.844536376953125,4.451501369476318,-3.5777690410614014,-0.017306143417954445
1772718022891408400,0.864408447265625,4.837565898895264,-3.0918056964874268,0.4415850043296814
1772718022911281400,0.884281494140625,5.458321571350098,-2.5054171085357666,0.8783079385757446
1772718022931153400,0.9041533203125,6.305177688598633,-1.7400270700454712,0.9734219312667847
1772718022951026400,0.9240263671875,7.219843864440918,-0.9584412574768066,0.9431132078170776
1772718022970898400,0.9438984375,7.937376499176025,-0.8710958361625671,0.7340777516365051
1772718022990771200,0.963771240234375,8.346193313598633,-0.9786875247955322,0.21715639531612396
1772718023010643500,0.9836435546875,7.945070266723633,-0.7824070453643799,-0.5416225790977478
1772718023030516500,1.0035166015625,6.981235980987549,-0.23817704617977142,-1.28727388381958
1772718023050388200,1.02338818359375,5.896286964416504,0.45010286569595337,-1.7542697191238403
1772718023070261500,1.043261474609375,4.555047512054443,0.8835728764533997,-1.6224290132522583
1772718023090133500,1.063133544921875,2.9388699531555176,1.1493217945098877,-1.1013091802597046
1772718023110006300,1.08300634765625,1.437556266784668,1.3026463985443115,-0.4822445809841156
1772718023129878500,1.10287841796875,0.6290342807769775,1.2229115962982178,-0.0732545256614685
1772718023149751600,1.12275146484375,0.5667258501052856,1.1000012159347534,0.051840610802173615
1772718023169623300,1.142623291015625,0.9557297229766846,0.9479542970657349,-0.03760281950235367
1772718023189496600,1.16249658203125,1.3364170789718628,0.5961990356445312,-0.1893019825220108
1772718023209368600,1.18236865234375,1.3862074613571167,0.034466229379177094,-0.2828983664512634
1772718023229240300,1.202240234375,1.1400631666183472,-0.5805402994155884,-0.15576955676078796
1772718023249113300,1.22211328125,0.7951894402503967,-1.0314840078353882,0.10108759254217148
1772718023268985600,1.241985595703125,0.41974446177482605,-1.2199673652648926,0.30486828088760376
1772718023288858400,1.2618583984375,-0.008683847263455391,-1.0553401708602905,0.397969126701355
1772718023308730600,1.281730712890625,-0.5373377203941345,-0.7224908471107483,0.37872961163520813
1772718023328603600,1.301603759765625,-1.0466264486312866,-0.3633965849876404,0.29769447445869446
1772718023348475600,1.3214755859375,-1.4609577655792236,-0.04135918617248535,0.23857754468917847
1772718023368348700,1.3413486328125,-1.7735587358474731,0.0907396674156189,0.24131383001804352
1772718023388220700,1.361220703125,-2.030120372772217,0.0604877695441246,0.28189483284950256
1772718023408093700,1.38109375,-2.3001794815063477,-0.00019132159650325775,0.3595336377620697
1772718023427965700,1.400965576171875,-2.574139356613159,-0.09475813060998917,0.4964098036289215
1772718023447838500,1.42083837890625,-2.8292202949523926,-0.25621116161346436,0.6182569861412048
1772718023467710700,1.440710693359375,-3.1511547565460205,-0.35901880264282227,0.7456252574920654
1772718023487583700,1.460583740234375,-3.5678980350494385,-0.3402053415775299,0.8826911449432373
1772718023507455500,1.48045556640625,-3.9730498790740967,-0.32133254408836365,0.9236623644828796
1772718023527328800,1.500328857421875,-4.552764892578125,-0.34550514817237854,0.7752224802970886
1772718023547200800,1.52020068359375,-5.193575859069824,-0.2722885012626648,0.46038058400154114
1772718023567072500,1.540072509765625,-5.657283782958984,-0.09879985451698303,0.2164437174797058
1772718023586945800,1.55994580078125,-5.8474602699279785,0.1437523514032364,0.2018115371465683
1772718023606817800,1.57981787109375,-5.778291702270508,0.3706071078777313,0.26948386430740356
1772718023626690600,1.599690673828125,-5.446595191955566,0.5071369409561157,0.3895406126976013
1772718023646562600,1.6195625,-4.840270519256592,0.6065244674682617,0.5684656500816345
1772718023666435800,1.639435791015625,-3.9577691555023193,0.7468165755271912,0.6707546710968018
1772718023686307600,1.6593076171875,-2.8210911750793457,0.6737220287322998,0.5872183442115784
1772718023706180600,1.6791806640625,-1.799533724784851,0.29097995162010193,0.25482508540153503
1772718023726052900,1.699052978515625,-1.386444091796875,0.016904907301068306,-0.1646232008934021
1772718023745925600,1.718925537109375,-1.3744539022445679,-0.0068771252408623695,-0.49938467144966125
1772718023765797600,1.738797607421875,-1.3298003673553467,0.058299899101257324,-0.6205049753189087
1772718023785670700,1.758670654296875,-1.015351414680481,0.004977370612323284,-0.5735556483268738
1772718023805542700,1.778542724609375,-0.48930832743644714,-0.18847177922725677,-0.4564696252346039
1772718023825415700,1.798415771484375,0.0409177727997303,-0.4617368280887604,-0.2966500520706177
1772718023845287700,1.81828759765625,0.45623964071273804,-0.6730653643608093,-0.12947899103164673
1772718023865159700,1.83815966796875,0.7723036408424377,-0.708920955657959,-0.04604243487119675
1772718023885032700,1.85803271484375,0.9741030335426331,-0.6030833721160889,-0.04975812882184982
1772718023904904700,1.87790478515625,1.1209912300109863,-0.42294836044311523,-0.2146138995885849
1772718023924777700,1.89777783203125,1.3223789930343628,-0.1697263866662979,-0.5499038100242615
1772718023944649700,1.917649658203125,1.5807591676712036,0.0482005700469017,-0.8927541971206665
1772718023964522500,1.9375224609375,1.9477072954177856,0.07762319594621658,-1.1674801111221313
1772718023984394500,1.95739453125,2.5684516429901123,-0.09646407514810562,-1.3373162746429443
1772718024004267800,1.977267822265625,3.4306488037109375,-0.39581653475761414,-1.3514372110366821
1772718024024139500,1.997139404296875,4.337696075439453,-0.6543524861335754,-1.202803373336792
1772718024044012500,2.017012451171875,5.072291374206543,-0.9146602153778076,-0.9389469027519226
1772718024063884800,2.036884765625,5.5645060539245605,-0.978364884853363,-0.6208101511001587
1772718024083757600,2.056757568359375,5.83595085144043,-0.8353871703147888,-0.2844887971878052
1772718024103629600,2.076629638671875,6.005043029785156,-0.6557957530021667,-0.004661030601710081
1772718024123502800,2.0965029296875,6.149896144866943,-0.6669572591781616,0.2295745611190796
1772718024143374600,2.11637451171875,6.172907829284668,-0.8216915130615234,0.44908493757247925
1772718024163247600,2.13624755859375,5.92866325378418,-1.1368908882141113,0.5501641631126404
1772718024183120000,2.156119873046875,5.464609622955322,-1.5737184286117554,0.19271257519721985
1772718024202991600,2.17599169921875,5.180744647979736,-1.8413608074188232,-0.17146022617816925
1772718024222864600,2.19586474609375,3.456537961959839,-1.1144440174102783,-0.08107331395149231
1772718024242736600,2.215736572265625,0.902591347694397,-0.17940972745418549,0.1333685964345932
1772718024262609700,2.235609619140625,-0.9122188091278076,0.10980153828859329,0.4938039183616638
1772718024282481700,2.255481689453125,-1.3719977140426636,0.1319243311882019,0.8298115730285645
1772718024302354700,2.275354736328125,-0.90666264295578,0.19831785559654236,0.8400993347167969
1772718024322226400,2.295226318359375,-0.24728459119796753,0.26090821623802185,0.6708620190620422
1772718024342099500,2.315099365234375,0.11969592422246933,0.12411458790302277,0.4726816415786743
1772718024361971700,2.3349716796875,0.08369890600442886,-0.2140292376279831,0.3193860948085785
1772718024381844500,2.354844482421875,-0.17891572415828705,-0.6677243113517761,0.3808336555957794
1772718024401716500,2.374716552734375,-0.42699483036994934,-1.0006418228149414,0.5527209639549255
1772718024421589500,2.394589599609375,-0.6328256130218506,-1.1440221071243286,0.6503913998603821
1772718024441461500,2.41446142578125,-0.911518394947052,-1.0605933666229248,0.6494070291519165
1772718024461334500,2.43433447265625,-1.3675633668899536,-0.8043232560157776,0.6245663166046143
1772718024481206500,2.45420654296875,-1.9263497591018677,-0.4867754876613617,0.5702177286148071
1772718024501079600,2.47407958984375,-2.449406385421753,-0.22196727991104126,0.4624221622943878
1772718024520951600,2.49395166015625,-2.910430669784546,-0.07297701388597488,0.4259189963340759
1772718024540823600,2.513823486328125,-3.393688440322876,0.0066848015412688255,0.47835105657577515
1772718024560696600,2.533696533203125,-3.949253559112549,0.11600751429796219,0.5582042336463928
1772718024580568600,2.553568603515625,-4.550091743469238,0.285068541765213,0.5754550695419312
1772718024600441300,2.57344140625,-5.068737983703613,0.4949869215488434,0.4993329644203186
1772718024620313600,2.593313720703125,-5.297389507293701,0.5874841213226318,0.32346677780151367
1772718024640186600,2.6131865234375,-5.2552690505981445,0.5125173330307007,0.09315918385982513
1772718024660058600,2.63305859375,-5.025291442871094,0.3663662374019623,-0.08945625275373459
1772718024679931600,2.652931640625,-4.672640800476074,0.23352880775928497,-0.14806954562664032
1772718024699803600,2.6728037109375,-4.252142906188965,0.17642463743686676,-0.08111584186553955
1772718024719676400,2.692676513671875,-3.791555166244507,0.03929181396961212,0.031800322234630585
1772718024739548400,2.71254833984375,-3.351808547973633,-0.17206285893917084,0.13853220641613007
1772718024759421700,2.732421630859375,-2.832573175430298,-0.3098069429397583,0.18524043262004852
1772718024779293400,2.75229345703125,-2.179866075515747,-0.36223116517066956,0.22807709872722626
1772718024799166500,2.77216650390625,-1.5385444164276123,-0.4128253161907196,0.29248568415641785
1772718024819038700,2.792038818359375,-1.0147935152053833,-0.456236869096756,0.29456236958503723
1772718024838910500,2.811910400390625,-0.5842623114585876,-0.43247246742248535,0.23629149794578552
1772718024858783500,2.831783447265625,-0.205400288105011,-0.3320174217224121,0.14728887379169464
1772718024878655500,2.851655517578125,0.17242145538330078,-0.14730988442897797,0.040805548429489136
1772718024898528500,2.871528564453125,0.5918018221855164,0.058685965836048126,-0.06476332992315292
1772718024918400500,2.891400390625,1.0343670845031738,0.1539967805147171,-0.16859622299671173
1772718024938273500,2.9112734375,1.4153567552566528,0.13711495697498322,-0.2344168722629547
1772718024958145500,2.9311455078125,1.7411141395568848,0.09948980808258057,-0.2693762183189392
1772718024978018600,2.9510185546875,2.02756929397583,0.06322042644023895,-0.23500318825244904
1772718024997890600,2.970890625,2.267056941986084,-0.011472625657916069,-0.14336735010147095
1772718025017763600,2.990763671875,2.6339707374572754,-0.10507462918758392,-0.005342933814972639
1772718025037635600,3.010635498046875,3.3112006187438965,-0.3514287769794464,0.15957111120224
1772718025057508400,3.03050830078125,4.227137565612793,-0.8481217622756958,0.43021881580352783
1772718025077380400,3.05038037109375,4.9286370277404785,-1.2712531089782715,0.7907408475875854
1772718025097253600,3.070253662109375,5.293845176696777,-1.491184949874878,1.1411038637161255
1772718025117125600,3.090125732421875,5.295253276824951,-1.5217002630233765,1.323211669921875
1772718025136997400,3.109997314453125,5.017757892608643,-1.3620234727859497,1.1562141180038452
1772718025156870700,3.12987060546875,4.752074718475342,-1.2062177658081055,0.6820236444473267
1772718025176742700,3.14974267578125,4.627047538757324,-0.9715133905410767,0.13502253592014313
1772718025196615400,3.169615478515625,3.4386818408966064,-0.032962724566459656,-0.473771333694458
1772718025216487700,3.18948779296875,1.4971109628677368,1.0373011827468872,-1.124463677406311
1772718025236360400,3.2093603515625,-0.023570388555526733,1.6294387578964233,-1.1610705852508545
1772718025256232400,3.229232421875,-0.4855602979660034,1.6248399019241333,-0.5607392191886902
1772718025276105700,3.249105712890625,-0.23217664659023285,1.1686981916427612,0.18337209522724152
1772718025295977500,3.2689775390625,0.13474918901920319,0.4864402711391449,0.8131856322288513
1772718025315850000,3.28885009765625,0.36885783076286316,-0.1962680220603943,1.2094279527664185
1772718025335722000,3.308721923828125,0.3914949297904968,-0.7997155785560608,1.3217681646347046
1772718025355594800,3.3285947265625,0.3440306782722473,-1.1464143991470337,1.2163695096969604
1772718025375466800,3.348466796875,0.24454955756664276,-1.2182567119598389,1.0106953382492065
1772718025395340000,3.368340087890625,0.04127703979611397,-1.1145224571228027,0.7814555764198303
1772718025415212000,3.3882119140625,-0.23780226707458496,-0.9240012764930725,0.5723342895507812
1772718025435084800,3.408084716796875,-0.6026362776756287,-0.6901973485946655,0.4315432906150818
1772718025454957000,3.42795703125,-1.0265827178955078,-0.44601529836654663,0.335239440202713
1772718025474829000,3.4478291015625,-1.4328234195709229,-0.2809510827064514,0.23221373558044434
1772718025494701800,3.467701904296875,-1.7167139053344727,-0.18529506027698517,0.1431759148836136
1772718025514573800,3.48757373046875,-1.922744631767273,-0.15139344334602356,0.10930978506803513
1772718025534446800,3.50744677734375,-2.0684611797332764,-0.07971560955047607,0.017442531883716583
1772718025554318800,3.52731884765625,-2.1746315956115723,0.027964510023593903,-0.12447093427181244
1772718025574191900,3.54719189453125,-2.281259059906006,0.12666676938533783,-0.2432052046060562
1772718025594064000,3.56706396484375,-2.4060823917388916,0.2659887671470642,-0.3187203109264374
1772718025613937000,3.58693701171875,-2.624593734741211,0.41954031586647034,-0.35599544644355774
1772718025633809000,3.606808837890625,-2.8744354248046875,0.7075139284133911,-0.44863003492355347
1772718025653682000,3.626681884765625,-3.2874529361724854,1.207387089729309,-0.6181271076202393
1772718025673554000,3.646553955078125,-3.843935012817383,1.9354841709136963,-0.7710158824920654
1772718025693427000,3.666427001953125,-4.442285537719727,2.629884958267212,-0.7747498154640198
1772718025713298700,3.686298583984375,-4.895724296569824,2.8928892612457275,-0.5636993050575256
1772718025733172000,3.706171875,-5.162891387939453,2.704369306564331,-0.1994466930627823
1772718025753044000,3.7260439453125,-5.065793037414551,2.214472532272339,0.2409992814064026
1772718025772916000,3.745916015625,-4.761582374572754,1.5500402450561523,0.6841771602630615
1772718025792789000,3.7657890625,-4.444477558135986,0.8925818204879761,1.0631656646728516
1772718025812661000,3.785660888671875,-4.053916931152344,0.20589561760425568,1.333651065826416
1772718025832533800,3.80553369140625,-3.4853925704956055,-0.38679254055023193,1.342302680015564
1772718025852406000,3.825406005859375,-2.7466368675231934,-0.5111318230628967,0.8618135452270508
1772718025872279000,3.845279052734375,-2.247098684310913,0.037322670221328735,0.1027464047074318
1772718025892150800,3.86515087890625,-2.1386332511901855,1.07196044921875,-0.7348474860191345
1772718025912024000,3.885024169921875,-2.2652387619018555,2.0964279174804688,-1.285923719406128
1772718025931896000,3.90489599609375,-2.1765708923339844,2.9224929809570312,-1.605048656463623
1772718025951768800,3.924768798828125,-1.9069575071334839,3.5001299381256104,-1.8106348514556885
1772718025971640800,3.944640869140625,-1.5767903327941895,3.6249773502349854,-1.9012762308120728
1772718025991513900,3.964513916015625,-1.297534465789795,3.861909866333008,-2.0282363891601562
1772718026011385900,3.9843857421875,-1.2541877031326294,4.2364678382873535,-2.0220425128936768
1772718026031259000,4.0042587890625,-1.2704991102218628,4.251832485198975,-1.8055994510650635
1772718026051131100,4.024131103515625,-1.1973193883895874,3.776463508605957,-1.3927212953567505
1772718026071003000,4.0440029296875,-1.0383857488632202,2.865462064743042,-0.802632212638855
1772718026090876000,4.0638759765625,-0.9164772629737854,1.9208546876907349,-0.11230097711086273
1772718026110748000,4.083747802734375,-0.7970831394195557,1.1433656215667725,0.3135473430156708
1772718026130621000,4.103620849609375,-0.7120154500007629,0.818169355392456,0.3798099160194397
1772718026150493000,4.123492919921875,-0.7230398654937744,0.803394615650177,0.13254833221435547
1772718026170365700,4.14336572265625,-0.7697797417640686,1.0455290079116821,-0.32515114545822144
1772718026190238000,4.163238037109375,-0.767068088054657,1.3726863861083984,-0.7431151270866394
1772718026210111000,4.183111083984375,-0.6945615410804749,1.546499490737915,-0.9567800760269165
1772718026229983000,4.20298291015625,-0.6114366054534912,1.635418176651001,-1.0053852796554565
1772718026249856000,4.22285595703125,-0.5565638542175293,1.7409662008285522,-1.0068520307540894
1772718026269728000,4.24272802734375,-0.5196099877357483,1.7062236070632935,-0.9925358295440674
1772718026289600800,4.262600830078125,-0.5084952116012573,1.4188964366912842,-0.8467972874641418
1772718026309473300,4.282473388671875,-0.5033496022224426,0.9522935748100281,-0.5355457663536072
1772718026329346300,4.30234619140625,-0.4264848232269287,0.44542571902275085,-0.18852564692497253
1772718026349218000,4.322218017578125,-0.27110904455184937,0.07029911875724792,0.0845804288983345
1772718026369090000,4.342090087890625,-0.12778981029987335,-0.16648787260055542,0.2397841066122055
1772718026388963300,4.36196337890625,-0.0773143544793129,-0.19728806614875793,0.26302456855773926
1772718026408835000,4.3818349609375,-0.06990659981966019,-0.06589867919683456,0.19856183230876923
1772718026428708000,4.4017080078125,-0.07555543631315231,-0.026718147099018097,0.11638674139976501
1772718026448580400,4.421580322265625,-0.06565815210342407,-0.07140994071960449,0.06644004583358765
1772718026468453000,4.441453125,-0.0525456964969635,-0.012000622227787971,0.07055233418941498
1772718026488325000,4.4613251953125,-0.029708998277783394,0.05745776370167732,0.13931266963481903
1772718026508198100,4.4811982421875,-0.0021785921417176723,-0.06387967616319656,0.30114826560020447
1772718026528070100,4.501070068359375,-0.01581673137843609,-0.22653990983963013,0.5425524711608887
1772718026547943200,4.520943115234375,-0.001393885351717472,-0.24624523520469666,0.6632872223854065
1772718026567815200,4.540815185546875,0.1050022542476654,-0.26256823539733887,0.7059993743896484
1772718026587688200,4.560688232421875,0.2712527811527252,-0.33195990324020386,0.7697380185127258
1772718026607560200,4.580560302734375,0.4354705214500427,-0.33511266112327576,0.7884874939918518
1772718026627433000,4.600432861328125,0.6285691857337952,-0.24659155309200287,0.767815351486206
1772718026647305200,4.62030517578125,0.9563325047492981,-0.4747142791748047,0.8388432264328003
1772718026667178200,4.64017822265625,1.3542771339416504,-0.9945436716079712,1.0840309858322144
1772718026687050000,4.660050048828125,1.7401784658432007,-1.5916491746902466,1.4226348400115967
1772718026706922000,4.679921875,2.0788674354553223,-2.1399447917938232,1.6839607954025269
1772718026726795300,4.699795166015625,2.3688056468963623,-2.4653079509735107,1.6742905378341675
1772718026746667300,4.719667236328125,2.592193603515625,-2.7136929035186768,1.3528096675872803
1772718026766540000,4.7395400390625,2.8165786266326904,-2.9869227409362793,0.8763694763183594
1772718026786412300,4.759412353515625,3.117558240890503,-3.357517719268799,0.2586495578289032
1772718026806285000,4.77928515625,3.555893898010254,-3.6797001361846924,-0.5404902100563049
1772718026826157000,4.799156982421875,4.050912380218506,-4.0710344314575195,-1.5256356000900269
1772718026846030300,4.8190302734375,4.5448479652404785,-4.521296977996826,-2.5648677349090576
1772718026865902000,4.838902099609375,5.298875331878662,-4.73113489151001,-3.4012374877929688
1772718026885775000,4.858775146484375,6.313076972961426,-4.255583763122559,-4.099049091339111
1772718026905647400,4.8786474609375,7.0858283042907715,-2.641082286834717,-4.861469745635986
1772718026925520100,4.89852001953125,6.743438243865967,0.059055574238300323,-5.372601509094238
1772718026945392000,4.91839208984375,5.540219306945801,2.4128174781799316,-5.950193881988525
1772718026965265200,4.93826513671875,4.387646198272705,3.1076252460479736,-7.135119438171387
1772718026985137200,4.95813720703125,4.062795162200928,2.5796058177948,-7.747079372406006
1772718027005009200,4.978009033203125,5.1756486892700195,0.12485051900148392,-6.284509658813477
1772718027024882200,4.997882080078125,5.483410835266113,-2.5725033283233643,-1.4519734382629395
1772718027044754200,5.017754150390625,2.100742816925049,-1.6812503337860107,2.616089344024658
1772718027064627200,5.037627197265625,0.015180088579654694,-1.5295031070709229,2.7946689128875732
1772718027084499200,5.057499267578125,-0.44230830669403076,-0.1274767965078354,1.1673802137374878
1772718027104372200,5.077372314453125,0.5923187136650085,1.0724858045578003,-1.5721358060836792
1772718027124244200,5.097244140625,1.8486850261688232,1.6760358810424805,-3.6460351943969727
1772718027144117000,5.117116943359375,2.3148112297058105,1.0779821872711182,-4.0377583503723145
1772718027163989000,5.136989013671875,2.3072168827056885,-0.15371474623680115,-3.02557110786438
1772718027183862300,5.1568623046875,2.102268934249878,-1.5947058200836182,-1.2997820377349854
1772718027203734300,5.176734375,1.9206562042236328,-2.43186616897583,0.25231412053108215
1772718027223607000,5.19660693359375,1.760265588760376,-2.6524999141693115,1.0323176383972168
1772718027243479300,5.216479248046875,1.4416611194610596,-2.468381404876709,1.2541671991348267
1772718027263352000,5.23635205078125,0.8706227540969849,-1.9681485891342163,1.2301554679870605
1772718027283224000,5.25622412109375,0.23492303490638733,-1.3373117446899414,1.2013769149780273
1772718027303096000,5.276095947265625,-0.3895612955093384,-0.867286205291748,1.249504804611206
1772718027322968600,5.295968505859375,-0.9228659272193909,-0.6564764976501465,1.3413313627243042
1772718027342840300,5.31584033203125,-1.3720797300338745,-0.6387027502059937,1.4109127521514893
1772718027362713600,5.335713623046875,-1.7359997034072876,-0.7041571140289307,1.4243046045303345
1772718027382585600,5.355585693359375,-1.9953243732452393,-0.8551074862480164,1.369852900505066
1772718027402458400,5.375458251953125,-2.141495943069458,-1.1411385536193848,1.3363345861434937
1772718027422330600,5.39533056640625,-2.2242095470428467,-1.6718872785568237,1.4680871963500977
1772718027442203600,5.41520361328125,-2.2333221435546875,-2.430537462234497,1.8147072792053223
1772718027462075400,5.435075439453125,-2.1180038452148438,-3.1547207832336426,2.249640703201294
1772718027481948700,5.45494873046875,-1.9995331764221191,-3.477504253387451,2.5413243770599365
1772718027501820700,5.474820556640625,-2.101823568344116,-3.3442723751068115,2.6899616718292236
1772718027521693400,5.494693359375,-2.387557029724121,-2.9721126556396484,2.677330493927002
1772718027541565400,5.5145654296875,-2.8718748092651367,-2.2869718074798584,2.4635143280029297
1772718027561438500,5.5344384765625,-3.5610170364379883,-1.4768439531326294,1.881124496459961
1772718027581310500,5.554310546875,-4.4157514572143555,-0.6663289070129395,0.8937103748321533
1772718027601182500,5.574182373046875,-5.088969707489014,0.06817321479320526,-0.07047448307275772
1772718027621055500,5.594055419921875,-5.365391731262207,0.7341356873512268,-0.5920153260231018
1772718027640927500,5.613927490234375,-5.307564735412598,1.2141116857528687,-0.6567590832710266
1772718027660800500,5.633800537109375,-4.992768287658691,1.3139314651489258,-0.46944665908813477
1772718027680672800,5.6536728515625,-4.543848991394043,1.1194267272949219,-0.2147870808839798
1772718027700545500,5.673545654296875,-4.015106678009033,0.7592533826828003,-0.007940055802464485
1772718027720417500,5.69341748046875,-3.448190212249756,0.37547585368156433,0.17611655592918396
1772718027740290600,5.71329052734375,-2.8957431316375732,-0.008871329948306084,0.35374370217323303
1772718027760162600,5.73316259765625,-2.2643771171569824,-0.4339487850666046,0.5581411719322205
1772718027780035600,5.75303564453125,-1.627668857574463,-0.7451436519622803,0.7006986141204834
1772718027799907300,5.7729072265625,-0.9578195214271545,-0.8792591691017151,0.6684339046478271
1772718027819780600,5.792780517578125,-0.28324374556541443,-0.9076995849609375,0.4612487554550171
1772718027839652600,5.812652587890625,0.34573668241500854,-0.8185470700263977,0.13439024984836578
1772718027859524600,5.832524658203125,1.0035820007324219,-0.616111159324646,-0.27856606245040894
1772718027879397600,5.852397705078125,1.6854064464569092,-0.380278617143631,-0.7250251770019531
1772718027899269600,5.87226953125,2.3322508335113525,-0.21396514773368835,-1.0610897541046143
1772718027919142400,5.892142333984375,2.974386692047119,-0.08381064981222153,-1.213514804840088
1772718027939014400,5.912014404296875,3.6419529914855957,0.06454921513795853,-1.196622371673584
1772718027958887700,5.9318876953125,4.356195449829102,0.1684522032737732,-1.0999104976654053
1772718027978759400,5.951759521484375,5.016962051391602,0.22363068163394928,-0.9238208532333374
1772718027998632400,5.971632568359375,5.3959269523620605,0.455709308385849,-0.5251723527908325
1772718028018504700,5.991504638671875,5.619938850402832,0.8707808256149292,0.041726648807525635
1772718028038377500,6.01137744140625,5.763110637664795,1.1005654335021973,0.46266695857048035
1772718028058249500,6.03124951171875,5.754075527191162,0.9447487592697144,0.6344032287597656
1772718028078122500,6.05112255859375,5.56180477142334,0.47048407793045044,0.8671137690544128
1772718028097994500,6.070994384765625,5.5176239013671875,-0.7009400129318237,1.6752415895462036
1772718028117867500,6.090867431640625,4.67242956161499,-1.7168943881988525,3.2269608974456787
1772718028137739500,6.110739501953125,2.51947021484375,-1.9121696949005127,4.027754306793213
1772718028157611500,6.130611572265625,1.0277384519577026,-1.4506628513336182,3.4582834243774414
1772718028177484500,6.150484619140625,0.3016107380390167,-0.2056962102651596,1.9930973052978516
1772718028197356500,6.1703564453125,0.06769959628582001,1.2388654947280884,0.04858030378818512
1772718028217229600,6.1902294921875,0.057210639119148254,2.333327531814575,-1.6856186389923096
1772718028237101600,6.2101015625,0.010896057821810246,2.69530987739563,-2.563303232192993
1772718028256974300,6.229974365234375,-0.11367176473140717,2.267561912536621,-2.591601610183716
1772718028276846600,6.2498466796875,-0.310035765171051,1.2577811479568481,-2.0626418590545654
1772718028296719600,6.2697197265625,-0.6092366576194763,0.13073483109474182,-1.3314107656478882
1772718028316591900,6.289591796875,-0.9087222814559937,-0.6037576198577881,-0.7191662192344666
1772718028336465200,6.309465087890625,-1.1370329856872559,-0.7910434603691101,-0.516856849193573
1772718028356337200,6.329337158203125,-1.3399678468704224,-0.8287429213523865,-0.4568870961666107
1772718028376210000,6.3492099609375,-1.5984889268875122,-0.898059606552124,-0.19092081487178802
1772718028396082000,6.36908203125,-1.956257939338684,-0.9262281656265259,0.23793216049671173
1772718028415954200,6.3889541015625,-2.404822826385498,-0.8751475811004639,0.636600136756897
1772718028435827000,6.408826904296875,-2.8823044300079346,-0.7698572278022766,0.8757835626602173
1772718028455699000,6.428698974609375,-3.3285014629364014,-0.6487741470336914,0.8852530717849731
1772718028475572200,6.448572265625,-3.6646502017974854,-0.3962990939617157,0.6248587965965271
1772718028495444000,6.46844384765625,-3.9616992473602295,-0.08975137025117874,0.22447261214256287
1772718028515317000,6.48831689453125,-4.148890972137451,0.17322655022144318,-0.1102154552936554
1772718028535189200,6.508189208984375,-4.240363597869873,0.06502286344766617,-0.3884443938732147
1772718028555062000,6.52806201171875,-4.083528995513916,-0.44441768527030945,-0.47329792380332947
1772718028574934000,6.54793408203125,-3.792646884918213,-1.2295756340026855,-0.14098306000232697
1772718028594807000,6.56780712890625,-3.618410587310791,-1.8321280479431152,0.4805213510990143
1772718028614679000,6.587678955078125,-3.5306601524353027,-1.9130576848983765,1.033768653869629
1772718028634552000,6.607552001953125,-3.418825149536133,-1.5937079191207886,1.2885855436325073
1772718028654424000,6.627424072265625,-3.183729410171509,-1.0585812330245972,1.1631141901016235
1772718028674297000,6.647297119140625,-2.929230213165283,-0.5394089818000793,0.7571316957473755
1772718028694169000,6.667169189453125,-2.6724307537078857,-0.12005075812339783,0.31712278723716736
1772718028714041000,6.687041015625,-2.342031478881836,0.17229104042053223,-0.036857493221759796
1772718028733914000,6.7069140625,-1.876206398010254,0.3674652576446533,-0.3071674704551697
1772718028753786000,6.7267861328125,-1.2702847719192505,0.49699586629867554,-0.5128769874572754
1772718028773659000,6.746658935546875,-0.6479945182800293,0.5706479549407959,-0.6765623092651367
1772718028793531000,6.76653076171875,-0.02946395054459572,0.7019537687301636,-0.7979617118835449
1772718028813404200,6.786404052734375,0.5889339447021484,1.0686506032943726,-0.9420197606086731
1772718028833276200,6.806276123046875,1.2969948053359985,1.6306346654891968,-1.2685984373092651
1772718028853149000,6.82614892578125,2.1068131923675537,1.916987657546997,-1.8130148649215698
1772718028873021200,6.846021240234375,2.886399745941162,1.6989774703979492,-2.43684458732605
1772718028892894000,6.86589404296875,3.3454456329345703,1.204748272895813,-2.8408443927764893
1772718028912766000,6.885765869140625,3.911336660385132,0.6035887002944946,-3.247041940689087
1772718028932639200,6.90563916015625,4.740077495574951,0.04631591588258743,-3.4938621520996094
1772718028952511000,6.925510986328125,5.260650157928467,-0.5822048187255859,-3.4571149349212646
1772718028972383000,6.945383056640625,5.0316667556762695,-1.5589581727981567,-2.9861083030700684
1772718028992256000,6.965256103515625,4.405041694641113,-2.479602813720703,-2.7220377922058105
1772718029012128000,6.9851279296875,3.7758681774139404,-2.534282922744751,-3.3405399322509766
1772718029032001000,7.0050009765625,3.3158974647521973,-1.5465229749679565,-4.736443996429443
1772718029051873000,7.024873046875,2.45796275138855,0.5342094302177429,-5.971251487731934
1772718029071746000,7.04474609375,0.9658934473991394,3.022939443588257,-6.01542329788208
1772718029091618000,7.0646181640625,-0.3975398540496826,4.876296043395996,-4.918720245361328
1772718029111491000,7.084490966796875,-0.9300154447555542,5.145484447479248,-3.4519553184509277
1772718029131363000,7.104363037109375,-0.8213686943054199,4.191267013549805,-2.068948745727539
1772718029151236000,7.124236083984375,-0.5930055379867554,2.860163450241089,-0.7819138169288635
1772718029171108000,7.144108154296875,-0.5363671183586121,1.4273518323898315,0.30441758036613464
1772718029190981000,7.163981201171875,-0.6068758368492126,0.41179096698760986,1.1131731271743774
1772718029210853000,7.18385302734375,-0.8325668573379517,0.1762751340866089,1.5752313137054443
1772718029230725000,7.20372509765625,-1.141343355178833,0.5132952928543091,1.6857627630233765
1772718029250598000,7.223597900390625,-1.3918414115905762,1.1570980548858643,1.5237939357757568
1772718029270470100,7.24347021484375,-1.531725525856018,1.7506628036499023,1.2805380821228027
1772718029290343200,7.26334326171875,-1.5887720584869385,2.1289966106414795,1.155849575996399
1772718029310214700,7.283214599609375,-1.5973767042160034,2.281766653060913,1.2400404214859009
1772718029330088000,7.303087890625,-1.5938085317611694,2.18888521194458,1.4570212364196777
1772718029349960000,7.3229599609375,-1.5773206949234009,1.6707313060760498,1.6512696743011475
1772718029369832700,7.342832763671875,-1.5301783084869385,0.9930469989776611,1.692570686340332
1772718029389704700,7.36270458984375,-1.5514576435089111,0.2598839998245239,1.5885604619979858
1772718029409577700,7.38257763671875,-1.6262904405593872,-0.15134045481681824,1.451663613319397
1772718029429449700,7.40244970703125,-1.7823238372802734,-0.2383202314376831,1.5170269012451172
1772718029449322800,7.42232275390625,-1.9209303855895996,-0.03426447883248329,1.8460978269577026
1772718029469195000,7.442195068359375,-1.9820297956466675,0.3152511715888977,2.1965229511260986
1772718029489067800,7.46206787109375,-1.8617440462112427,0.8274478912353516,2.236325979232788
1772718029508939800,7.481939697265625,-1.527127742767334,1.4782190322875977,2.0198276042938232
1772718029528811800,7.501811767578125,-1.1835421323776245,2.0999021530151367,1.628542423248291
1772718029548684800,7.521684814453125,-0.8970454931259155,2.707974910736084,1.1172893047332764
1772718029568556800,7.541556884765625,-0.7111011147499084,3.107656240463257,0.6016532778739929
1772718029588429600,7.5614296875,-0.5404003262519836,3.5209176540374756,0.16294771432876587
1772718029608301800,7.5813017578125,-0.22796019911766052,3.757063150405884,-0.06164563447237015
1772718029628174800,7.6011748046875,-0.025606095790863037,3.1281700134277344,-0.4209297299385071
1772718029648046800,7.621046875,-0.12454480677843094,2.517307996749878,-0.7564824223518372
1772718029667920000,7.640919921875,-0.22737766802310944,2.128657102584839,-0.8049896359443665
1772718029687791900,7.6607919921875,-0.14666447043418884,1.8507601022720337,-0.7846171259880066
1772718029707664600,7.68066455078125,-0.34477460384368896,1.3053293228149414,-0.871756374835968
1772718029727536600,7.70053662109375,-0.2677765488624573,1.0657401084899902,-0.7332768440246582
1772718029747410000,7.720409912109375,-0.21956372261047363,0.9011915922164917,-0.33281102776527405
1772718029767281700,7.74028173828125,-0.1710483282804489,0.8670331239700317,0.18314231932163239
1772718029787153700,7.760153564453125,-0.04855629429221153,0.8970697522163391,0.37201425433158875
1772718029807027000,7.78002685546875,0.033261969685554504,0.6615866422653198,0.2646216154098511
1772718029826898700,7.799898681640625,0.1263907253742218,0.8564358949661255,0.03411457687616348
1772718029846771700,7.819771728515625,0.3435734212398529,1.1992264986038208,-0.3183656632900238
1772718029866643700,7.839643798828125,0.7449756860733032,1.6446120738983154,-0.7884882688522339
1772718029886516700,7.859516845703125,1.0671566724777222,2.178084135055542,-0.9880512356758118
1772718029906388700,7.879388671875,1.2454826831817627,2.2067131996154785,-0.9948462247848511
1772718029926262000,7.899261962890625,1.245568037033081,1.749475121498108,-0.8687863945960999
1772718029946133800,7.9191337890625,1.1380507946014404,1.4164061546325684,-0.6546226739883423
1772718029966006800,7.9390068359375,0.9099805355072021,1.1806358098983765,-0.43886488676071167
1772718029985878800,7.958878662109375,0.5966892838478088,0.7958742380142212,-0.05841629207134247
1772718030005751800,7.978751708984375,0.309243381023407,0.4120243489742279,0.5414671897888184
1772718030025623800,7.998623779296875,0.06343560665845871,0.04862695932388306,1.2129387855529785
1772718030045495800,8.018495849609375,-0.04853437468409538,-0.14300724864006042,1.7640092372894287
1772718030065368800,8.038368896484375,0.12822991609573364,-0.30133357644081116,1.9111450910568237
1772718030085240800,8.05824072265625,0.24534526467323303,-0.28481951355934143,1.5659403800964355
1772718030105113900,8.07811376953125,0.3563256561756134,-0.012888282537460327,1.093777060508728
1772718030124985600,8.097985595703125,0.4567089378833771,0.1965385228395462,0.7964313626289368
1772718030144859000,8.11785888671875,0.32361894845962524,0.21461692452430725,0.7130575180053711
1772718030164731000,8.13773095703125,0.06629157811403275,0.23952873051166534,0.5919069647789001
1772718030184603600,8.157603759765625,-0.05225813388824463,0.27435603737831116,0.3114408552646637
1772718030204476000,8.177475830078125,-0.07027523219585419,0.038327403366565704,-0.010983781889081001
1772718030224348700,8.1973486328125,-0.2002032846212387,-0.15651100873947144,-0.18771664798259735
1772718030244220700,8.217220703125,-0.38823580741882324,-0.04414008557796478,-0.10753651708364487
1772718030264094000,8.237093994140626,-0.5478077530860901,0.237891286611557,-0.02710169181227684
1772718030283966000,8.256966064453126,-0.6581140756607056,0.47822412848472595,-0.01863042637705803
1772718030303837700,8.276837646484376,-0.6221184730529785,0.27700406312942505,-0.11318416893482208
1772718030323711500,8.29671142578125,-0.37204834818840027,0.1995697170495987,-0.12671592831611633
1772718030343583200,8.316583251953125,-0.2344915121793747,0.2982468008995056,-0.1148090735077858
1772718030363456300,8.336456298828125,-0.1427784115076065,0.5881891250610352,-0.042422279715538025
1772718030383328500,8.35632861328125,0.024212535470724106,0.8302843570709229,0.0977644994854927
1772718030403201300,8.376201171875,0.17088860273361206,0.8577454090118408,0.1815107762813568
1772718030423073300,8.3960732421875,0.13548433780670166,0.8023003935813904,0.2229495495557785
1772718030442946600,8.415946533203124,0.04418240860104561,0.5517393946647644,0.21281827986240387
1772718030462818300,8.435818359375,-0.0019958517514169216,0.26312723755836487,0.29757967591285706
1772718030482691300,8.45569140625,0.04060595855116844,0.11346274614334106,0.4473904073238373
1772718030502563300,8.475563232421875,0.11068176478147507,0.036117278039455414,0.4726972281932831
1772718030522436400,8.495436279296875,0.1338983178138733,-0.03297385945916176,0.3982851207256317
1772718030542308400,8.515308349609375,0.11655829846858978,0.004599139094352722,0.33599042892456055
1772718030562181000,8.53518115234375,0.10482295602560043,0.0626835897564888,0.3143599331378937
1772718030582053400,8.555053466796876,0.12492521107196808,0.0900069996714592,0.36238107085227966
1772718030601925400,8.57492529296875,0.16457664966583252,0.13899123668670654,0.3915214538574219
1772718030621798400,8.59479833984375,0.18944884836673737,0.3166293799877167,0.3316892683506012
1772718030641670100,8.614670166015625,0.1991303265094757,0.5444077849388123,0.22546106576919556
1772718030661543400,8.63454345703125,0.19644223153591156,0.6132633686065674,0.17176252603530884
1772718030681415400,8.65441552734375,0.20516128838062286,0.43260905146598816,0.15761345624923706
1772718030701288200,8.6742880859375,0.1876465082168579,0.11610893160104752,0.23376347124576569
1772718030721160400,8.694160400390626,0.06115315854549408,-0.09470026940107346,0.3872520625591278
1772718030741033200,8.714033203125,-0.160498708486557,-0.052598267793655396,0.47964581847190857
1772718030760905200,8.7339052734375,-0.3297249674797058,0.11564949154853821,0.3617602586746216
1772718030780778500,8.753778564453125,-0.3648186922073364,0.3125149607658386,0.24732466042041779
1772718030800650200,8.773650146484375,-0.2772688865661621,0.3305310606956482,0.23465268313884735
1772718030820523300,8.793523193359375,-0.11422188580036163,0.2832176685333252,0.32583117485046387
1772718030840395300,8.813395263671875,0.04771292954683304,0.2959831953048706,0.3750864267349243
1772718030860268300,8.833268310546876,0.1512601375579834,0.38709756731987,0.3470351994037628
1772718030880140300,8.853140380859376,0.1981000006198883,0.5118059515953064,0.31774502992630005
1772718030900012300,8.87301220703125,0.24051673710346222,0.6220489144325256,0.30153924226760864
1772718030919885300,8.89288525390625,0.3302510380744934,0.6819332242012024,0.3255661427974701
1772718030939757300,8.91275732421875,0.4461895227432251,0.675875186920166,0.3593885600566864
1772718030959630300,8.93263037109375,0.5434131622314453,0.6546869277954102,0.35846608877182007
1772718030979502300,8.95250244140625,0.5819104909896851,0.6738630533218384,0.355065256357193
1772718030999375400,8.972375244140625,0.5696580410003662,0.6456109285354614,0.3209901452064514
1772718031019247400,8.992247314453126,0.507413387298584,0.6056241989135742,0.2584782540798187
1772718031039120400,9.012120361328124,0.4974799156188965,0.6253594160079956,0.23193363845348358
1772718031058992400,9.031992431640624,0.5514851212501526,0.6931264400482178,0.242496058344841
1772718031078865400,9.051865478515625,0.573456346988678,0.7486479878425598,0.25226515531539917
1772718031098737200,9.071737060546875,0.5936651825904846,0.6986807584762573,0.27563220262527466
1772718031118609400,9.091609375,0.6082914471626282,0.5474857687950134,0.3013390600681305
1772718031138482400,9.111482421875,0.6023361682891846,0.46313783526420593,0.31584760546684265
1772718031158354200,9.131354248046875,0.5620416402816772,0.38601791858673096,0.39861980080604553
1772718031178227500,9.1512275390625,0.5725284814834595,0.17453137040138245,0.4123426079750061
1772718031198099500,9.171099365234374,0.5949294567108154,-0.05721885710954666,0.4451983571052551
1772718031217972200,9.19097216796875,0.5066862106323242,-0.25007927417755127,0.3488520383834839
1772718031237844200,9.21084423828125,0.3519059121608734,-0.2610170841217041,0.011266645044088364
1772718031257717200,9.23071728515625,0.2481587529182434,0.012483542785048485,-0.3493237793445587
