time,seconds_elapsed,z,y,x
1772790757643044400,0.05904443359375,0.699303150177002,0.8123660683631897,0.6605693697929382
1772790757663077400,0.079077392578125,0.7722510695457458,0.9125334024429321,0.5140189528465271
1772790757683110100,0.099110107421875,0.8362616300582886,0.6252621412277222,0.23012062907218933
1772790757703144200,0.119144287109375,0.9254393577575684,0.15149173140525818,-0.12013095617294312
1772790757723177200,0.13917724609375,1.092342495918274,0.475434809923172,-0.06144252046942711
1772790757743210200,0.159210205078125,1.0783751010894775,1.2493528127670288,0.3078383505344391
1772790757763244300,0.179244384765625,0.7220315337181091,1.577107548713684,0.654603123664856
1772790757783277300,0.19927734375,0.05045516416430473,1.4432004690170288,0.6717380285263062
1772790757803310300,0.219310302734375,-0.5693493485450745,1.2544636726379395,0.5450196266174316
1772790757823344000,0.23934423828125,-0.730867326259613,2.312133312225342,0.1056048646569252
1772790757843377400,0.25937744140625,-0.5603240728378296,2.8082656860351562,0.004204398952424526
1772790757863410200,0.27941015625,-0.13504891097545624,1.8609179258346558,0.39270591735839844
1772790757883444200,0.2994443359375,0.15844807028770447,0.686996579170227,0.20485694706439972
1772790757903477200,0.319477294921875,0.12468598783016205,0.21883900463581085,-0.5593737363815308
1772790757923510300,0.33951025390625,-0.06287086009979248,-0.2769969701766968,-1.494836688041687
1772790757943544300,0.35954443359375,-0.13530944287776947,-0.2522924542427063,-2.341601848602295
1772790757963577300,0.379577392578125,0.10795241594314575,-0.07967856526374817,-2.4625351428985596
1772790757983611400,0.399611328125,0.4097221791744232,0.45793625712394714,-1.8339842557907104
1772790758003644200,0.41964404296875,0.6644420027732849,1.477196455001831,-1.3372533321380615
1772790758023677400,0.439677490234375,1.0487271547317505,2.61472749710083,-1.2939904928207397
1772790758043711200,0.459711181640625,1.8326001167297363,2.573320150375366,-2.3153185844421387
1772790758063744300,0.479744140625,2.3134047985076904,1.8311755657196045,-3.4463753700256348
1772790758083777300,0.49977734375,2.4036266803741455,1.5474241971969604,-3.5382096767425537
1772790758103811300,0.519811279296875,2.3109076023101807,2.2394261360168457,-2.26116681098938
1772790758123844400,0.53984423828125,1.6565630435943604,3.1416738033294678,-0.43102967739105225
1772790758143877400,0.55987744140625,0.8523181676864624,4.923858642578125,0.6723406314849854
1772790758163911400,0.579911376953125,0.6745657324790955,6.232037544250488,0.882694661617279
1772790758183944700,0.59994482421875,0.8142476081848145,6.317424297332764,0.5526149868965149
1772790758203977500,0.6199775390625,1.114802360534668,5.9256486892700195,-0.09645148366689682
1772790758224011800,0.64001171875,0.9596272706985474,4.183989524841309,-1.3304836750030518
1772790758244044500,0.66004443359375,-0.07406526058912277,3.440223217010498,-2.0799546241760254
1772790758264078600,0.68007861328125,-0.7395673394203186,3.119748115539551,-2.050187587738037
1772790758284111600,0.700111572265625,-0.8727473020553589,2.6849677562713623,-1.360998272895813
1772790758304144600,0.72014453125,-1.0232290029525757,3.7074801921844482,-0.26860156655311584
1772790758324178700,0.7401787109375,-1.4240758419036865,4.8788909912109375,0.27182886004447937
1772790758344211500,0.76021142578125,-1.993186116218567,5.819543361663818,0.4313631057739258
1772790758364244700,0.78024462890625,-2.3895437717437744,6.327907562255859,0.9376500844955444
1772790758384278800,0.80027880859375,-2.587296962738037,6.309380531311035,2.1788675785064697
1772790758404311600,0.8203115234375,-2.7978625297546387,5.42327880859375,3.349324941635132
1772790758424344600,0.840344482421875,-3.7138636112213135,4.222263813018799,3.0661261081695557
1772790758444378600,0.860378662109375,-4.641995429992676,2.875443696975708,1.7661741971969604
1772790758464411600,0.88041162109375,-5.24666166305542,1.7443325519561768,0.8680473566055298
1772790758484444700,0.900444580078125,-5.083446025848389,1.21981942653656,0.4356471598148346
1772790758504478700,0.920478759765625,-4.241258144378662,1.6178343296051025,0.284870982170105
1772790758524511500,0.940511474609375,-3.4427318572998047,1.5717121362686157,0.43158039450645447
1772790758544545500,0.960545654296875,-2.6657214164733887,1.2321686744689941,0.5639942288398743
1772790758564578800,0.980578857421875,-2.043616533279419,1.0709763765335083,0.8504554629325867
1772790758584611600,1.000611572265625,-1.3460144996643066,1.137789011001587,1.2473560571670532
1772790758604645600,1.020645751953125,-0.5121030807495117,1.3605011701583862,1.4495822191238403
1772790758624678700,1.0406787109375,0.3787623941898346,1.5748107433319092,1.4658132791519165
1772790758644711700,1.060711669921875,1.1137259006500244,1.7333141565322876,1.5387381315231323
1772790758664745500,1.080745361328125,1.5838825702667236,1.4938913583755493,1.4757153987884521
1772790758684778800,1.10077880859375,1.7933158874511719,1.2936409711837769,1.4048504829406738
1772790758704811500,1.1208115234375,1.9698339700698853,0.8235378265380859,1.3220947980880737
1772790758724845600,1.140845458984375,2.0371437072753906,0.5053870677947998,1.2890492677688599
1772790758744878800,1.16087890625,2.090334177017212,0.34123334288597107,1.227595329284668
1772790758764911600,1.18091162109375,2.233779191970825,0.17410634458065033,1.0735142230987549
1772790758784945700,1.200945556640625,2.4425108432769775,0.04076075553894043,0.9127031564712524
1772790758804978700,1.220978759765625,2.568859100341797,-0.13040028512477875,0.8864622116088867
1772790758825011700,1.24101171875,2.65177583694458,-0.5526171922683716,0.9916657209396362
1772790758845045500,1.26104541015625,2.1904003620147705,-0.8351371884346008,1.2645779848098755
1772790758865078800,1.281078857421875,0.9717456102371216,-1.2100352048873901,1.4203537702560425
1772790758885112800,1.30111279296875,-0.24907788634300232,-1.6375714540481567,1.109406590461731
1772790758905145600,1.3211455078125,-0.9801041483879089,-1.6939373016357422,0.45665448904037476
1772790758925179000,1.341178955078125,-1.3774482011795044,-1.3939582109451294,-0.11090745031833649
1772790758945212700,1.361212646484375,-1.5803239345550537,-0.7944076657295227,-0.40771666169166565
1772790758965245700,1.38124560546875,-1.553236722946167,-0.02477160468697548,-0.5085495114326477
1772790758985278700,1.40127880859375,-1.3275275230407715,0.700080394744873,-0.4825761020183563
1772790759005312800,1.421312744140625,-0.8515380620956421,1.3751024007797241,-0.39211052656173706
1772790759025345500,1.441345458984375,-0.43376991152763367,1.9628554582595825,-0.6126449108123779
1772790759045378600,1.461378662109375,-0.34734970331192017,2.1271533966064453,-1.018366813659668
1772790759065412900,1.481412841796875,-0.7238948941230774,1.678521990776062,-1.1915314197540283
1772790759085445600,1.501445556640625,-1.4354417324066162,0.803072988986969,-1.0309737920761108
1772790759105478700,1.521478759765625,-2.209219217300415,-0.1664177030324936,-0.7188719511032104
1772790759125512700,1.5415126953125,-2.913745164871216,-0.889754056930542,-0.4457316994667053
1772790759145545700,1.561545654296875,-3.33743953704834,-1.387634038925171,-0.3276838958263397
1772790759165578500,1.58157861328125,-3.450948715209961,-1.5914936065673828,-0.37726709246635437
1772790759185612800,1.60161279296875,-3.371609687805176,-1.5024207830429077,-0.4911092221736908
1772790759205645800,1.621645751953125,-3.1375341415405273,-1.1106557846069336,-0.5656018853187561
1772790759225678800,1.641678955078125,-2.745000123977661,-0.4913007915019989,-0.5513821840286255
1772790759245712600,1.661712646484375,-2.3690502643585205,0.2424536943435669,-0.3625977635383606
1772790759265746000,1.681745849609375,-2.053858757019043,0.9392849802970886,-0.06677936017513275
1772790759285778700,1.70177880859375,-1.775780439376831,1.4396575689315796,0.14591972529888153
1772790759305812700,1.721812744140625,-1.5463768243789673,1.676868200302124,0.2095923125743866
1772790759325846000,1.741845947265625,-1.3064161539077759,1.5286427736282349,0.11818409711122513
1772790759345878800,1.761878662109375,-1.156840205192566,0.9217667579650879,-0.14249621331691742
1772790759365912800,1.781912841796875,-1.0133947134017944,0.08697689324617386,-0.5274287462234497
1772790759385945900,1.80194580078125,-0.8212286233901978,-0.8985047936439514,-0.9391725063323975
1772790759405979000,1.821978759765625,-0.6487079858779907,-1.8163338899612427,-1.278296947479248
1772790759426012700,1.8420126953125,-0.5748345255851746,-2.6872506141662598,-1.4462562799453735
1772790759446046000,1.8620458984375,-0.6104267835617065,-3.39601731300354,-1.460559606552124
1772790759466080000,1.882080078125,-0.8576705455780029,-3.948221206665039,-1.3528350591659546
1772790759486112800,1.90211279296875,-1.3100640773773193,-4.262317180633545,-1.2275900840759277
1772790759506146000,1.92214599609375,-1.806710124015808,-4.127945423126221,-1.1181384325027466
1772790759526179800,1.942179931640625,-2.304793357849121,-3.7104101181030273,-0.8792266845703125
1772790759546212900,1.962212890625,-2.5494704246520996,-3.0763633251190186,-0.6437317728996277
1772790759566246000,1.982245849609375,-2.392930030822754,-2.1419289112091064,-0.27326470613479614
1772790759586280000,2.002280029296875,-2.0029027462005615,-0.9357603788375854,0.4156910181045532
1772790759606312700,2.022312744140625,-1.5441315174102783,0.2965676486492157,1.3736802339553833
1772790759626346000,2.042345947265625,-1.1363565921783447,1.486460566520691,2.227384567260742
1772790759646380000,2.062380126953125,-0.8690385818481445,2.412872791290283,2.829050064086914
1772790759666412800,2.082412841796875,-0.6864503026008606,3.018069267272949,3.110342264175415
1772790759686445800,2.10244580078125,-0.5031932592391968,3.3962504863739014,2.9079864025115967
1772790759706479900,2.12247998046875,-0.3895206153392792,3.2995688915252686,2.400057315826416
1772790759726513000,2.142512939453125,-0.32061636447906494,2.790285587310791,1.762306809425354
1772790759746545700,2.162545654296875,-0.11945504695177078,2.192420482635498,0.8813601732254028
1772790759766580000,2.182580078125,0.27128902077674866,1.461701512336731,-0.11613568663597107
1772790759786612700,2.20261279296875,0.8119734525680542,0.6311619281768799,-1.0803020000457764
1772790759806645800,2.222645751953125,1.326791524887085,-0.18764238059520721,-1.875392198562622
1772790759826680000,2.24268017578125,1.6380151510238647,-0.8640836477279663,-2.4013547897338867
1772790759846712800,2.262712890625,1.7567821741104126,-1.3338905572891235,-2.6263904571533203
1772790759866745900,2.282745849609375,1.7793910503387451,-1.4808567762374878,-2.5097732543945312
1772790759886780000,2.30277978515625,1.9136086702346802,-1.1964035034179688,-2.2112629413604736
1772790759906813000,2.32281298828125,2.179993152618408,-0.4982374608516693,-1.8060601949691772
1772790759926845700,2.342845703125,2.4690322875976562,0.29014238715171814,-1.3872803449630737
1772790759946879700,2.362879638671875,2.709427833557129,1.0200343132019043,-0.9987614154815674
1772790759966913000,2.3829130859375,2.878018617630005,1.6502153873443604,-0.6368098855018616
1772790759986945800,2.40294580078125,3.021883726119995,2.088623285293579,-0.2848571538925171
1772790760006979800,2.422979736328125,3.0164382457733154,2.4789295196533203,-0.034489963203668594
1772790760027012900,2.443012939453125,2.9072623252868652,2.7062125205993652,0.09363243728876114
1772790760047046000,2.4630458984375,2.668240547180176,2.6050777435302734,0.10811296850442886
1772790760067079700,2.48307958984375,2.3634443283081055,2.176896572113037,0.008659638464450836
1772790760087113000,2.503113037109375,2.02189302444458,1.5200786590576172,-0.22165609896183014
1772790760107145700,2.523145751953125,1.7601174116134644,0.7956099510192871,-0.5250498056411743
1772790760127179800,2.5431796875,1.5737605094909668,0.16644831001758575,-0.8109601140022278
1772790760147213000,2.563213134765625,1.3700404167175293,-0.33455654978752136,-1.1417933702468872
1772790760167246800,2.583246826171875,1.0415018796920776,-0.8978084325790405,-1.4829387664794922
1772790760187279400,2.603279296875,0.4722397029399872,-1.4049203395843506,-2.034144639968872
1772790760207312600,2.623312744140625,0.44998273253440857,-1.506055235862732,-2.453613758087158
1772790760227346400,2.643346435546875,0.4902524948120117,-1.428957223892212,-2.594594955444336
1772790760247379500,2.66337939453125,0.5752792954444885,-1.5154913663864136,-2.5939221382141113
1772790760267412500,2.68341259765625,0.7373793125152588,-1.4781996011734009,-2.293525457382202
1772790760287446500,2.703446533203125,0.986147940158844,-1.38947331905365,-1.5361753702163696
1772790760307479300,2.723479248046875,1.1462863683700562,-1.3463385105133057,-0.5312427878379822
1772790760327512600,2.7435126953125,1.319316029548645,-1.0713214874267578,-0.0303424671292305
1772790760347546600,2.763546630859375,1.3427529335021973,-0.6939654350280762,0.019689898937940598
1772790760367579400,2.783579345703125,0.9551241397857666,-0.37098467350006104,0.09890355914831161
1772790760387612700,2.80361279296875,0.2522607743740082,-0.33496418595314026,0.4593077600002289
1772790760407646500,2.823646484375,-0.5213890075683594,-0.3405437767505646,0.766753613948822
1772790760427679500,2.843679443359375,-1.341516137123108,-0.6795501112937927,1.357720136642456
1772790760447712500,2.86371240234375,-2.1532750129699707,-1.0544520616531372,2.0195837020874023
1772790760467746600,2.88374658203125,-2.8534319400787354,-1.412535548210144,2.1161081790924072
1772790760487779300,2.903779296875,-3.515109062194824,-1.6524347066879272,1.8025563955307007
1772790760507812600,2.9238125,-4.1197662353515625,-1.6659036874771118,1.3220369815826416
1772790760527846700,2.9438466796875,-4.5901641845703125,-1.4507737159729004,0.9081811308860779
1772790760547879400,2.96387939453125,-4.909657001495361,-0.8923674821853638,0.7834072709083557
1772790760567912700,2.98391259765625,-5.0400471687316895,-0.07936929911375046,1.0213122367858887
1772790760587946500,3.003946533203125,-4.926060199737549,0.941684365272522,1.4404598474502563
1772790760607979500,3.0239794921875,-4.5892653465271,1.8810724020004272,1.8102432489395142
1772790760628012500,3.044012451171875,-4.112432956695557,2.41083025932312,2.1246280670166016
1772790760648046600,3.064046630859375,-3.5204381942749023,2.364985227584839,2.2049360275268555
1772790760668079400,3.084079345703125,-2.8251254558563232,1.7846360206604004,1.8829258680343628
1772790760688112400,3.1041123046875,-2.122448205947876,0.7195407748222351,1.3489773273468018
1772790760708146700,3.124146728515625,-1.5358531475067139,-0.632684588432312,0.7620124816894531
1772790760728179500,3.144179443359375,-1.0450199842453003,-1.9608817100524902,0.0010488391853868961
1772790760748213500,3.164213623046875,-0.7416742444038391,-3.007786989212036,-0.721943736076355
1772790760768246500,3.18424658203125,-0.6442341804504395,-3.832000255584717,-1.2299246788024902
1772790760788279600,3.204279541015625,-0.890173614025116,-4.437550067901611,-1.5323313474655151
1772790760808313600,3.224313720703125,-1.5331721305847168,-4.883247375488281,-1.8254754543304443
1772790760828346400,3.244346435546875,-2.432952880859375,-4.95281457901001,-2.0153396129608154
1772790760848379400,3.26437939453125,-3.3738207817077637,-4.545656681060791,-2.1305620670318604
1772790760868413400,3.284413330078125,-3.8216278553009033,-3.6011035442352295,-2.313070058822632
1772790760888446500,3.304446533203125,-3.6814842224121094,-2.345761775970459,-2.484116554260254
1772790760908479500,3.3244794921875,-3.131056308746338,-0.9410231709480286,-2.222712993621826
1772790760928513500,3.344513427734375,-2.1654255390167236,0.3757765293121338,-1.6183220148086548
1772790760948546300,3.36454638671875,-1.2505958080291748,1.8044211864471436,-0.9210767149925232
1772790760968579600,3.38457958984375,-0.5969565510749817,2.8946259021759033,-0.1841195523738861
1772790760988613600,3.404613525390625,0.0004569117445498705,3.5372438430786133,0.2913297712802887
1772790761008646400,3.424646484375,1.0791268348693848,3.6274325847625732,0.41613683104515076
1772790761028679700,3.4446796875,2.380384683609009,3.0790441036224365,0.42701518535614014
1772790761048713500,3.46471337890625,3.386367082595825,2.2147786617279053,0.20130544900894165
1772790761068746500,3.48474658203125,4.203942775726318,1.4324510097503662,-0.22037595510482788
1772790761088779500,3.504779541015625,4.611529350280762,1.024011254310608,-0.5000414252281189
1772790761108813600,3.5248134765625,4.584203720092773,0.9584750533103943,-0.5976995229721069
1772790761128846300,3.544846435546875,4.462914943695068,1.0395362377166748,-0.5776565074920654
1772790761148879600,3.564879638671875,4.474521160125732,1.2556263208389282,-0.575203001499176
1772790761168913700,3.58491357421875,4.516125679016113,1.535486102104187,-0.5527566075325012
1772790761188946200,3.6049462890625,4.558172702789307,1.8271111249923706,-0.5763404965400696
1772790761208979200,3.624979248046875,4.4741644859313965,1.983433723449707,-0.6822751760482788
1772790761229013200,3.64501318359375,4.103333473205566,2.019167184829712,-0.7295817136764526
1772790761249046300,3.66504638671875,3.6406404972076416,1.9638392925262451,-0.6992875337600708
1772790761269079300,3.685079345703125,3.244279623031616,1.767975926399231,-0.639837920665741
1772790761289113300,3.70511328125,3.0220870971679688,1.4697470664978027,-0.5114290714263916
1772790761309146000,3.72514599609375,2.9560253620147705,1.1101031303405762,-0.386797159910202
1772790761329180200,3.74518017578125,2.9598255157470703,0.6418436765670776,-0.23472405970096588
1772790761349213200,3.765213134765625,2.925583600997925,0.11859681457281113,-0.12387189269065857
1772790761369246200,3.78524609375,2.6852099895477295,-0.2947283685207367,-0.06567265093326569
1772790761389280300,3.8052802734375,2.3013346195220947,-0.7092989683151245,-0.23860493302345276
1772790761409313300,3.825313232421875,2.016533613204956,-1.2108670473098755,-0.5448596477508545
1772790761429346300,3.84534619140625,1.8550478219985962,-1.7091671228408813,-0.744856059551239
1772790761449380000,3.865380126953125,1.7080141305923462,-1.9987093210220337,-0.7998476028442383
1772790761469413400,3.885413330078125,1.5308951139450073,-2.0345849990844727,-0.7862613797187805
1772790761489446100,3.905446044921875,1.3689393997192383,-1.855302333831787,-0.7661706805229187
1772790761509480200,3.925480224609375,1.2545901536941528,-1.4945337772369385,-0.6996891498565674
1772790761529513500,3.945513427734375,1.1194672584533691,-1.0868675708770752,-0.600395143032074
1772790761549546200,3.965546142578125,0.8995620012283325,-0.7905771136283875,-0.5085235834121704
1772790761569580300,3.985580322265625,0.6669381260871887,-0.6372556686401367,-0.48313769698143005
1772790761589612300,4.0056123046875,0.3900143802165985,-0.5880540609359741,-0.5533698201179504
1772790761609645000,4.02564501953125,0.011952048167586327,-0.6535594463348389,-0.6844809055328369
1772790761629679000,4.04567919921875,-0.48008134961128235,-0.6840487122535706,-0.9309759140014648
1772790761649712400,4.06571240234375,-1.208208680152893,-0.6186988949775696,-1.2788312435150146
1772790761669745200,4.0857451171875,-2.099824905395508,-0.5939531922340393,-1.2873315811157227
1772790761689779200,4.105779296875,-3.1144797801971436,-0.5325323939323425,-0.9475936889648438
1772790761709812200,4.125812255859375,-4.008919715881348,-0.23911209404468536,-0.580601692199707
1772790761729845200,4.14584521484375,-4.700039863586426,0.2718939781188965,-0.28234541416168213
1772790761749879300,4.16587939453125,-5.15199089050293,0.8368889689445496,-0.012073869816958904
1772790761769912300,4.185912353515625,-5.462791442871094,1.4036120176315308,0.17324522137641907
1772790761789945000,4.205945068359375,-5.674893856048584,2.035813093185425,0.32704979181289673
1772790761809979100,4.225979248046875,-5.83802604675293,2.627819776535034,0.5778962969779968
1772790761830012400,4.246012451171875,-5.929858207702637,3.039930820465088,1.0193538665771484
1772790761850045200,4.266045166015625,-5.983376979827881,3.1906423568725586,1.5104259252548218
1772790761870079200,4.286079345703125,-5.648675918579102,2.7906291484832764,1.7941480875015259
1772790761890112300,4.3061123046875,-4.573497772216797,1.9889299869537354,1.7337186336517334
1772790761910145300,4.326145263671875,-2.819643974304199,0.6655009388923645,1.2398332357406616
1772790761930179300,4.346179443359375,-1.1345419883728027,-0.7208964228630066,0.5135461091995239
1772790761950212400,4.36621240234375,0.20454473793506622,-2.087843179702759,-0.39162495732307434
1772790761970246400,4.386246337890625,1.1403635740280151,-3.4497525691986084,-1.2094357013702393
1772790761990282200,4.4062822265625,1.6478370428085327,-4.739297389984131,-1.818390130996704
1772790762010315300,4.426315185546875,1.573349118232727,-5.825852394104004,-2.2305643558502197
1772790762030349300,4.446349365234375,0.9398536682128906,-6.626458644866943,-2.4285433292388916
1772790762050382000,4.466382080078125,-0.15510737895965576,-6.858712196350098,-2.4146692752838135
1772790762070416100,4.486416015625,-1.3319095373153687,-6.421885013580322,-2.5059943199157715
1772790762090449400,4.506449462890625,-2.325519323348999,-5.391677379608154,-2.5683436393737793
1772790762110482200,4.526482177734375,-3.0274970531463623,-4.021256446838379,-2.364670753479004
1772790762130516200,4.54651611328125,-3.261583089828491,-2.518749475479126,-2.0105485916137695
1772790762150549200,4.56654931640625,-3.14711594581604,-0.9247373342514038,-1.488633632659912
1772790762170582500,4.58658251953125,-2.8566739559173584,0.4767589867115021,-0.8624060750007629
1772790762190616600,4.606616455078125,-2.445667028427124,1.5057637691497803,-0.29262775182724
1772790762210649600,4.626649658203125,-1.9276889562606812,2.134150505065918,0.18602362275123596
1772790762230682400,4.646682373046875,-1.4348480701446533,2.431055784225464,0.5483275055885315
1772790762250716400,4.66671630859375,-1.0301152467727661,2.326587200164795,0.9490291476249695
1772790762270749700,4.686749755859375,-0.5795413851737976,2.043564796447754,1.2163143157958984
1772790762290782500,4.706782470703125,0.04624803364276886,1.6170954704284668,1.223404884338379
1772790762310816500,4.72681640625,0.8683857321739197,1.0836650133132935,0.9965866208076477
1772790762330849500,4.746849609375,1.6577047109603882,0.5127642750740051,0.6689387559890747
1772790762350883600,4.766883544921875,2.2628729343414307,0.04934387654066086,0.3832349479198456
1772790762370916600,4.78691650390625,2.677595853805542,-0.19812582433223724,0.20228786766529083
1772790762390949400,4.806949462890625,2.8898229598999023,-0.13866476714611053,0.14286944270133972
1772790762410983700,4.826983642578125,2.9358115196228027,0.272209495306015,0.31088364124298096
1772790762431016400,4.847016357421875,2.914783477783203,0.8721131682395935,0.5733452439308167
1772790762451049500,4.867049560546875,2.9528772830963135,1.6258349418640137,0.7559494972229004
1772790762471083500,4.88708349609375,3.0434348583221436,2.3807013034820557,0.8977051377296448
1772790762491116500,4.907116455078125,3.1603169441223145,3.0043673515319824,0.9356904029846191
1772790762511149300,4.9271494140625,3.2385737895965576,3.5215091705322266,0.9654703140258789
1772790762531183400,4.947183349609375,3.299600124359131,3.893631935119629,0.9672867059707642
1772790762551216600,4.967216552734375,3.3896324634552,4.049601078033447,0.9015945196151733
1772790762571249400,4.98724951171875,3.500033140182495,4.012599468231201,0.8068537712097168
1772790762591283500,5.007283447265625,3.5497360229492188,3.747528314590454,0.598832368850708
1772790762611316500,5.02731640625,3.454760789871216,3.30452823638916,0.24029666185379028
1772790762631349500,5.047349609375,3.179274797439575,2.6578781604766846,-0.22849911451339722
1772790762651383300,5.06738330078125,2.8354923725128174,1.720986008644104,-0.6892346143722534
1772790762671416600,5.08741650390625,2.5201563835144043,0.6407755613327026,-1.1183525323867798
1772790762691449300,5.107449462890625,2.247612237930298,-0.27667713165283203,-1.4611631631851196
1772790762711483400,5.1274833984375,2.039720296859741,-1.0580936670303345,-1.608039140701294
1772790762731516700,5.1475166015625,1.8335813283920288,-1.6315622329711914,-1.5927003622055054
1772790762751550500,5.167550537109375,1.640257477760315,-2.0223803520202637,-1.5406192541122437
1772790762771583500,5.18758349609375,1.4722669124603271,-2.2245051860809326,-1.452500343322754
1772790762791616500,5.207616455078125,1.2767359018325806,-2.2744076251983643,-1.2544761896133423
1772790762811650600,5.227650634765625,1.0185177326202393,-2.0980827808380127,-1.00742769241333
1772790762831683300,5.247683349609375,0.8376540541648865,-1.8241651058197021,-0.8269743323326111
1772790762851716600,5.267716552734375,0.7410995364189148,-1.5000014305114746,-0.647825300693512
1772790762871750700,5.287750732421875,0.7467878460884094,-1.166677713394165,-0.5315186977386475
1772790762891783400,5.307783447265625,0.6734820604324341,-0.8052684664726257,-0.5621824860572815
1772790762911816700,5.327816650390625,0.33017051219940186,-0.45095667243003845,-0.425698846578598
1772790762931850500,5.3478505859375,-0.24089425802230835,-0.12136460095643997,-0.07753948122262955
1772790762951883500,5.367883544921875,-1.029523491859436,0.11810474097728729,0.41012105345726013
1772790762971916500,5.38791650390625,-1.908198356628418,0.20031066238880157,0.9135688543319702
1772790762991950600,5.40795068359375,-2.6898484230041504,0.0729130357503891,1.3579249382019043
1772790763011983400,5.4279833984375,-3.257018566131592,-0.2645826041698456,1.6253703832626343
1772790763032016600,5.4480166015625,-3.5501222610473633,-0.6376457810401917,1.4869872331619263
1772790763052050700,5.46805078125,-3.6549150943756104,-0.9347982406616211,0.9787030816078186
1772790763072083500,5.48808349609375,-3.768754720687866,-1.0677261352539062,0.46721598505973816
1772790763092116500,5.508116455078125,-3.9291603565216064,-0.9694961905479431,0.2435181587934494
1772790763112150500,5.528150634765625,-3.9997777938842773,-0.5142797231674194,0.2522561550140381
1772790763132183600,5.54818359375,-3.9111135005950928,0.272910475730896,0.4574302136898041
1772790763152216300,5.56821630859375,-3.725059747695923,1.2199064493179321,0.8657549023628235
1772790763172250000,5.58825,-3.350964307785034,1.981752872467041,1.322035312652588
1772790763192283000,5.608282958984375,-2.651982069015503,2.289663314819336,1.6416953802108765
1772790763212317000,5.62831689453125,-1.690329670906067,1.9400300979614258,1.7907214164733887
1772790763232350200,5.64835009765625,-0.8171209096908569,1.194426417350769,1.6428165435791016
1772790763252383000,5.668383056640625,-0.1687021553516388,0.35568222403526306,1.0971170663833618
1772790763272417000,5.6884169921875,0.3082147538661957,-0.49934014678001404,0.38627201318740845
1772790763292450000,5.708449951171875,0.5022982954978943,-1.2785102128982544,-0.24702204763889313
1772790763312483000,5.728483154296875,0.447556734085083,-1.9426816701889038,-0.6746143698692322
1772790763332516900,5.748516845703125,0.31152305006980896,-2.5758326053619385,-1.0012587308883667
1772790763352550100,5.768550048828125,0.05772313103079796,-3.1091997623443604,-1.1940913200378418
1772790763372583000,5.7885830078125,-0.28500697016716003,-3.490234136581421,-1.3467116355895996
1772790763392617000,5.808616943359375,-0.7131933569908142,-3.6138575077056885,-1.392435908317566
1772790763412650000,5.82864990234375,-1.2899450063705444,-3.415485143661499,-1.2777527570724487
1772790763432683000,5.84868310546875,-1.821416974067688,-2.9470508098602295,-1.2199914455413818
1772790763452717000,5.868717041015625,-2.096973180770874,-2.1774442195892334,-1.1795793771743774
1772790763472749800,5.888749755859375,-2.1263489723205566,-1.093167781829834,-0.9767236709594727
1772790763492783000,5.908783203125,-1.9805573225021362,0.06168636307120323,-0.6168199777603149
1772790763512817000,5.92881689453125,-1.7011687755584717,1.0658293962478638,-0.22438232600688934
1772790763532850000,5.948849853515625,-1.3025763034820557,1.8439769744873047,0.13523834943771362
1772790763552883000,5.968883056640625,-0.8286117911338806,2.316819429397583,0.34665369987487793
1772790763572917000,5.9889169921875,-0.40118318796157837,2.3979547023773193,0.5943698883056641
1772790763592950000,6.008949951171875,-0.05278287082910538,2.1069588661193848,0.883520245552063
1772790763612984000,6.028984130859375,0.2415764480829239,1.6895657777786255,1.0793849229812622
1772790763633017000,6.04901708984375,0.5910798907279968,1.214186429977417,0.9623957276344299
1772790763653049900,6.0690498046875,1.0787811279296875,0.7099437117576599,0.5826645493507385
1772790763673084000,6.089083984375,1.635694146156311,0.20524710416793823,0.09102495014667511
1772790763693117000,6.109116943359375,2.1569716930389404,-0.2554425895214081,-0.39461183547973633
1772790763713150000,6.12914990234375,2.5210797786712646,-0.6229335069656372,-0.7464556694030762
1772790763733184000,6.14918408203125,2.681222677230835,-0.8784623742103577,-0.9797020554542542
1772790763753217000,6.169217041015625,2.650721311569214,-0.9192665219306946,-1.167864203453064
1772790763773250000,6.18925,2.5068392753601074,-0.7730480432510376,-1.290863037109375
1772790763793283800,6.209283935546875,2.324277639389038,-0.3939719498157501,-1.347718596458435
1772790763813317000,6.229317138671875,2.0937108993530273,0.15577353537082672,-1.2403100728988647
1772790763833350000,6.249349853515625,1.8553518056869507,0.8418973684310913,-0.8986604809761047
1772790763853384000,6.269384033203125,1.6807786226272583,1.612061858177185,-0.48550572991371155
1772790763873417000,6.2894169921875,1.5801246166229248,2.3026621341705322,-0.11963807791471481
1772790763893450000,6.309449951171875,1.5416803359985352,2.801192045211792,0.22212688624858856
1772790763913484000,6.329484130859375,1.643843173980713,3.1319241523742676,0.5469611287117004
1772790763933517000,6.34951708984375,1.879203200340271,3.2967875003814697,0.8472802042961121
1772790763953550000,6.369550048828125,2.2643604278564453,3.3690567016601562,1.0489081144332886
1772790763973584000,6.389583984375,2.7165367603302,3.2171406745910645,1.1813980340957642
1772790763993617200,6.4096171875,3.0873610973358154,2.82173228263855,1.2306121587753296
1772790764013650000,6.42964990234375,3.285862922668457,2.21679949760437,1.098952054977417
1772790764033684000,6.44968408203125,3.3347203731536865,1.3714704513549805,0.8403903245925903
1772790764053717000,6.469717041015625,3.2794766426086426,0.3289138078689575,0.4636169970035553
1772790764073751000,6.4897509765625,3.0991907119750977,-0.7577450275421143,0.030603287741541862
1772790764093784000,6.5097841796875,2.8043832778930664,-1.6717759370803833,-0.33347219228744507
1772790764113817000,6.529817138671875,2.3201804161071777,-1.8116378784179688,-0.47316840291023254
1772790764133851100,6.54985107421875,1.4572103023529053,-0.8731580972671509,-0.13956739008426666
1772790764153884000,6.5698837890625,0.5470393300056458,0.5319169759750366,0.4573535621166229
1772790764173917400,6.58991748046875,0.05857327580451965,1.8363617658615112,0.9018957614898682
1772790764193951500,6.609951416015625,-0.10957258939743042,2.5510923862457275,1.1180227994918823
1772790764213984800,6.62998486328125,-0.17096617817878723,2.6024181842803955,0.9317842125892639
1772790764234017500,6.650017578125,-0.09554338455200195,2.200427770614624,0.26985523104667664
1772790764254051600,6.670051513671875,0.22214989364147186,1.5869168043136597,-0.876509428024292
1772790764274084600,6.690084716796875,0.11910945922136307,0.5757775902748108,-1.853208303451538
1772790764294117600,6.71011767578125,-0.3292262554168701,-0.6828499436378479,-2.0773141384124756
1772790764314151400,6.7301513671875,-0.6503763198852539,-1.8127497434616089,-1.6755274534225464
1772790764334184700,6.750184814453125,-1.2470223903656006,-2.299034833908081,-0.8507051467895508
1772790764354217500,6.770217529296875,-2.3189501762390137,-2.6497955322265625,0.12234696000814438
1772790764374251500,6.79025146484375,-3.5422444343566895,-3.150209426879883,0.9158726334571838
1772790764394284800,6.810284912109375,-4.285611152648926,-3.491807699203491,1.1942137479782104
1772790764414317600,6.830317626953125,-4.323184490203857,-3.6047167778015137,1.0384429693222046
1772790764434351600,6.8503515625,-3.9974365234375,-3.2834625244140625,0.6119303107261658
1772790764454384600,6.870384521484375,-3.442206382751465,-2.465622663497925,0.08308367431163788
1772790764474418700,6.890418701171875,-2.917600393295288,-1.4113566875457764,-0.35225892066955566
1772790764494451500,6.910451416015625,-2.6437430381774902,-0.38233041763305664,-0.34380313754081726
1772790764514484700,6.930484619140625,-2.500258445739746,0.6888668537139893,-0.3679915964603424
1772790764534518800,6.950518798828125,-2.2363672256469727,1.5736620426177979,-0.47285816073417664
1772790764554551600,6.970551513671875,-1.8683255910873413,2.0063724517822266,-0.4729093909263611
1772790764574584800,6.990584716796875,-1.6066749095916748,1.9134100675582886,-0.38168445229530334
1772790764594618600,7.01061865234375,-1.4303029775619507,1.2982699871063232,-0.5444239974021912
1772790764614651600,7.030651611328125,-1.1814073324203491,0.5293293595314026,-0.9699306488037109
1772790764634684700,7.0506845703125,-0.9754022359848022,-0.298013299703598,-1.3365037441253662
1772790764654718700,7.07071875,-0.8513293862342834,-1.0448869466781616,-1.5376780033111572
1772790764674751500,7.09075146484375,-0.8440645337104797,-1.7289924621582031,-1.6143333911895752
1772790764694784800,7.11078466796875,-1.0967148542404175,-2.2034859657287598,-1.496842384338379
1772790764714818800,7.13081884765625,-1.5556299686431885,-2.4155356884002686,-1.1402571201324463
1772790764734851600,7.1508515625,-2.0963447093963623,-2.3333311080932617,-0.6203323006629944
1772790764754884600,7.170884521484375,-2.4553065299987793,-2.1165177822113037,-0.11377483606338501
1772790764774918700,7.190918701171875,-2.524738311767578,-1.847071886062622,0.3080205023288727
1772790764794951700,7.21095166015625,-2.4046945571899414,-1.5528076887130737,0.6190668344497681
1772790764814984400,7.230984375,-2.2051753997802734,-1.2752456665039062,0.7556875348091125
1772790764835018800,7.251018798828125,-2.0210981369018555,-0.9322822093963623,0.709863543510437
1772790764855051500,7.271051513671875,-1.7564172744750977,-0.4450795352458954,0.5198974609375
1772790764875084500,7.29108447265625,-1.5333675146102905,-0.0012097302824258804,0.41819924116134644
1772790764895118600,7.31111865234375,-1.1741888523101807,0.3223823308944702,0.3095495402812958
1772790764915151600,7.331151611328125,-0.6028299927711487,0.6179767847061157,0.15562215447425842
1772790764935185700,7.351185546875,-0.05167233198881149,0.839266836643219,0.13791052997112274
1772790764955218400,7.371218505859375,0.4012797772884369,0.9767649173736572,0.25758668780326843
1772790764975251700,7.391251708984375,0.8063400983810425,1.0766446590423584,0.34143558144569397
1772790764995285500,7.411285400390625,1.2142080068588257,1.0962170362472534,0.3061368763446808
1772790765015318500,7.431318603515625,1.5839773416519165,1.0330764055252075,0.17858874797821045
1772790765035351600,7.4513515625,1.947778344154358,0.862350583076477,-0.005531396716833115
1772790765055385600,7.471385498046875,2.3106610774993896,0.6842098832130432,-0.2381657063961029
1772790765075418600,7.491418701171875,2.536860704421997,0.6079966425895691,-0.3236335217952728
1772790765095451600,7.51145166015625,2.5896050930023193,0.6646658778190613,-0.3039852976799011
1772790765115485700,7.531485595703125,2.6330416202545166,0.810066819190979,-0.26266995072364807
1772790765135518500,7.5515185546875,2.687556505203247,1.0304973125457764,-0.2022744119167328
1772790765155551700,7.5715517578125,2.7738940715789795,1.2960617542266846,-0.0902356281876564
1772790765175584800,7.591584716796875,2.872837781906128,1.5393928289413452,0.05290212482213974
1772790765195617800,7.61161767578125,2.9534082412719727,1.766018033027649,0.14032988250255585
1772790765215650800,7.63165087890625,3.0154306888580322,1.9513335227966309,0.2141803503036499
1772790765235684900,7.651684814453125,3.07246994972229,2.074312210083008,0.22275061905384064
1772790765255717600,7.671717529296875,3.1493003368377686,2.154188871383667,0.2758249044418335
1772790765275751000,7.6917509765625,3.2928895950317383,2.198930263519287,0.37682539224624634
1772790765295785000,7.711784912109375,3.480052947998047,2.204655885696411,0.5374004244804382
1772790765315817700,7.731817626953125,3.593886137008667,2.158731698989868,0.6697410941123962
1772790765335852000,7.75185205078125,3.5762217044830322,1.96145498752594,0.6270772814750671
1772790765355884800,7.771884765625,3.3785884380340576,1.5011882781982422,0.4635927677154541
1772790765375917800,7.791917724609375,2.9987339973449707,0.7843830585479736,0.20104609429836273
1772790765395951900,7.811951904296875,2.538177728652954,-0.09913953393697739,-0.15766452252864838
1772790765415985000,7.83198486328125,2.0881175994873047,-1.0138270854949951,-0.4704833924770355
1772790765436017700,7.852017578125,1.70368230342865,-1.7110623121261597,-0.6231220364570618
1772790765456051700,7.8720517578125,1.3187090158462524,-2.1032907962799072,-0.6769430041313171
1772790765476085000,7.8920849609375,0.9311606884002686,-2.201414108276367,-0.6839249134063721
1772790765496117800,7.91211767578125,0.6193110346794128,-2.084757089614868,-0.5893012881278992
1772790765516151800,7.93215185546875,0.43238481879234314,-1.8052043914794922,-0.41127297282218933
1772790765536184800,7.952184814453125,0.31390172243118286,-1.3658159971237183,-0.19857783615589142
1772790765556217900,7.9722177734375,0.15690764784812927,-0.8625174760818481,-0.022345567122101784
1772790765576247800,7.992247802734375,-0.17656660079956055,-0.3752554953098297,0.1083965077996254
1772790765596281900,8.01228173828125,-0.5362380146980286,-0.0180214773863554,0.1370011270046234
1772790765616315000,8.03231494140625,-0.9632367491722107,0.17908300459384918,0.27864283323287964
1772790765636349000,8.052348876953126,-1.4707145690917969,0.3125171661376953,0.6572077870368958
1772790765656382000,8.0723818359375,-2.0726826190948486,0.4553121328353882,0.9681129455566406
1772790765676415000,8.0924150390625,-2.7405757904052734,0.5231668949127197,1.0310099124908447
1772790765696448800,8.11244873046875,-3.3090388774871826,0.4614315330982208,0.7921269536018372
1772790765716482000,8.13248193359375,-3.726987838745117,0.251678466796875,0.35498279333114624
1772790765736514800,8.152514892578125,-4.019190788269043,-0.04761102795600891,-0.20153574645519257
1772790765756548900,8.172548828125,-4.24009895324707,-0.2875247597694397,-0.9045332074165344
1772790765776582000,8.192581787109376,-4.396712303161621,-0.38996464014053345,-1.5052286386489868
1772790765796615000,8.212614990234375,-4.292050838470459,-0.3403996527194977,-1.8702634572982788
1772790765816649000,8.23264892578125,-3.923590898513794,-0.02338516339659691,-1.9753241539001465
1772790765836681700,8.252681640625,-3.397235155105591,0.38784921169281006,-1.7294865846633911
1772790765856715000,8.272715087890624,-2.773925542831421,0.8101102709770203,-1.2686303853988647
1772790765876748800,8.292748779296875,-2.0448601245880127,0.985466480255127,-0.7766577005386353
1772790765896781800,8.31278173828125,-1.2247899770736694,0.8300943374633789,-0.4927102327346802
1772790765916814800,8.33281494140625,-0.49187296628952026,0.2886025905609131,-0.41356146335601807
1772790765936849000,8.352848876953125,0.01633201539516449,-0.475220263004303,-0.5176454186439514
1772790765956881700,8.372881591796874,0.3813081979751587,-1.3109562397003174,-0.7421835064888
1772790765976915700,8.392915771484375,0.5520414113998413,-2.038344621658325,-0.8221871852874756
1772790765996949000,8.412948974609375,0.5569482445716858,-2.6017539501190186,-0.7628425359725952
1772790766016982800,8.432982666015626,0.44250380992889404,-2.992201089859009,-0.6801206469535828
1772790766037016800,8.453016845703125,0.1483239382505417,-3.1914243698120117,-0.5615500807762146
1772790766057049900,8.4730498046875,-0.27721214294433594,-3.2429351806640625,-0.45672720670700073
1772790766077083000,8.493082763671875,-0.7846407890319824,-3.107463836669922,-0.4086984097957611
1772790766097117000,8.513116943359375,-1.3449311256408691,-2.7984893321990967,-0.3849974572658539
1772790766117150000,8.53314990234375,-1.7423691749572754,-2.322885513305664,-0.3928734064102173
1772790766137183000,8.553182861328125,-1.9266769886016846,-1.6656439304351807,-0.33658093214035034
1772790766157216800,8.573216796875,-1.9789084196090698,-0.7633583545684814,-0.17956741154193878
1772790766177250800,8.593250732421875,-1.8914426565170288,0.5755493640899658,0.13422313332557678
1772790766197284900,8.613284912109375,-1.7433528900146484,2.3726840019226074,0.9042151570320129
1772790766217318000,8.63331787109375,-1.7122271060943604,4.378462791442871,2.166227102279663
1772790766237351000,8.653350830078125,-1.6261612176895142,5.901984214782715,3.4457967281341553
1772790766257384700,8.673384765625,-1.0497480630874634,6.296154499053955,4.484519958496094
1772790766277418000,8.69341796875,-0.20717543363571167,5.382514953613281,4.653352737426758
1772790766297450800,8.71345068359375,0.05396341159939766,3.8520452976226807,3.4182708263397217
1772790766317484800,8.73348486328125,0.03824923187494278,1.9414536952972412,0.573616623878479
1772790766337518000,8.75351806640625,0.5949738025665283,-1.2951076030731201,-1.977102518081665
1772790766357550800,8.77355078125,0.5278972387313843,-3.979633092880249,-2.835345983505249
1772790766377585000,8.7935849609375,-0.24041229486465454,-4.315189361572266,-2.7284317016601562
1772790766397618000,8.813617919921874,-0.3970663547515869,-2.9719879627227783,-2.420297145843506
1772790766417651000,8.83365087890625,0.48291638493537903,-1.1369881629943848,-2.2540693283081055
1772790766437684700,8.853684814453125,1.5184828042984009,0.7694383263587952,-2.1659014225006104
1772790766457718000,8.873718017578126,1.881438136100769,1.9416675567626953,-1.907570242881775
1772790766477752000,8.893751953125,1.9610254764556885,2.2777750492095947,-1.6275005340576172
1772790766497784800,8.913784912109374,2.0935401916503906,2.0963728427886963,-1.509596824645996
1772790766517817900,8.93381787109375,2.234347105026245,1.6180351972579956,-1.313114881515503
1772790766537852000,8.953851806640625,2.2993147373199463,0.8667047023773193,-0.9317994117736816
1772790766557885000,8.973885009765626,2.2158362865448,-0.13731053471565247,-0.3734835386276245
1772790766577917700,8.993917724609375,1.9354521036148071,-1.1056907176971436,0.29055848717689514
1772790766597952000,9.013951904296874,1.4306269884109497,-1.6326775550842285,0.9284599423408508
1772790766617984800,9.03398486328125,0.8939245343208313,-1.7774229049682617,1.2747433185577393
1772790766638017800,9.054017822265624,0.4801522195339203,-1.599481463432312,1.27888023853302
1772790766658051800,9.0740517578125,0.37730738520622253,-1.0404911041259766,0.9683023691177368
1772790766678084900,9.0940849609375,0.6189035773277283,-0.3136286735534668,0.48053058981895447
1772790766698118000,9.114117919921876,1.0760971307754517,0.5166154503822327,0.054982565343379974
1772790766718151700,9.134151611328125,1.6353087425231934,1.201004147529602,-0.20651791989803314
1772790766738185000,9.15418505859375,2.199479579925537,1.6695523262023926,-0.4579993486404419
1772790766758217700,9.1742177734375,2.657602310180664,1.9048744440078735,-0.7067340016365051
1772790766778251800,9.194251708984375,2.939549446105957,1.858324408531189,-0.9302743673324585
1772790766798284800,9.214284912109376,3.00334095954895,1.5318803787231445,-1.0922123193740845
1772790766818318800,9.23431884765625,2.892819404602051,1.0265957117080688,-1.161728858947754
1772790766838352000,9.254351806640624,2.6739649772644043,0.33371099829673767,-1.1112709045410156
1772790766858385000,9.274385009765625,2.371878147125244,-0.2763218581676483,-0.9669204354286194
1772790766878419000,9.2944189453125,2.03973126411438,-0.6727652549743652,-0.7600778341293335
1772790766898451700,9.31445166015625,1.7090535163879395,-0.9562304615974426,-0.489377498626709
1772790766918485000,9.334485107421875,1.298163652420044,-1.1033738851547241,-0.12702973186969757
1772790766938518800,9.354518798828124,0.7999201416969299,-1.1123123168945312,0.18646636605262756
1772790766958551800,9.3745517578125,0.3819725811481476,-1.0508382320404053,0.3865407705307007
1772790766978584800,9.394584716796874,0.07890385389328003,-1.1144908666610718,0.5191576480865479
1772790766998619000,9.414618896484376,-0.08400863409042358,-1.225515604019165,0.4774675965309143
1772790767018652000,9.43465185546875,-0.15737612545490265,-1.233762264251709,0.19123652577400208
1772790767038685000,9.454684814453126,-0.3751250207424164,-1.1447399854660034,-0.24146907031536102
1772790767058719000,9.474718994140625,-0.7695580124855042,-1.097854733467102,-0.34320947527885437
1772790767078751700,9.494751708984374,-1.2993638515472412,-0.9383492469787598,-0.0758255273103714
1772790767098785000,9.514784912109375,-1.761439561843872,-0.6521619558334351,0.5241772532463074
1772790767118818800,9.53481884765625,-2.1713411808013916,-0.33676379919052124,1.3792078495025635
1772790767138851800,9.554851806640626,-2.5760531425476074,-0.005532299168407917,2.106459140777588
1772790767158884900,9.574884765625,-2.9735805988311768,0.155092254281044,2.3943307399749756
1772790767178918400,9.59491845703125,-3.401583671569824,0.026612620800733566,2.110192060470581
1772790767198951400,9.614951416015625,-3.75766921043396,-0.21898631751537323,1.1359540224075317
1772790767218985200,9.634985107421874,-3.827070713043213,-0.09738370776176453,-0.4612024426460266
1772790767239018500,9.6550185546875,-3.702507257461548,0.0726010724902153,-1.8648781776428223
1772790767259051300,9.67505126953125,-3.628380298614502,0.34528201818466187,-2.4461662769317627
1772790767279085300,9.695085205078126,-3.29561185836792,0.654657781124115,-2.551619291305542
1772790767299118600,9.71511865234375,-2.6315603256225586,0.6610548496246338,-2.294705867767334
1772790767319151400,9.7351513671875,-1.7887495756149292,0.1714642494916916,-1.8848611116409302
1772790767339185400,9.755185302734375,-0.8750560879707336,-0.5413326621055603,-1.7149964570999146
1772790767359218400,9.775218505859375,-0.0670565515756607,-1.315970540046692,-1.7695766687393188
1772790767379251500,9.79525146484375,0.5132634043693542,-2.0519213676452637,-1.8603535890579224
1772790767399285200,9.81528515625,0.8831222057342529,-2.6262528896331787,-1.9191277027130127
1772790767419318500,9.835318603515624,1.0415385961532593,-3.1022660732269287,-1.8764227628707886
1772790767439351300,9.855351318359375,1.0173594951629639,-3.416073799133301,-1.7815006971359253
1772790767459385300,9.87538525390625,0.8281323909759521,-3.5373952388763428,-1.6007009744644165
1772790767479418600,9.895418701171875,0.5073485374450684,-3.499185800552368,-1.405286431312561
1772790767499451400,9.915451416015625,0.03834544122219086,-3.2881855964660645,-1.1892541646957397
1772790767519485400,9.9354853515625,-0.5660731196403503,-2.870946168899536,-0.9190978407859802
1772790767539518500,9.9555185546875,-1.2767765522003174,-2.1893651485443115,-0.6764306426048279
1772790767559552500,9.975552490234374,-2.016594409942627,-1.270660161972046,-0.5161844491958618
1772790767579585300,9.995585205078125,-2.526829481124878,-0.2945796847343445,-0.3040876090526581
1772790767599618600,10.01561865234375,-2.6682887077331543,0.601818859577179,0.11155794560909271
1772790767619652600,10.035652587890626,-2.555094003677368,1.480523705482483,0.6610395312309265
1772790767639685400,10.055685302734375,-2.3789825439453125,2.2438912391662598,1.137174367904663
1772790767659718400,10.075718505859374,-2.1608407497406006,2.787233829498291,1.578312635421753
1772790767679752400,10.09575244140625,-1.8320467472076416,2.956691265106201,2.01247239112854
1772790767699785500,10.115785400390624,-1.3834927082061768,2.755495071411133,2.3553829193115234
1772790767719818200,10.135818359375,-0.8436424732208252,2.2430169582366943,2.3561432361602783
1772790767739852500,10.1558525390625,-0.47453737258911133,1.616174340248108,2.0936408042907715
1772790767759885300,10.17588525390625,-0.37743300199508667,0.9895375370979309,1.7151421308517456
1772790767779918300,10.19591845703125,-0.2927338778972626,0.2951560318470001,1.0786466598510742
1772790767799952400,10.215952392578124,0.00200647278688848,-0.4007929861545563,0.18707723915576935
1772790767819985400,10.2359853515625,0.42387673258781433,-0.99066162109375,-0.6930996179580688
1772790767840018400,10.256018310546875,0.8227334022521973,-1.4598438739776611,-1.2171831130981445
1772790767860052200,10.27605224609375,1.1386284828186035,-1.6727217435836792,-1.3393563032150269
1772790767880085500,10.29608544921875,1.4174314737319946,-1.6130759716033936,-1.1304795742034912
1772790767900118300,10.3161181640625,1.6803048849105835,-1.3253248929977417,-0.7612255215644836
1772790767920152300,10.33615234375,1.9303357601165771,-0.8399430513381958,-0.43766456842422485
1772790767940185300,10.356185302734374,2.105990409851074,-0.1891884207725525,-0.15541969239711761
1772790767960219400,10.376219482421876,2.248258352279663,0.6121620535850525,0.16809852421283722
1772790767980252400,10.39625244140625,2.3650150299072266,1.4286640882492065,0.5091893076896667
1772790768000285400,10.416285400390626,2.3995256423950195,2.283377170562744,0.8704684376716614
1772790768020319500,10.436319580078125,2.331475257873535,2.9278533458709717,1.1531459093093872
1772790768040352300,10.456352294921874,2.20274019241333,3.3680150508880615,1.246237874031067
1772790768060385500,10.476385498046875,2.01505184173584,3.5260515213012695,1.2265386581420898
1772790768080419300,10.49641943359375,1.831335425376892,3.449397325515747,1.0506731271743774
1772790768100452400,10.516452392578126,1.7003790140151978,3.0874242782592773,0.782561182975769
1772790768120485400,10.5364853515625,1.6360180377960205,2.540756940841675,0.4570988118648529
1772790768140519400,10.55651953125,1.6764929294586182,1.8684613704681396,0.08186055719852448
1772790768160552400,10.576552490234375,1.7893996238708496,1.1158980131149292,-0.29034096002578735
1772790768180586000,10.5965859375,1.9392162561416626,0.3144930899143219,-0.6541566252708435
1772790768200620000,10.6166201171875,2.0638716220855713,-0.43958014249801636,-0.9555234909057617
1772790768220652800,10.63665283203125,2.0946576595306396,-1.0662035942077637,-1.1163588762283325
1772790768240685800,10.656685791015626,2.0318233966827393,-1.5660995244979858,-1.1783381700515747
1772790768260719900,10.676719970703125,1.8815909624099731,-1.9306176900863647,-1.1207630634307861
1772790768280753000,10.6967529296875,1.6725757122039795,-2.184039354324341,-1.0030553340911865
1772790768300787000,10.716786865234376,1.4574668407440186,-2.3060412406921387,-0.8384486436843872
1772790768320820000,10.736820068359375,1.210847020149231,-2.2291038036346436,-0.6857651472091675
1772790768340853000,10.75685302734375,0.938825249671936,-1.9991364479064941,-0.5508324503898621
1772790768360886800,10.77688671875,0.6919949054718018,-1.6998708248138428,-0.4922519624233246
1772790768380919800,10.796919921875,0.4840133786201477,-1.374554991722107,-0.3866364061832428
1772790768400952800,10.816952880859375,0.4077243506908417,-0.9925241470336914,-0.2908463776111603
1772790768420987000,10.83698681640625,0.3565957248210907,-0.6177302598953247,-0.3038121461868286
1772790768441019600,10.85701953125,0.1083289161324501,-0.2227916121482849,-0.11950099468231201
1772790768461053000,10.877052978515625,-0.3263244032859802,0.06547266989946365,0.38466373085975647
1772790768481087000,10.8970869140625,-0.9005346298217773,0.33642464876174927,1.048458456993103
1772790768501119700,10.91711962890625,-1.4702610969543457,0.4939853847026825,1.4907673597335815
1772790768521153000,10.937153076171874,-1.9923030138015747,0.48882174491882324,1.631665825843811
1772790768541186800,10.957186767578126,-2.4986889362335205,0.3143516480922699,1.5446308851242065
1772790768561219800,10.9772197265625,-2.9552669525146484,0.020408611744642258,1.3032944202423096
1772790768581252900,10.9972529296875,-3.3334033489227295,-0.28274279832839966,0.8982037901878357
1772790768601287000,11.017286865234375,-3.608469009399414,-0.3610972464084625,0.2856598198413849
1772790768621319700,11.037319580078124,-3.7161569595336914,-0.13539108633995056,-0.4059142470359802
1772790768641353000,11.05735302734375,-3.716350793838501,0.316097617149353,-0.8357747197151184
1772790768661387000,11.077386962890625,-3.552084445953369,0.8600942492485046,-0.9263365268707275
1772790768681419800,11.097419677734376,-3.2109973430633545,1.3734878301620483,-0.6781608462333679
1772790768701453000,11.117453125,-2.721724510192871,1.6478848457336426,-0.24295492470264435
1772790768721486800,11.13748681640625,-2.0435707569122314,1.5190086364746094,0.12314361333847046
1772790768741520000,11.157519775390625,-1.2259676456451416,0.9075559377670288,0.3038310408592224
1772790768761553700,11.1775537109375,-0.4601927399635315,0.06308212131261826,0.2380286157131195
1772790768781587000,11.1975869140625,0.10475322604179382,-0.6638931035995483,-0.007096954621374607
1772790768801619700,11.21761962890625,0.47704729437828064,-1.3227715492248535,-0.3089522123336792
1772790768821653800,11.23765380859375,0.6998285055160522,-1.7715518474578857,-0.5866182446479797
1772790768841687000,11.25768701171875,0.8492534756660461,-2.1362929344177246,-0.7357562184333801
1772790768861719800,11.2777197265625,0.8881980180740356,-2.445051431655884,-0.7384013533592224
1772790768881753900,11.29775390625,0.758406937122345,-2.6303906440734863,-0.7563203573226929
1772790768901787000,11.317786865234375,0.5063297152519226,-2.7567944526672363,-0.8796979784965515
1772790768921820000,11.33781982421875,0.06934855878353119,-2.792616844177246,-1.0486398935317993
1772790768941853700,11.357853759765625,-0.45991501212120056,-2.667072057723999,-1.2603018283843994
1772790768961887000,11.377886962890624,-0.9929320812225342,-2.411574363708496,-1.4134865999221802
1772790768981919700,11.397919677734375,-1.4414772987365723,-1.9954979419708252,-1.3822966814041138
1772790769001953800,11.417953857421875,-1.8063384294509888,-1.4618875980377197,-1.0582985877990723
1772790769021987000,11.437987060546876,-2.138444185256958,-0.6671819686889648,-0.58189857006073
1772790769042019800,11.458019775390625,-2.3580243587493896,0.32288140058517456,0.02565964311361313
1772790769062054000,11.478053955078124,-2.2192938327789307,1.2665218114852905,0.7137670516967773
1772790769082087000,11.4980869140625,-1.6994576454162598,1.9767717123031616,1.5654314756393433
1772790769102121000,11.518120849609375,-0.9738277196884155,2.177079200744629,2.3851704597473145
1772790769122153700,11.53815380859375,-0.22806034982204437,1.8961995840072632,2.657029628753662
1772790769142187000,11.55818701171875,0.3123832941055298,1.4230737686157227,2.1867005825042725
1772790769162221000,11.578220947265624,0.5961819887161255,1.303748607635498,0.966358482837677
1772790769182253600,11.598253662109375,0.3813604414463043,0.8441113233566284,-0.3153226673603058
1772790769202286800,11.618286865234374,-0.04290207847952843,0.2192906141281128,-1.3033331632614136
1772790769222320600,11.638320556640625,-0.17017200589179993,-0.47080203890800476,-2.1354143619537354
1772790769242353700,11.658353759765625,0.06379161030054092,-1.1452816724777222,-2.630166530609131
1772790769262386700,11.67838671875,0.4585513770580292,-1.7121509313583374,-2.7341184616088867
1772790769282420700,11.698420654296875,0.802736222743988,-2.0013349056243896,-2.5459349155426025
1772790769302453800,11.718453857421874,1.0193586349487305,-1.9662331342697144,-2.1305174827575684
1772790769322486500,11.738486572265625,1.2675156593322754,-1.6982022523880005,-1.6711119413375854
1772790769342520800,11.758520751953125,1.6382769346237183,-1.2375823259353638,-1.257880449295044
1772790769362553600,11.7785537109375,2.0285634994506836,-0.6770647168159485,-0.8469009399414062
1772790769382586600,11.798586669921875,2.3590919971466064,0.08947733789682388,-0.36286497116088867
1772790769402620700,11.81862060546875,2.589038610458374,0.8914273381233215,0.21258147060871124
1772790769422653700,11.83865380859375,2.71189022064209,1.6912175416946411,0.802600622177124
1772790769442686500,11.8586865234375,2.682528018951416,2.2628395557403564,1.327666997909546
1772790769462720500,11.878720458984375,2.5096659660339355,2.6427478790283203,1.6483529806137085
1772790769482753800,11.89875390625,2.333003520965576,2.786993980407715,1.7614245414733887
1772790769502787600,11.91878759765625,2.247898578643799,2.6587774753570557,1.6826120615005493
1772790769522820600,11.938820556640625,2.2620129585266113,2.2749674320220947,1.470165491104126
1772790769542853600,11.958853515625,2.3615188598632812,1.6902567148208618,1.1514277458190918
1772790769562887700,11.9788876953125,2.4738919734954834,1.0564299821853638,0.7818397283554077
1772790769582919700,11.998919677734374,2.5063812732696533,0.39014822244644165,0.4732716679573059
1772790769602952700,12.01895263671875,2.428786516189575,-0.16772891581058502,0.22494328022003174
1772790769622986500,12.038986572265625,2.3165946006774902,-0.6794958114624023,0.08869469910860062
1772790769643019800,12.059019775390626,2.162057399749756,-1.069253921508789,0.09012246131896973
1772790769663052500,12.079052490234375,1.9661861658096313,-1.3485718965530396,0.1659567803144455
1772790769683086600,12.099086669921874,1.7494679689407349,-1.4848437309265137,0.22837598621845245
1772790769703120000,12.119119873046875,1.509627103805542,-1.5936588048934937,0.33805200457572937
1772790769723152600,12.139152587890624,1.1329721212387085,-1.5417306423187256,0.5855341553688049
1772790769743186700,12.159186767578126,0.572926938533783,-1.2441606521606445,0.8106060028076172
1772790769763219700,12.1792197265625,0.034716881811618805,-0.8299326300621033,0.8496666550636292
1772790769783252700,12.199252685546876,-0.3240102529525757,-0.500334620475769,0.8080249428749084
1772790769803286500,12.21928662109375,-0.46535933017730713,-0.2587786316871643,0.748081624507904
1772790769823319600,12.239319580078124,-0.4806147813796997,-0.11554665863513947,0.8055936098098755
1772790769843352600,12.2593525390625,-0.4074743986129761,0.012216701172292233,0.8523474335670471
1772790769863386600,12.27938671875,-0.3742821514606476,0.08814286440610886,0.6990962624549866
1772790769883419600,12.299419677734376,-0.581151008605957,0.020125148817896843,0.7908802032470703
1772790769903452700,12.31945263671875,-0.9790827631950378,-0.12196092307567596,1.0255072116851807
1772790769923486700,12.33948681640625,-1.422104835510254,-0.29061755537986755,1.0871624946594238
1772790769943519500,12.35951953125,-1.8558967113494873,-0.5434234142303467,1.0012108087539673
1772790769963553800,12.3795537109375,-2.25307559967041,-0.8627788424491882,0.8414396643638611
1772790769983586600,12.399586669921876,-2.5760536193847656,-1.1485834121704102,0.5845173597335815
1772790770003623700,12.419623779296876,-2.822368860244751,-1.2822014093399048,0.1732901781797409
1772790770023656700,12.43965673828125,-2.990297555923462,-1.1791101694107056,-0.4768705368041992
1772790770043689700,12.459689697265626,-3.0706443786621094,-0.7874352335929871,-1.213241457939148
1772790770063723500,12.4797236328125,-3.0506985187530518,-0.21359090507030487,-1.7346259355545044
1772790770083756800,12.4997568359375,-2.9044578075408936,0.4554172158241272,-1.9404014348983765
1772790770103789600,12.51978955078125,-2.5732147693634033,1.0566072463989258,-1.8799068927764893
1772790770123823600,12.53982373046875,-2.1279408931732178,1.4520325660705566,-1.7191158533096313
1772790770143856600,12.559856689453126,-1.5326944589614868,1.4053632020950317,-1.6359916925430298
1772790770163889700,12.5798896484375,-0.9597952365875244,0.9097883701324463,-1.6328246593475342
1772790770183923700,12.599923828125,-0.5174089670181274,0.23961448669433594,-1.693034052848816
1772790770203956700,12.619956787109375,-0.23155102133750916,-0.4289504587650299,-1.7538020610809326
1772790770223989800,12.63998974609375,-0.0892479419708252,-1.0238444805145264,-1.7718713283538818
1772790770244023800,12.66002392578125,-0.011078969575464725,-1.5314980745315552,-1.760698676109314
1772790770264056600,12.680056640625,-0.07866500318050385,-2.0339910984039307,-1.5449334383010864
1772790770284089900,12.70008984375,-0.33512234687805176,-2.3589134216308594,-1.2265948057174683
1772790770304124000,12.7201240234375,-0.740352213382721,-2.4601292610168457,-0.9181707501411438
1772790770324156700,12.74015673828125,-1.240447998046875,-2.303473949432373,-0.6948639750480652
1772790770344190700,12.760190673828125,-1.8147947788238525,-1.9143742322921753,-0.4536703824996948
1772790770364223700,12.7802236328125,-2.3880081176757812,-1.307966709136963,-0.19991618394851685
1772790770384256800,12.8002568359375,-2.7124249935150146,-0.5501157641410828,-0.05153995752334595
1772790770404290600,12.82029052734375,-2.6687426567077637,0.25422510504722595,0.20210738480091095
1772790770424323800,12.84032373046875,-2.56611967086792,1.1488521099090576,0.7097442150115967
1772790770444356600,12.860356689453125,-2.3896067142486572,1.9923864603042603,1.0894036293029785
1772790770464390700,12.880390625,-2.0241475105285645,2.6905009746551514,1.2098628282546997
1772790770484424000,12.900423828125,-1.3698118925094604,3.0168187618255615,1.124459147453308
1772790770504456700,12.920456787109375,-0.5582980513572693,2.9143471717834473,0.9907589554786682
1772790770524490800,12.94049072265625,0.35826173424720764,2.2058119773864746,1.0213488340377808
1772790770544523800,12.960523681640625,1.298964023590088,0.6412941813468933,0.9430604577064514
1772790770564556800,12.980556884765624,1.9833928346633911,-1.1952109336853027,0.27014395594596863
1772790770584590600,13.000590576171875,2.533153772354126,-2.6461634635925293,-0.539031445980072
1772790770604624000,13.020623779296875,2.8418750762939453,-3.39340877532959,-0.9274235367774963
1772790770624656600,13.04065673828125,2.846585512161255,-3.376274585723877,-1.0619064569473267
1772790770644690700,13.060690673828125,2.7837390899658203,-2.63440203666687,-0.9449969530105591
1772790770664724000,13.080723876953124,2.643333673477173,-1.6929042339324951,-0.7447579503059387
1772790770684757800,13.1007578125,2.6525723934173584,-0.9269016981124878,-0.7053430080413818
1772790770704790800,13.120790771484375,2.88834810256958,-0.37164583802223206,-0.5468599796295166
1772790770724823800,13.14082373046875,3.2234320640563965,0.1759389489889145,-0.2382940798997879
1772790770744857900,13.16085791015625,3.4596731662750244,0.7247994542121887,0.16157327592372894
1772790770764890600,13.180890625,3.4516663551330566,1.3393183946609497,0.5654417872428894
1772790770784924000,13.200923828125,3.093989610671997,1.8776026964187622,0.8524540662765503
1772790770804958000,13.2209580078125,2.5283236503601074,2.2151522636413574,1.0211458206176758
1772790770824990700,13.24099072265625,1.9066342115402222,2.236056327819824,1.191903829574585
1772790770845023700,13.261023681640625,1.2868613004684448,2.0058019161224365,1.36505126953125
1772790770865057800,13.281057861328126,0.651077151298523,1.590930461883545,1.5316240787506104
1772790770885090800,13.3010908203125,0.03262796625494957,1.2129929065704346,1.7032514810562134
1772790770905123600,13.32112353515625,-0.4101605713367462,0.976218581199646,1.8270738124847412
1772790770925158000,13.341157958984375,-0.5788062214851379,0.9837696552276611,1.9157190322875977
1772790770945190700,13.361190673828125,-0.4671678841114044,1.2692068815231323,2.0048880577087402
1772790770965224700,13.381224609375,-0.15124526619911194,1.663973331451416,2.055589199066162
1772790770985258000,13.401258056640625,0.2634199559688568,2.1140730381011963,1.8857465982437134
1772790771005290800,13.421290771484376,0.5720386505126953,2.3498432636260986,1.4850291013717651
1772790771025324800,13.44132470703125,0.7554097771644592,2.286240577697754,0.9012745022773743
1772790771045357800,13.46135791015625,0.8100515604019165,1.8701505661010742,0.2098180204629898
1772790771065390800,13.481390869140625,0.7581758499145508,1.2096248865127563,-0.46641620993614197
1772790771085425000,13.5014248046875,0.6629801392555237,0.43819528818130493,-0.9962400197982788
1772790771105457700,13.521457763671876,0.5849853157997131,-0.4282204508781433,-1.2738620042800903
1772790771125490700,13.54149072265625,0.5287302136421204,-1.2297579050064087,-1.3639700412750244
1772790771145524700,13.561524658203124,0.4771101474761963,-1.7572386264801025,-1.3065929412841797
1772790771165557800,13.581557861328125,0.25562724471092224,-1.8772691488265991,-1.1429427862167358
1772790771185591000,13.601591064453125,-0.023726321756839752,-1.7145435810089111,-1.2266931533813477
1772790771205624800,13.621624755859376,-0.20466327667236328,-1.4739580154418945,-1.488510012626648
1772790771225657900,13.641657958984375,-0.33069631457328796,-1.2891316413879395,-1.4970139265060425
1772790771245691000,13.66169091796875,-0.48974430561065674,-1.042807698249817,-1.235525369644165
1772790771265725000,13.681724853515625,-0.7693695425987244,-0.6717848181724548,-0.9291405081748962
1772790771285757700,13.7017578125,-1.071897268295288,-0.24681471288204193,-0.5910401344299316
1772790771305791000,13.721791015625,-1.2446677684783936,0.07678816467523575,-0.14213326573371887
1772790771325825000,13.741824951171875,-1.3676800727844238,0.34190046787261963,0.5687649846076965
1772790771345857800,13.76185791015625,-1.485357642173767,0.44451916217803955,1.5058244466781616
1772790771365891800,13.781891845703125,-1.672885775566101,0.3716270327568054,2.1497299671173096
1772790771385924900,13.8019248046875,-1.9466367959976196,0.2066982239484787,2.1578478813171387
1772790771405958000,13.8219580078125,-2.2098917961120605,0.03717253357172012,1.5692462921142578
1772790771425991700,13.84199169921875,-2.2778987884521484,0.006114024668931961,0.6224237084388733
1772790771446025000,13.86202490234375,-2.2398345470428467,0.042240649461746216,-0.21021007001399994
1772790771466057700,13.8820576171875,-2.156099557876587,0.10580851137638092,-0.6683372855186462
1772790771486091800,13.902091796875,-1.9067574739456177,0.020666994154453278,-0.8674176931381226
1772790771506125000,13.922125,-1.5135514736175537,-0.2466202974319458,-0.903663694858551
1772790771526157800,13.94215771484375,-1.0816311836242676,-0.6977241039276123,-0.8235095143318176
1772790771546192000,13.96219189453125,-0.6617178320884705,-1.0873626470565796,-0.6933160424232483
1772790771566225000,13.982224853515625,-0.2669738531112671,-1.401258111000061,-0.5545168519020081
1772790771586258000,14.0022578125,0.04029180854558945,-1.600305438041687,-0.4357151687145233
1772790771606291700,14.022291748046875,0.26436370611190796,-1.6908007860183716,-0.34375375509262085
1772790771626325000,14.042324951171874,0.3787744641304016,-1.663205623626709,-0.19816291332244873
1772790771646357800,14.062357666015625,0.2849525511264801,-1.4998128414154053,0.03335920721292496
1772790771666391800,14.082391845703125,-0.07516394555568695,-1.1808778047561646,0.22610898315906525
1772790771686425000,14.102425048828126,-0.4901362359523773,-0.7098020315170288,0.2682941257953644
1772790771706457900,14.122457763671875,-0.7829814553260803,-0.15663041174411774,0.21636702120304108
1772790771726492000,14.142491943359374,-0.8925520181655884,0.42779332399368286,0.21118192374706268
1772790771746525000,14.16252490234375,-0.9184983968734741,0.8641641736030579,0.306883305311203
1772790771766559000,14.18255908203125,-0.9653018712997437,1.2328780889511108,0.4082476496696472
1772790771786591700,14.202591796875,-0.9972678422927856,1.4478281736373901,0.44913432002067566
1772790771806624800,14.222624755859375,-0.9640440940856934,1.4952139854431152,0.4573930501937866
1772790771826659000,14.2426591796875,-0.8432371020317078,1.343689203262329,0.48096051812171936
1772790771846691800,14.26269189453125,-0.7217386960983276,1.0763483047485352,0.49526622891426086
1772790771866724900,14.282724853515624,-0.6173405051231384,0.7071372866630554,0.4612220227718353
1772790771886759000,14.302759033203126,-0.4883762300014496,0.2925979495048523,0.34634920954704285
1772790771906792000,14.3227919921875,-0.21762016415596008,-0.0591876283288002,0.009112948551774025
1772790771926824700,14.34282470703125,0.2386433184146881,-0.24326935410499573,-0.4966064989566803
1772790771946859000,14.36285888671875,0.5932406783103943,-0.2989024519920349,-0.8357836008071899
1772790771966891800,14.382891845703124,0.9029251933097839,-0.29586610198020935,-0.9355260729789734
1772790771986924800,14.4029248046875,1.1306511163711548,-0.2536238431930542,-0.8862892985343933
1772790772006958800,14.422958740234375,1.3438093662261963,-0.23110687732696533,-0.8343731164932251
1772790772026991900,14.442991943359376,1.5403318405151367,-0.3049774467945099,-0.7618576884269714
1772790772047025000,14.46302490234375,1.7528104782104492,-0.44240620732307434,-0.6176875829696655
1772790772067058700,14.48305859375,1.9621562957763672,-0.5949621796607971,-0.41415899991989136
1772790772087092000,14.503092041015625,2.045276165008545,-0.690338134765625,-0.13381332159042358
1772790772107125800,14.523125732421875,1.9730305671691895,-0.7038809061050415,0.22169145941734314
1772790772127158800,14.54315869140625,1.79023015499115,-0.6064010262489319,0.552749514579773
1772790772147191800,14.56319189453125,1.584210991859436,-0.26423221826553345,0.8357182145118713
1772790772167225900,14.583225830078124,1.364164113998413,0.2288101762533188,1.0676153898239136
1772790772187258600,14.603258544921875,1.157974123954773,0.7516797780990601,1.337640404701233
1772790772207291600,14.623291748046874,1.017285704612732,1.2738224267959595,1.6492441892623901
1772790772227325700,14.64332568359375,1.00160813331604,1.8103591203689575,1.9458802938461304
1772790772247358500,14.6633583984375,1.0942103862762451,2.3108513355255127,2.2183549404144287
1772790772267391700,14.683391845703126,1.195675015449524,2.8221335411071777,2.491236925125122
1772790772287425500,14.703425537109375,1.2810587882995605,3.29417085647583,2.650601387023926
1772790772307458600,14.72345849609375,1.325506567955017,3.6922924518585205,2.6843619346618652
1772790772327491600,14.74349169921875,1.3078054189682007,4.087526798248291,2.633124828338623
1772790772347525600,14.763525634765625,1.2411280870437622,4.284436225891113,2.4991137981414795
1772790772367558700,14.78355859375,1.148321509361267,4.241793155670166,2.1982879638671875
1772790772387591700,14.803591796875,1.0788806676864624,4.024088382720947,1.736897587776184
1772790772407625700,14.823625732421876,1.0486077070236206,3.563584089279175,1.2226710319519043
1772790772427658500,14.843658447265625,1.1076457500457764,2.899091958999634,0.6544125080108643
1772790772447691800,14.86369189453125,1.2526535987854004,2.0986387729644775,0.05897984281182289
1772790772467725600,14.8837255859375,1.42815363407135,1.2032538652420044,-0.4517170190811157
1772790772487758600,14.903758544921875,1.497117519378662,0.2539721429347992,-0.8619458079338074
1772790772507792600,14.923792724609376,1.4034422636032104,-0.6343337297439575,-1.110278844833374
1772790772527825700,14.94382568359375,1.1573824882507324,-1.3757922649383545,-1.1470786333084106
1772790772547858700,14.963858642578124,0.8406019806861877,-1.934517502784729,-1.0865968465805054
1772790772567892500,14.983892578125,0.5185003280639648,-2.252290725708008,-0.9313938021659851
1772790772587925800,15.00392578125,0.2540464401245117,-2.2571115493774414,-0.6612715125083923
1772790772607958500,15.02395849609375,0.1693372130393982,-1.9680945873260498,-0.2903292179107666
1772790772627992600,15.04399267578125,0.258809357881546,-1.4655394554138184,0.0876433253288269
1772790772648025600,15.064025634765626,0.48315924406051636,-0.8869807720184326,0.3413419723510742
1772790772668058600,15.08405859375,0.7043311595916748,-0.34319308400154114,0.5999688506126404
1772790772688092700,15.1040927734375,0.9093520045280457,0.0028105275705456734,0.8938879370689392
1772790772708125700,15.124125732421875,1.0613635778427124,0.25628387928009033,1.1695538759231567
1772790772728158700,15.14415869140625,1.129591464996338,0.485747367143631,1.5153838396072388
1772790772748192500,15.164192626953126,1.0280566215515137,0.6921192407608032,1.7929655313491821
1772790772768225800,15.184225830078125,0.846270740032196,0.9507203698158264,1.9840569496154785
1772790772788258600,15.204258544921874,0.822873592376709,1.3722913265228271,2.3605849742889404
1772790772808292600,15.224292724609375,1.0262655019760132,1.7960216999053955,3.3579392433166504
1772790772828325600,15.24432568359375,1.2114235162734985,2.42158579826355,4.239725589752197
1772790772848358700,15.264358642578125,0.9396018981933594,2.837637424468994,4.293484210968018
1772790772868392700,15.284392822265625,0.4702664613723755,2.9928908348083496,3.69150447845459
1772790772888425500,15.304425537109376,-0.019549818709492683,2.9049835205078125,2.4394562244415283
1772790772908459800,15.324459716796875,-0.26385119557380676,2.4725029468536377,0.778387725353241
1772790772928492500,15.344492431640624,-0.6468168497085571,1.6285957098007202,-0.3246866464614868
1772790772948525600,15.364525634765625,-1.119462013244629,0.6488414406776428,-0.9936914443969727
1772790772968559600,15.3845595703125,-1.5778368711471558,-0.3368864059448242,-1.3201647996902466
1772790772988592600,15.404592529296876,-1.9433925151824951,-1.0880812406539917,-1.248284101486206
1772790773008625400,15.42462548828125,-2.153864860534668,-1.5913200378417969,-1.1531625986099243
1772790773028659500,15.444659423828124,-2.1595420837402344,-1.8089826107025146,-1.1176396608352661
1772790773048692700,15.464692626953125,-2.0203635692596436,-1.8631808757781982,-1.0338870286941528
1772790773068725500,15.4847255859375,-1.7996591329574585,-1.7506428956985474,-0.798685610294342
1772790773088759600,15.504759521484376,-1.5246180295944214,-1.4820140600204468,-0.4160797894001007
1772790773108792600,15.52479248046875,-1.1639569997787476,-1.1435823440551758,0.0808856189250946
1772790773128825600,15.54482568359375,-0.794385552406311,-0.6965728998184204,0.632031261920929
1772790773148859400,15.564859375,-0.4832693040370941,-0.16284342110157013,1.121198058128357
1772790773168892700,15.584892578125,-0.24202290177345276,0.39833059906959534,1.4880396127700806
1772790773188925400,15.604925537109375,-0.11394117027521133,0.9272287487983704,1.7110037803649902
1772790773208959500,15.62495947265625,-0.12363101541996002,1.3687074184417725,1.8035552501678467
1772790773228992800,15.64499267578125,-0.21665668487548828,1.6394444704055786,1.7764148712158203
1772790773249025500,15.665025634765625,-0.3276897370815277,1.6925055980682373,1.6870988607406616
1772790773269059600,15.6850595703125,-0.4488837420940399,1.5515986680984497,1.5612937211990356
1772790773289092600,15.705092529296875,-0.6052449941635132,1.2193866968154907,1.4351879358291626
1772790773309126700,15.725126708984375,-0.7829189896583557,0.830603301525116,1.2880754470825195
1772790773329159400,15.745159423828126,-0.9263753890991211,0.44309568405151367,0.9228211045265198
1772790773349192700,15.765192626953125,-0.8184041380882263,0.11230681091547012,0.2166745513677597
1772790773369226800,15.785226806640624,-0.6370871663093567,-0.09073174744844437,-0.5096431970596313
1772790773389259500,15.805259521484375,-0.685950517654419,-0.183421328663826,-0.977648138999939
1772790773409292800,15.825292724609374,-0.8021703958511353,-0.10419143736362457,-1.1827280521392822
1772790773429326600,15.84532666015625,-0.757250964641571,0.12123360484838486,-1.138952374458313
1772790773449359600,15.865359619140625,-0.45282596349716187,0.3258609473705292,-0.8557707667350769
1772790773469392600,15.885392578125,0.03924678638577461,0.5264613628387451,-0.4228009581565857
1772790773489426700,15.9054267578125,0.5780180096626282,0.7231154441833496,0.1283564418554306
1772790773509459700,15.925459716796874,0.9862620234489441,1.0070087909698486,0.5429021120071411
1772790773529492700,15.94549267578125,1.2563104629516602,1.4397032260894775,0.6964444518089294
1772790773549526800,15.96552685546875,1.4279544353485107,1.858860969543457,0.6699391603469849
1772790773569559600,15.9855595703125,1.5239384174346924,2.195734977722168,0.5702728629112244
1772790773589589500,16.005589599609376,1.5676435232162476,2.378838539123535,0.4253177344799042
1772790773609622800,16.025622802734375,1.5989317893981934,2.5025153160095215,0.27073606848716736
1772790773629656600,16.045656494140626,1.6714158058166504,2.5026497840881348,0.23464927077293396
1772790773649689600,16.065689697265626,1.7298325300216675,2.3701584339141846,0.2734350264072418
1772790773669723400,16.085723388671877,1.7489739656448364,2.123668670654297,0.3796672224998474
1772790773689756700,16.105756591796876,1.71141517162323,1.8722074031829834,0.5437620878219604
1772790773709789400,16.12578955078125,1.592423915863037,1.7887067794799805,0.7253211140632629
1772790773729823500,16.145823486328126,1.4381970167160034,1.8470020294189453,0.9417885541915894
1772790773749856800,16.165856689453125,1.309759497642517,1.981994390487671,1.1561912298202515
1772790773769889500,16.1858896484375,1.219444751739502,2.171718120574951,1.3352829217910767
1772790773789923600,16.205923583984376,1.1077139377593994,2.388258695602417,1.4642748832702637
1772790773809956600,16.22595654296875,1.0267547369003296,2.6407549381256104,1.5302526950836182
1772790773829989600,16.24598974609375,0.9461312890052795,2.887104034423828,1.5325372219085693
1772790773850023400,16.2660234375,0.894245445728302,3.016817569732666,1.498631238937378
1772790773870056700,16.286056640625,0.88764488697052,3.098764419555664,1.4049180746078491
1772790773890089500,16.30608935546875,0.9126276969909668,3.065814971923828,1.239920735359192
1772790773910123500,16.32612353515625,0.902661144733429,2.93511962890625,1.089333415031433
1772790773930156800,16.34615673828125,0.8645378947257996,2.678530216217041,1.013637661933899
1772790773950189600,16.366189453125,0.8347419500350952,2.3286237716674805,0.953007161617279
1772790773970223600,16.3862236328125,0.8275238275527954,1.9505503177642822,0.8957515358924866
1772790773990256600,16.406256591796875,0.8415952324867249,1.5724289417266846,0.8439934253692627
1772790774010292500,16.42629248046875,0.873668909072876,1.2514914274215698,0.7839887738227844
1772790774030325800,16.44632568359375,0.9383330345153809,0.9802170395851135,0.7461317181587219
1772790774050358500,16.466358642578125,1.0287578105926514,0.8297339677810669,0.69545578956604
1772790774070392600,16.486392578125,1.131762981414795,0.7245792150497437,0.7009416818618774
1772790774090425900,16.50642578125,1.2564375400543213,0.666090726852417,0.6884376406669617
1772790774110458600,16.526458740234375,1.4202960729599,0.5819429755210876,0.6449882984161377
1772790774130492700,16.54649267578125,1.5883225202560425,0.46072888374328613,0.5563836693763733
1772790774150525700,16.566525634765625,1.801730751991272,0.2642616033554077,0.4271260201931
1772790774170558700,16.586558837890625,1.9995025396347046,-0.014099407009780407,0.31140798330307007
1772790774190592500,16.606592529296876,2.093658208847046,-0.3532063364982605,0.29334142804145813
1772790774210625500,16.62662548828125,2.117509603500366,-0.6753946542739868,0.34065666794776917
1772790774230658600,16.646658447265626,2.0790815353393555,-0.9609780311584473,0.44360411167144775
1772790774250692600,16.666692626953125,1.871958613395691,-1.1575363874435425,0.5660611987113953
1772790774270725400,16.686725341796876,1.6547797918319702,-1.1719138622283936,0.4655705988407135
1772790774290759700,16.706759765625,1.5140708684921265,-1.1675374507904053,0.23040179908275604
1772790774310792400,16.72679248046875,1.365027666091919,-1.0804167985916138,0.003874281421303749
1772790774330825500,16.746825439453126,1.1536749601364136,-0.8381103277206421,-0.21655839681625366
1772790774350859500,16.766859619140625,0.9338569045066833,-0.3952829837799072,-0.29178106784820557
1772790774370892500,16.786892578125,0.8906108736991882,0.08960861712694168,0.18085171282291412
1772790774390925600,16.806925537109375,0.9316730499267578,0.5798232555389404,1.429810881614685
1772790774410959400,16.82695947265625,0.9152775406837463,1.070054531097412,2.6757023334503174
1772790774430992600,16.84699267578125,0.6436248421669006,1.4555487632751465,3.040015697479248
1772790774451025400,16.867025390625,0.08750885725021362,1.4328607320785522,2.3787102699279785
1772790774471059500,16.8870595703125,-0.4036804437637329,1.030889630317688,1.0044485330581665
1772790774491092500,16.907092529296875,-0.7485315799713135,0.44396358728408813,-0.37953317165374756
1772790774511125500,16.92712548828125,-0.9776949286460876,0.022946763783693314,-1.4853713512420654
1772790774531159600,16.94715966796875,-1.0732845067977905,-0.14408104121685028,-2.2371251583099365
1772790774551192600,16.967192626953125,-1.0976938009262085,-0.11926409602165222,-2.5631649494171143
1772790774571225600,16.9872255859375,-1.1023436784744263,0.0035417499020695686,-2.486896514892578
1772790774591259400,17.00725927734375,-1.071639895439148,0.1526631861925125,-2.127902030944824
1772790774611292700,17.027292724609374,-0.9623442888259888,0.19504906237125397,-1.7320541143417358
1772790774631326500,17.047326416015625,-0.80234694480896,0.10463324189186096,-1.4932700395584106
1772790774651359500,17.067359375,-0.7001563906669617,-0.10256662964820862,-1.3025603294372559
1772790774671392500,17.087392578125,-0.5887934565544128,-0.37871500849723816,-1.1096395254135132
1772790774691426600,17.107426513671875,-0.5049754977226257,-0.6048415303230286,-0.8963242769241333
1772790774711459600,17.12745947265625,-0.44630447030067444,-0.750730574131012,-0.6446733474731445
1772790774731492600,17.14749267578125,-0.41256341338157654,-0.7980972528457642,-0.3898368775844574
1772790774751526700,17.167526611328125,-0.4260295629501343,-0.7526409029960632,-0.12325536459684372
1772790774771559400,17.187559326171876,-0.5018535852432251,-0.6193096041679382,0.16332890093326569
1772790774791592700,17.2075927734375,-0.6146577596664429,-0.37549370527267456,0.4903671145439148
1772790774811626500,17.22762646484375,-0.736840009689331,-0.07280620187520981,0.8380257487297058
1772790774831659500,17.247659423828125,-0.828224778175354,0.2648735046386719,1.1685206890106201
1772790774851692500,17.267692626953124,-0.8908500671386719,0.49576377868652344,1.5400793552398682
1772790774871726600,17.2877265625,-0.9221862554550171,0.5332944989204407,1.912257432937622
1772790774891759600,17.307759521484375,-0.9562724828720093,0.4736608862876892,2.200650215148926
1772790774911792600,17.327792724609374,-1.123642086982727,0.321668416261673,2.3541951179504395
1772790774931826700,17.34782666015625,-1.5290470123291016,0.18234111368656158,2.4051871299743652
1772790774951859500,17.367859375,-1.9687023162841797,-0.032528165727853775,2.147836685180664
1772790774971892500,17.387892578125,-2.123255491256714,-0.19065934419631958,1.6698726415634155
1772790774991926500,17.407926513671875,-1.9211111068725586,-0.346908301115036,1.3713219165802002
1772790775011959600,17.42795947265625,-1.542608618736267,-0.4898153245449066,1.2764981985092163
1772790775031993600,17.44799365234375,-1.211970567703247,-0.5896052718162537,1.2801315784454346
1772790775052026600,17.468026611328124,-0.9879984259605408,-0.7688229084014893,1.1258991956710815
1772790775072059600,17.4880595703125,-0.779030442237854,-0.8468302488327026,0.6569257974624634
1772790775092093400,17.508093505859375,-0.5323619842529297,-0.6538512706756592,0.10383767634630203
1772790775112126500,17.52812646484375,-0.3525392413139343,-0.339550256729126,-0.2784259617328644
1772790775132159500,17.548159423828125,-0.24653729796409607,0.0990322157740593,-0.5531333088874817
1772790775152193500,17.568193603515624,-0.19070179760456085,0.4682712256908417,-0.76019686460495
1772790775172226300,17.588226318359375,-0.044980280101299286,0.7215601205825806,-0.877120316028595
1772790775192259000,17.608259033203126,0.22704151272773743,0.8854861259460449,-0.901576817035675
1772790775212293000,17.628293212890625,0.5651695132255554,0.950606644153595,-0.8537304401397705
1772790775232326100,17.648326171875,0.9058412313461304,0.9327863454818726,-0.7894264459609985
1772790775252359200,17.668359130859375,1.1582764387130737,0.8203097581863403,-0.7146779894828796
1772790775272393200,17.688393310546875,1.2775322198867798,0.7021589279174805,-0.607435405254364
1772790775292426000,17.708426025390626,1.3019590377807617,0.6173638105392456,-0.46452903747558594
1772790775312459300,17.728459228515625,1.312849998474121,0.6460990905761719,-0.3202880024909973
1772790775332493000,17.7484931640625,1.3604713678359985,0.8053705096244812,-0.19388222694396973
1772790775352526000,17.768526123046875,1.4626590013504028,1.1082446575164795,-0.07636824250221252
1772790775372559000,17.78855908203125,1.6224932670593262,1.4722042083740234,0.05189790576696396
1772790775392593200,17.80859326171875,1.787540078163147,1.849594235420227,0.17733365297317505
1772790775412626000,17.8286259765625,1.9382543563842773,2.129183530807495,0.27358272671699524
1772790775432660200,17.84866015625,2.0161936283111572,2.2629261016845703,0.33650487661361694
1772790775452693200,17.868693359375,1.9908846616744995,2.256300210952759,0.3743332624435425
1772790775472726000,17.88872607421875,1.8971256017684937,2.148493528366089,0.3462565839290619
1772790775492760000,17.908760009765626,1.7804418802261353,1.9706323146820068,0.23026226460933685
1772790775512793000,17.92879296875,1.6933146715164185,1.7469367980957031,0.09680197387933731
1772790775532826000,17.948826171875,1.6375600099563599,1.502759337425232,-0.04478151723742485
1772790775552860000,17.96885986328125,1.627543568611145,1.2591915130615234,-0.14908626675605774
1772790775572893200,17.98889306640625,1.646209955215454,0.9698225855827332,-0.2045155018568039
1772790775592926000,18.008926025390625,1.670949101448059,0.6727273464202881,-0.21761241555213928
1772790775612960000,18.0289599609375,1.6554584503173828,0.3210240304470062,-0.1888055056333542
1772790775632993300,18.0489931640625,1.579865574836731,0.01632327027618885,-0.14421667158603668
1772790775653026000,18.069026123046875,1.45253586769104,-0.3173089623451233,-0.10579758137464523
1772790775673060000,18.08906005859375,1.277982473373413,-0.6050663590431213,-0.07715331017971039
1772790775693093000,18.109093017578125,1.066564917564392,-0.8543278574943542,-0.049635931849479675
1772790775713126100,18.129126220703125,0.8457120060920715,-1.0091103315353394,-0.05369317904114723
1772790775733160000,18.149159912109376,0.6599252223968506,-1.138095498085022,-0.04718715324997902
1772790775753193200,18.169193115234375,0.4773849844932556,-1.2070170640945435,-0.042474307119846344
1772790775773226000,18.18922607421875,0.31963035464286804,-1.224328637123108,0.05246547982096672
1772790775793260000,18.209260009765625,0.1811145693063736,-1.186065673828125,0.21170908212661743
1772790775813293300,18.229293212890624,0.010850030928850174,-1.0799634456634521,0.42129138112068176
1772790775833327000,18.2493271484375,-0.100862056016922,-0.7995341420173645,0.4432487189769745
1772790775853360000,18.269360107421875,-0.05717575550079346,-0.5309840440750122,0.029394742101430893
1772790775873393200,18.28939306640625,-0.17286334931850433,-0.35087352991104126,-0.2594219148159027
1772790775893427200,18.30942724609375,-0.4858649969100952,-0.27418747544288635,-0.06755468249320984
1772790775913460000,18.3294599609375,-0.8423685431480408,-0.19366316497325897,0.36396369338035583
1772790775933493200,18.3494931640625,-1.114494800567627,-0.172028586268425,0.6923989057540894
1772790775953527300,18.36952734375,-1.404891848564148,-0.277208536863327,0.9874133467674255
1772790775973560000,18.38956005859375,-1.6651016473770142,-0.5392037034034729,1.2380330562591553
1772790775993593000,18.409593017578125,-1.8991721868515015,-0.9021435976028442,1.443523645401001
1772790776013627100,18.429627197265624,-2.1138994693756104,-1.1321890354156494,1.4742985963821411
1772790776033660200,18.44966015625,-2.2911291122436523,-1.1555503606796265,1.187342643737793
1772790776053693200,18.469693115234374,-2.4485368728637695,-0.9802314639091492,0.6946254372596741
1772790776073727200,18.489727294921874,-2.5471577644348145,-0.5072246789932251,0.2173825055360794
1772790776093760000,18.509760009765625,-2.490549087524414,0.25351834297180176,-0.12734849750995636
1772790776113794000,18.5297939453125,-2.266486167907715,1.1065996885299683,-0.3558460474014282
1772790776133827300,18.549827392578123,-1.9603161811828613,1.847000002861023,-0.42108508944511414
1772790776153860000,18.569860107421874,-1.5746352672576904,2.1970996856689453,-0.4020932912826538
1772790776173894100,18.58989404296875,-1.115757942199707,2.0353119373321533,-0.41882285475730896
1772790776193927200,18.60992724609375,-0.6555801630020142,1.402160882949829,-0.4604910910129547
1772790776213960400,18.62996044921875,-0.28468286991119385,0.5642711520195007,-0.476336270570755
1772790776233994500,18.649994384765623,-0.023408006876707077,-0.3027859330177307,-0.5119889378547668
1772790776254027300,18.67002734375,0.09718498587608337,-1.051384687423706,-0.4919031858444214
1772790776274061600,18.6900615234375,0.09802960604429245,-1.6867083311080933,-0.4563191831111908
1772790776294094300,18.71009423828125,0.04722940921783447,-2.112441062927246,-0.4017983078956604
1772790776314127400,18.73012744140625,-0.10383720695972443,-2.3006300926208496,-0.28079792857170105
1772790776334161400,18.750161376953123,-0.2668241262435913,-2.2323241233825684,-0.11188969761133194
1772790776354194400,18.7701943359375,-0.51139897108078,-1.877231240272522,0.02326572686433792
1772790776374227200,18.790227294921873,-0.7646324038505554,-1.341171145439148,0.06493261456489563
1772790776394261200,18.81026123046875,-0.9492661356925964,-0.7115745544433594,0.11477606743574142
1772790776414294500,18.83029443359375,-0.9695139527320862,-0.05935945361852646,0.20962680876255035
1772790776434327300,18.850327392578127,-0.8521828651428223,0.5441907644271851,0.30151787400245667
1772790776454361300,18.870361328125,-0.6736530661582947,1.0681511163711548,0.36637088656425476
1772790776474394400,18.890394287109373,-0.5370923280715942,1.224647045135498,0.38170063495635986
1772790776494427400,18.910427490234376,-0.42707690596580505,1.0216478109359741,0.28266942501068115
1772790776514461200,18.930461181640624,-0.28765636682510376,0.5993782877922058,0.03238045051693916
1772790776534494500,18.950494384765626,-0.03117072395980358,0.11440952867269516,-0.29546400904655457
1772790776554528500,18.970528564453126,0.3416638970375061,-0.18709377944469452,-0.6687052249908447
1772790776574561300,18.990561279296877,0.7182133793830872,-0.2315199077129364,-1.0415925979614258
1772790776594594600,19.010594482421876,0.9693359136581421,-0.14764650166034698,-1.2828943729400635
1772790776614628400,19.03062841796875,1.1756558418273926,0.09938158839941025,-1.3775485754013062
1772790776634661400,19.050661376953126,1.3606417179107666,0.3749171793460846,-1.2514309883117676
1772790776654694400,19.0706943359375,1.7348299026489258,0.47544774413108826,-1.1268740892410278
1772790776674728400,19.090728515625,2.3238093852996826,0.19713225960731506,-1.1153926849365234
1772790776694761200,19.11076123046875,2.8870761394500732,-0.3215119242668152,-1.0668927431106567
1772790776714794500,19.13079443359375,3.3864991664886475,-0.9697783589363098,-0.9246529340744019
1772790776734828500,19.15082861328125,3.761061906814575,-1.6944408416748047,-0.588299572467804
1772790776754861300,19.170861328125,3.883636951446533,-2.641324996948242,0.026202678680419922
1772790776774894600,19.19089453125,3.850719451904297,-3.6663734912872314,0.9562420845031738
1772790776794928400,19.210928466796876,3.736893892288208,-4.595686912536621,2.0390751361846924
1772790776814961400,19.23096142578125,3.65610933303833,-5.467949390411377,2.8863673210144043
1772790776834994400,19.250994384765626,3.508530855178833,-5.964263439178467,3.7215607166290283
1772790776855028500,19.271028564453125,3.2129874229431152,-6.348761558532715,4.328556060791016
1772790776875061200,19.291061279296876,2.9228482246398926,-6.4197845458984375,4.47259521484375
1772790776895094300,19.31109423828125,2.5151445865631104,-6.251023769378662,4.542937755584717
1772790776915128600,19.331128662109375,2.0336546897888184,-5.830821514129639,4.6052422523498535
1772790776935161300,19.351161376953126,1.7193647623062134,-5.344279766082764,4.59868860244751
1772790776955194400,19.3711943359375,1.381276249885559,-4.861254692077637,4.535694599151611
1772790776975228400,19.391228515625,1.0634510517120361,-4.585812091827393,4.264041900634766
1772790776995261400,19.411261474609375,0.797126054763794,-4.418309688568115,3.843973398208618
1772790777015294200,19.431294189453126,0.5228155851364136,-4.281926155090332,3.394378900527954
1772790777035328500,19.45132861328125,0.24399925768375397,-4.007808685302734,3.003122329711914
1772790777055361300,19.471361328125,0.013698149472475052,-3.491753578186035,2.72356915473938
1772790777075394300,19.491394287109376,-0.09700506180524826,-2.8658080101013184,2.5977561473846436
1772790777095428400,19.511428466796875,-0.16985748708248138,-2.287696123123169,2.49369478225708
1772790777115461400,19.53146142578125,-0.10510939359664917,-1.84382164478302,2.2253754138946533
1772790777135494400,19.551494384765626,0.019339056685566902,-1.4156233072280884,1.7684592008590698
1772790777155528200,19.571528076171877,0.16052253544330597,-1.0322480201721191,1.2667354345321655
1772790777175561500,19.5915615234375,0.30464616417884827,-0.7000976800918579,0.9224392771720886
1772790777195594000,19.611593994140627,0.2331603318452835,-0.2479950189590454,0.9150133728981018
1772790777215628000,19.6316279296875,0.24494774639606476,0.20969364047050476,1.070208191871643
1772790777235661000,19.6516611328125,0.2877817749977112,0.2553819715976715,1.2803559303283691
1772790777255693800,19.67169384765625,0.16216224431991577,0.43391382694244385,1.120773434638977
1772790777275728000,19.691727783203124,0.09011149406433105,0.7420059442520142,0.5287782549858093
1772790777295761200,19.71176123046875,0.08998013287782669,0.6720520257949829,-0.003238148521631956
1772790777315794000,19.7317939453125,0.05485483631491661,0.7319267988204956,-0.26254627108573914
1772790777335828000,19.751827880859373,0.0632297545671463,1.0095311403274536,-0.2564239501953125
1772790777355861000,19.771861083984376,0.09313404560089111,1.3576722145080566,-0.39362022280693054
1772790777375894000,19.79189404296875,0.14713823795318604,1.2690235376358032,-0.6229764223098755
1772790777395927800,19.811927734375,0.07385323196649551,0.9968332648277283,-0.368602454662323
1772790777415961000,19.831961181640626,0.028116902336478233,0.7364732027053833,0.29888013005256653
1772790777435993900,19.851993896484377,0.1500217616558075,0.7787872552871704,0.7555918097496033
1772790777456028000,19.87202783203125,0.3402758240699768,0.6965497732162476,0.6270599961280823
1772790777476061200,19.892061279296875,0.44683539867401123,0.4821076989173889,0.36592984199523926
1772790777496094000,19.912093994140626,0.45555827021598816,0.34492096304893494,0.2130260467529297
1772790777516128000,19.9321279296875,0.5299403667449951,0.3649512529373169,0.20585393905639648
1772790777536161000,19.9521611328125,0.5474245548248291,0.5140295028686523,0.3091829717159271
1772790777556194000,19.972194091796876,0.5057947039604187,0.7153512239456177,0.5263209342956543
1772790777576227800,19.992227783203123,0.44732049107551575,0.8028249144554138,0.6254506707191467
1772790777596261000,20.01226123046875,0.40818455815315247,0.6690174341201782,0.4863840639591217
1772790777616294000,20.0322939453125,0.3157302439212799,0.41571709513664246,0.290240079164505
1772790777636327000,20.052326904296876,0.22796030342578888,0.2562999427318573,0.29391753673553467
1772790777656361200,20.072361328125,0.27457666397094727,0.3129805326461792,0.46243783831596375
1772790777676394000,20.09239404296875,0.4427521228790283,0.2529395818710327,0.4785270094871521
1772790777696427000,20.112427001953126,0.5283744931221008,-0.024622410535812378,0.3041701316833496
1772790777716461000,20.1324609375,0.48179659247398376,-0.3800812363624573,0.16051751375198364
1772790777736494000,20.152494140625,0.3769424855709076,-0.5543543696403503,0.15319864451885223
1772790777756526800,20.17252685546875,0.2757504880428314,-0.52630215883255,0.30650728940963745
1772790777776561000,20.192560791015627,0.21465955674648285,-0.3535788357257843,0.5083367824554443
1772790777796594000,20.212593994140626,0.16705867648124695,-0.1701662838459015,0.547150731086731
1772790777816627000,20.232626953125,0.0956394225358963,-0.009454432874917984,0.508445143699646
1772790777836661000,20.252660888671876,0.11189788579940796,0.03724255785346031,0.4459589719772339
1772790777856694000,20.272694091796875,0.192236065864563,0.046810247004032135,0.49507737159729004
1772790777876727000,20.29272705078125,0.27790021896362305,0.05828024446964264,0.5994148850440979
1772790777896760800,20.3127607421875,0.3649686872959137,0.0058277687057852745,0.6464536190032959
1772790777916794000,20.332794189453125,0.4021529257297516,-0.23750129342079163,0.7246590256690979
1772790777936827000,20.352826904296876,0.3600967228412628,-0.43702852725982666,0.8080719113349915
1772790777956860200,20.372860107421875,0.34459131956100464,-0.43138769268989563,0.6074150800704956
1772790777976894000,20.39289404296875,0.37906506657600403,-0.4271957278251648,0.4265891909599304
1772790777996927000,20.412927001953125,0.4005860686302185,-0.29573431611061096,0.348935604095459
1772790778016960000,20.4329599609375,0.33137479424476624,-0.2022373378276825,0.31291353702545166
1772790778036994000,20.452994140625,0.18892410397529602,-0.1534247249364853,0.17054712772369385
1772790778057027000,20.473027099609375,0.06140341982245445,-0.11024924367666245,0.05930434167385101
1772790778077060000,20.49306005859375,0.026191435754299164,-0.014427212998270988,0.11558901518583298
1772790778097094100,20.51309423828125,0.023434067144989967,-0.21035028994083405,0.21698859333992004
1772790778117127000,20.533126953125,-0.11883439868688583,-0.7346883416175842,0.1141788512468338
1772790778137160000,20.553159912109376,-0.22365780174732208,-0.9266490936279297,0.008369010873138905
1772790778157194000,20.573194091796875,-0.15673837065696716,-0.6659207344055176,0.16267076134681702
1772790778177227000,20.59322705078125,-0.12509767711162567,-0.20338505506515503,0.459035187959671
1772790778197260300,20.61326025390625,-0.14853642880916595,0.11761474609375,0.561424732208252
1772790778217293300,20.633293212890624,-0.2205650806427002,0.13303764164447784,0.47588402032852173
1772790778237327400,20.653327392578124,-0.22213642299175262,-0.003051016479730606,0.30308082699775696
1772790778257360400,20.6733603515625,-0.13270147144794464,-0.05776631459593773,0.2703680992126465
1772790778277393400,20.693393310546874,-0.027898164466023445,-0.14329838752746582,0.3264048397541046
1772790778297427500,20.713427490234373,0.027097975835204124,-0.28938475251197815,0.2919773459434509
1772790778317460200,20.733460205078124,0.052604999393224716,-0.2138856202363968,0.260317862033844
1772790778337493500,20.753493408203123,0.09282705932855606,0.06105279549956322,0.3208944797515869
1772790778357527300,20.77352734375,0.12344063073396683,0.21772663295269012,0.29799672961235046
1772790778377560300,20.793560302734374,0.1384156495332718,-0.04693600535392761,0.15865296125411987
1772790778397593300,20.81359326171875,0.14398612082004547,-0.3007905185222626,0.03739008679986
1772790778417627400,20.83362744140625,0.1485457718372345,-0.2571200132369995,0.09930258989334106
1772790778437660400,20.853660400390623,0.08075574785470963,-0.011798063293099403,0.27747976779937744
1772790778457693400,20.873693359375,0.023281801491975784,0.3523893654346466,0.512372612953186
1772790778477726500,20.8937265625,-0.045809585601091385,0.5545945167541504,0.6726874113082886
1772790778497760300,20.91376025390625,-0.12852543592453003,0.5541805028915405,0.6269009709358215
1772790778517793500,20.93379345703125,-0.12470600754022598,0.4675235450267792,0.5494396686553955
1772790778537826300,20.953826416015627,-0.04237384349107742,0.4024984538555145,0.5053247809410095
1772790778557860400,20.9738603515625,0.0530749149620533,0.3544614315032959,0.45319899916648865
1772790778577893400,20.993893310546873,0.08802610635757446,0.3034551739692688,0.4768039882183075
1772790778597926400,21.013926513671876,0.05575605481863022,0.23115380108356476,0.6376304626464844
1772790778617960400,21.03396044921875,0.03531482815742493,0.27423760294914246,0.7832551002502441
1772790778637993200,21.0539931640625,-0.005983015056699514,0.48004597425460815,0.5565105676651001
1772790778658026500,21.074026611328126,-0.1245637834072113,0.44617244601249695,0.3860601782798767
1772790778678060300,21.094060302734373,-0.17086423933506012,0.4242340326309204,0.4221518635749817
1772790778698093300,21.11409326171875,-0.15649403631687164,0.37273433804512024,0.4950523376464844
1772790778718126300,21.134126220703124,-0.1543399840593338,0.2580910921096802,0.40311968326568604
1772790778738160400,21.154160400390627,-0.1838969588279724,0.17792914807796478,0.25355228781700134
1772790778758193200,21.174193115234374,-0.18822571635246277,0.23044966161251068,0.13808725774288177
1772790778778226400,21.194226318359377,-0.15468460321426392,0.24676799774169922,0.157274529337883
1772790778798259200,21.21425927734375,-0.100507453083992,0.19834932684898376,0.23779134452342987
1772790778818293200,21.234293212890623,-0.0024628464598208666,0.11586299538612366,0.273348331451416
1772790778838326500,21.254326416015626,0.06366603821516037,0.047483108937740326,0.26700037717819214
1772790778858359300,21.274359375,0.04368733987212181,0.0862279161810875,0.24850308895111084
1772790778878393300,21.294393310546877,-0.0010010350961238146,0.2982155978679657,0.24544943869113922
1772790778898426400,21.31442626953125,-0.03571673855185509,0.3891497552394867,0.2699788808822632
1772790778918459400,21.33445947265625,-0.002882092259824276,0.2562052607536316,0.14713133871555328
1772790778938493200,21.3544931640625,0.014195561408996582,0.13195611536502838,-0.009995672851800919
1772790778958526500,21.3745263671875,0.017882373183965683,0.13557130098342896,0.010230711661279202
1772790778978559200,21.394559326171876,-0.00933220237493515,0.15907980501651764,0.02139129675924778
1772790778998593300,21.41459326171875,-0.08341521769762039,0.17235295474529266,-0.031103525310754776
1772790779018626600,21.43462646484375,-0.11087007820606232,0.2958742678165436,-0.025859476998448372
1772790779038659300,21.454659423828126,-0.012722471728920937,0.31950318813323975,-0.03018524870276451
1772790779058692400,21.4746923828125,0.09494467079639435,0.05594846233725548,-0.17158478498458862
1772790779078726400,21.494726318359376,0.14554019272327423,-0.1761738806962967,-0.2342609018087387
1772790779098759400,21.514759521484375,0.18320468068122864,-0.13818082213401794,-0.14033930003643036
1772790779118792200,21.534792236328126,0.18974322080612183,0.030438028275966644,-0.014566665515303612
1772790779138826500,21.554826416015626,0.14780521392822266,0.03706101328134537,0.022172516211867332
1772790779158859300,21.574859375,0.1445685476064682,-0.022631071507930756,-0.009892208501696587
1772790779178892300,21.594892333984376,0.1865464299917221,-0.04388115927577019,-0.0052575282752513885
1772790779198926300,21.61492626953125,0.15064774453639984,0.060588713735342026,0.023635126650333405
1772790779218959400,21.63495947265625,0.10701151937246323,0.22496627271175385,0.12556441128253937
1772790779238992400,21.654992431640625,0.12032180279493332,0.18510621786117554,0.10788354277610779
1772790779259026400,21.6750263671875,0.15132957696914673,-0.013931515626609325,-0.06831559538841248
1772790779279059500,21.6950595703125,0.19458504021167755,-0.13017021119594574,-0.18493309617042542
1772790779299092200,21.71509228515625,0.21133331954479218,-0.034264832735061646,-0.10695751011371613
1772790779319125500,21.73512548828125,0.17876021564006805,0.027117077261209488,0.030766461044549942
1772790779339159600,21.75515966796875,0.133802592754364,-0.003467462956905365,0.15366068482398987
1772790779359192300,21.7751923828125,0.1314350962638855,-0.05515581741929054,0.3138403296470642
1772790779379225600,21.7952255859375,0.15932399034500122,0.023959442973136902,0.2987755239009857
1772790779399259400,21.81525927734375,0.16370221972465515,0.11517757177352905,0.0695086196064949
1772790779419292400,21.83529248046875,0.20136937499046326,0.09763184189796448,-0.10022267699241638
1772790779439325400,21.855325439453125,0.23376066982746124,0.050934113562107086,-0.14369730651378632
1772790779459359500,21.875359375,0.2186538279056549,-0.04789256304502487,-0.12126625329256058
1772790779479392300,21.895392333984375,0.195693239569664,-0.1207164004445076,-0.11591577529907227
1772790779499425500,21.915425537109375,0.11434327065944672,-0.04914197325706482,-0.05640553683042526
1772790779519459600,21.93545947265625,0.05269315093755722,0.05049537867307663,-0.010236764326691628
1772790779539492400,21.955492431640625,0.023178335279226303,0.031152144074440002,-0.038378480821847916
1772790779559525400,21.975525390625,0.07168235629796982,-0.1976250261068344,-0.06587497144937515
1772790779579559400,21.995559326171875,0.071182481944561,-0.45234623551368713,0.009958195500075817
1772790779599592400,22.015592529296875,0.01278388500213623,-0.4973992705345154,0.11820518970489502
1772790779619625200,22.035625244140626,-0.02852800115942955,-0.31365320086479187,0.1945090889930725
1772790779639658500,22.055658447265625,-0.09122906625270844,-0.16173285245895386,0.16867822408676147
1772790779659692500,22.075692626953124,-0.15620175004005432,-0.2374197542667389,-0.03505750000476837
1772790779679725300,22.095725341796875,-0.17784059047698975,-0.37311604619026184,-0.21379156410694122
1772790779699758300,22.11575830078125,-0.16626057028770447,-0.44355660676956177,-0.23365557193756104
1772790779719792400,22.13579248046875,-0.17285968363285065,-0.45298856496810913,-0.24545913934707642
1772790779739825400,22.155825439453125,-0.2083088904619217,-0.4016794264316559,-0.25517305731773376
1772790779759858400,22.1758583984375,-0.2719414532184601,-0.3178469240665436,-0.23172035813331604
1772790779779892500,22.195892578125,-0.3556106388568878,-0.14960752427577972,-0.18240755796432495
1772790779799925200,22.21592529296875,-0.44282466173171997,0.09204977005720139,-0.10831213742494583
1772790779819958500,22.23595849609375,-0.5491591691970825,0.4371882677078247,-0.04473676159977913
1772790779839992600,22.25599267578125,-0.712687075138092,0.9272571206092834,-0.017957571893930435
1772790779860025300,22.276025390625,-0.9311460852622986,1.4037163257598877,-0.12087908387184143
1772790779880058600,22.29605859375,-1.045969009399414,1.6683921813964844,-0.4196976125240326
1772790779900092400,22.316092529296874,-1.074729084968567,1.6236275434494019,-0.846057116985321
1772790779920125400,22.33612548828125,-1.028968334197998,1.7189980745315552,-1.1457858085632324
1772790779940158500,22.356158447265624,-1.0135304927825928,1.905206322669983,-1.3448946475982666
1772790779960191500,22.37619140625,-1.2146632671356201,2.0336966514587402,-1.6357412338256836
1772790779980225300,22.396225341796875,-1.7312065362930298,2.2201454639434814,-2.0077130794525146
1772790780000258600,22.416258544921874,-2.2965915203094482,2.6772029399871826,-2.3213274478912354
1772790780020291300,22.436291259765625,-2.7754323482513428,3.734896421432495,-2.467963695526123
1772790780040325400,22.456325439453124,-3.40850830078125,4.952908039093018,-2.455373525619507
1772790780060358400,22.4763583984375,-4.219770431518555,5.169640064239502,-2.5851058959960938
1772790780080391400,22.496391357421874,-5.375477313995361,4.6313796043396,-3.3180131912231445
1772790780100425500,22.516425537109374,-6.463399887084961,3.810669183731079,-4.342148780822754
1772790780120458200,22.536458251953125,-6.975523948669434,2.723681688308716,-5.046627044677734
1772790780140491500,22.556491455078124,-7.355607986450195,2.3480594158172607,-5.538005352020264
1772790780160524300,22.576524169921875,-8.141106605529785,2.7083077430725098,-5.508635520935059
1772790780180558300,22.596558349609374,-9.348061561584473,3.431316614151001,-4.905453205108643
1772790780200590800,22.6165908203125,-10.04687213897705,4.3345947265625,-5.1797943115234375
1772790780220624000,22.636623779296876,-10.4637451171875,5.235406398773193,-5.7751874923706055
1772790780240658000,22.656657958984376,-11.120678901672363,5.933493614196777,-5.160412311553955
1772790780260691000,22.67669091796875,-11.292616844177246,6.027550220489502,-3.409903049468994
1772790780280723700,22.6967236328125,-10.766172409057617,6.225993633270264,-1.8408664464950562
1772790780300757800,22.7167578125,-8.416767120361328,5.222543239593506,-0.5404587984085083
1772790780320791000,22.736791015625,-4.199090003967285,3.349776268005371,0.9147464036941528
1772790780340823800,22.75682373046875,0.04306242614984512,1.1844459772109985,2.5469789505004883
1772790780360857000,22.776857177734374,3.1400961875915527,-0.20551122725009918,3.3254692554473877
1772790780380891000,22.796890869140626,5.255106449127197,-0.9294666647911072,3.179715156555176
1772790780400924000,22.816923828125,5.8843464851379395,-1.5642789602279663,2.5378758907318115
1772790780420957000,22.83695703125,5.015045166015625,-2.6584413051605225,1.8003578186035156
1772790780440991000,22.856990966796875,3.099681854248047,-4.255054950714111,0.8975121974945068
1772790780461023700,22.877023681640626,0.37550756335258484,-5.624260902404785,-0.5265494585037231
1772790780481057000,22.89705712890625,-1.6123307943344116,-6.729464530944824,-2.5391838550567627
1772790780501091000,22.917091064453125,-2.3421757221221924,-6.818654537200928,-4.284113883972168
1772790780521123800,22.937123779296876,-2.397892713546753,-5.973972320556641,-5.245560646057129
1772790780541157000,22.9571572265625,-1.8738903999328613,-4.61793851852417,-5.271627426147461
1772790780561191000,22.97719091796875,-1.142565369606018,-3.257108211517334,-4.619022369384766
1772790780581224000,22.997223876953125,-0.5562223196029663,-1.8867058753967285,-3.81551194190979
1772790780601257000,23.017257080078124,-0.5364510416984558,-0.3343985974788666,-2.898172616958618
1772790780621291000,23.037291015625,-0.8374244570732117,0.8994975090026855,-1.801991581916809
1772790780641323800,23.05732373046875,-1.051568627357483,1.7839505672454834,-0.7255272269248962
1772790780661356800,23.077356689453126,-1.038249135017395,2.077599048614502,0.4341341257095337
1772790780681389800,23.097389892578125,-0.840457022190094,1.697434902191162,1.3740763664245605
1772790780701423900,23.117423828125,-0.5567878484725952,0.7701581716537476,1.856413722038269
1772790780721457000,23.137456787109375,-0.34482645988464355,-0.36088669300079346,1.872057318687439
1772790780741490000,23.157489990234374,-0.2193789780139923,-1.2390296459197998,1.5287238359451294
1772790780761524000,23.17752392578125,-0.05453769862651825,-1.6758426427841187,1.1364049911499023
1772790780781556700,23.197556640625,0.44411537051200867,-1.420670509338379,0.6700760126113892
1772790780801590000,23.217590087890624,0.9643450975418091,-0.4363478422164917,0.21729978919029236
1772790780821623800,23.237623779296875,1.3677898645401,0.5967440605163574,0.16330546140670776
1772790780841656800,23.25765673828125,1.8719648122787476,1.4607059955596924,0.2999284863471985
1772790780861689900,23.27768994140625,2.390310049057007,2.1907432079315186,0.45503148436546326
1772790780881724000,23.297723876953125,2.8477847576141357,2.660100221633911,0.5868317484855652
1772790780901757000,23.3177568359375,3.213301658630371,2.924180030822754,0.6801139712333679
1772790780921790000,23.3377900390625,3.416733741760254,3.0026886463165283,0.8476850986480713
1772790780941823000,23.357822998046874,3.451214075088501,2.9625189304351807,1.138387680053711
1772790780961856800,23.377856689453125,3.4152095317840576,2.8810458183288574,1.3682256937026978
1772790780981890000,23.39789013671875,3.374063014984131,2.8014273643493652,1.4260056018829346
1772790781001922800,23.4179228515625,3.2975571155548096,2.6650326251983643,1.3630332946777344
1772790781021956900,23.437956787109375,3.2044143676757812,2.557523727416992,1.2465019226074219
1772790781041990000,23.457989990234374,3.0583581924438477,2.422297716140747,1.1050374507904053
1772790781062023000,23.47802294921875,2.9052317142486572,2.338911294937134,0.9627777934074402
1772790781082057000,23.498056884765624,2.706193208694458,2.1924140453338623,0.7792409062385559
1772790781102090000,23.518090087890624,2.482988119125366,2.1001806259155273,0.5628048777580261
1772790781122123000,23.538123046875,2.2664880752563477,1.9840434789657593,0.25802746415138245
1772790781142156800,23.55815673828125,2.0746843814849854,1.8680790662765503,-0.09242984652519226
1772790781162190000,23.578190185546877,1.8918817043304443,1.7708998918533325,-0.38747256994247437
1772790781182222800,23.598222900390624,1.7499576807022095,1.655310034751892,-0.5837270021438599
1772790781202256100,23.618256103515623,1.6667561531066895,1.4788093566894531,-0.6745820641517639
1772790781222290200,23.638290283203126,1.7155474424362183,1.1874427795410156,-0.6965118050575256
1772790781242323200,23.6583232421875,1.9270880222320557,0.7746945023536682,-0.6304972171783447
1772790781262356000,23.67835595703125,2.2274553775787354,0.20475149154663086,-0.41243284940719604
1772790781282390000,23.69839013671875,2.477565050125122,-0.4133608043193817,-0.14665065705776215
1772790781302423300,23.71842333984375,2.629660129547119,-1.020806908607483,0.018653586506843567
1772790781322456000,23.7384560546875,2.632373571395874,-1.6050000190734863,0.0931413471698761
1772790781342490000,23.758489990234374,2.369271993637085,-1.9015710353851318,0.2129511535167694
1772790781362523100,23.778523193359376,1.5791497230529785,-1.9030601978302002,0.27443209290504456
1772790781382556200,23.79855615234375,0.5201536417007446,-1.827596664428711,0.01948496699333191
1772790781402590200,23.818590087890627,-0.2009916454553604,-1.6709578037261963,-0.3137843608856201
1772790781422623200,23.838623291015626,-0.4823778569698334,-1.3387796878814697,-0.4345816671848297
1772790781442656000,23.858656005859373,-0.33517342805862427,-0.8986862897872925,-0.3744034767150879
1772790781462689300,23.878689208984376,0.09030105173587799,-0.5545292496681213,-0.29924988746643066
1772790781482723300,23.898723388671876,0.08351944386959076,-0.1784365028142929,-0.26580631732940674
1772790781502756000,23.918756103515626,-0.36307594180107117,-0.04769640415906906,-0.1256909966468811
1772790781522789000,23.9387890625,-1.0405722856521606,0.03419845551252365,0.03975827991962433
1772790781542823200,23.9588232421875,-1.7712703943252563,0.12197080254554749,0.2626485824584961
1772790781562856200,23.978856201171876,-2.450385808944702,0.16146965324878693,0.44990357756614685
1772790781582889000,23.998888916015623,-3.037355899810791,0.09413084387779236,0.5539361834526062
1772790781602923300,24.01892333984375,-3.4858925342559814,-0.07748215645551682,0.696448028087616
1772790781622956300,24.038956298828126,-3.7828550338745117,-0.21555542945861816,0.7246174812316895
1772790781642989000,24.058989013671876,-3.932178258895874,-0.2704552710056305,0.520301103591919
1772790781663023400,24.0790234375,-4.057792663574219,-0.13862255215644836,0.18649904429912567
1772790781683056000,24.09905615234375,-4.1302947998046875,0.14017854630947113,-0.00887552835047245
1772790781703089200,24.119089111328126,-4.005687713623047,0.605442464351654,-0.09781508147716522
1772790781723122200,24.1391220703125,-3.65885066986084,1.1376490592956543,-0.0021525868214666843
1772790781743156200,24.15915625,-2.95029616355896,1.5097390413284302,0.08790332078933716
1772790781763189000,24.17918896484375,-1.946950912475586,1.3828294277191162,0.2009437084197998
1772790781783222300,24.19922216796875,-0.9866339564323425,0.6299242377281189,0.344525545835495
1772790781803256300,24.21925634765625,-0.26299455761909485,-0.4045321047306061,0.2440282255411148
1772790781823289000,24.2392890625,0.29643070697784424,-1.4622198343276978,-0.11804240196943283
1772790781843322400,24.259322265625,0.6555240750312805,-2.3838016986846924,-0.43730899691581726
1772790781863356200,24.279356201171876,0.781630277633667,-3.163463592529297,-0.5862158536911011
1772790781883389200,24.29938916015625,0.7560739517211914,-3.674591541290283,-0.6877652406692505
1772790781903422200,24.319422119140626,0.5570972561836243,-3.87066650390625,-0.8665597438812256
1772790781923456300,24.339456298828125,0.32237449288368225,-3.6918654441833496,-1.1582216024398804
1772790781943489000,24.359489013671876,-0.17103682458400726,-3.1787333488464355,-1.4327647686004639
1772790781963522300,24.379522216796875,-0.8305729031562805,-2.378117799758911,-1.70991051197052
1772790781983555000,24.39955517578125,-1.3782840967178345,-1.3261322975158691,-1.880051851272583
1772790782003589000,24.419589111328126,-1.6850666999816895,-0.1829444319009781,-1.851358413696289
1772790782023622400,24.439622314453125,-1.8119863271713257,0.8456304669380188,-1.3984622955322266
1772790782043655200,24.4596552734375,-1.799157977104187,1.6935582160949707,-0.7150769829750061
1772790782063689200,24.479689208984375,-1.7560914754867554,2.260599374771118,0.15680859982967377
1772790782083722200,24.49972216796875,-1.696783423423767,2.480623960494995,1.0739398002624512
1772790782103755300,24.51975537109375,-1.4799621105194092,2.273482084274292,1.7617181539535522
1772790782123789000,24.5397890625,-1.1087967157363892,1.7974255084991455,2.0058343410491943
1772790782143822000,24.559822021484376,-0.7204797267913818,1.1926987171173096,1.7061549425125122
1772790782163855000,24.579855224609375,-0.4079091250896454,0.5424804091453552,1.301719307899475
1772790782183889200,24.59988916015625,-0.1009843572974205,0.04275105148553848,0.7687845230102539
1772790782203922200,24.619922119140625,0.2662809193134308,-0.3354867100715637,0.05868078023195267
1772790782223955200,24.639955078125,0.7104660868644714,-0.639074981212616,-0.6622699499130249
1772790782243989200,24.6599892578125,1.1205819845199585,-1.0016025304794312,-1.0465035438537598
1772790782264022300,24.680022216796875,1.4314117431640625,-1.3549613952636719,-1.105934500694275
1772790782284055300,24.70005517578125,1.6495270729064941,-1.5919893980026245,-0.9632003307342529
1772790782304089300,24.72008935546875,1.8532241582870483,-1.6483830213546753,-0.7655481696128845
1772790782324122000,24.7401220703125,2.073422908782959,-1.510832667350769,-0.5965579748153687
1772790782344155400,24.7601552734375,2.2521185874938965,-1.1542761325836182,-0.46319231390953064
1772790782364188200,24.780188232421875,2.3170461654663086,-0.6659405827522278,-0.271440327167511
1772790782384222200,24.80022216796875,2.275722026824951,-0.030517300590872765,0.03768850862979889
1772790782404255200,24.820255126953125,2.1760382652282715,0.7176772952079773,0.5116502642631531
1772790782424288300,24.840288330078124,2.1350033283233643,1.5230920314788818,1.0044372081756592
1772790782444322300,24.860322265625,2.2447752952575684,2.1995699405670166,1.3403173685073853
1772790782464355300,24.880355224609374,2.4703238010406494,2.618377685546875,1.5298645496368408
1772790782484388400,24.900388427734374,2.663813591003418,2.8307347297668457,1.550270915031433
1772790782504422100,24.920422119140625,2.7792391777038574,2.772731065750122,1.329696536064148
1772790782524455400,24.940455322265624,2.8160221576690674,2.4919769763946533,0.9897574782371521
1772790782544488200,24.96048828125,2.858044385910034,1.9726558923721313,0.6391158699989319
1772790782564522200,24.980522216796874,2.8956117630004883,1.2722818851470947,0.34277111291885376
1772790782584555300,25.00055517578125,2.830807685852051,0.5312771201133728,0.0908774882555008
1772790782604588300,25.02058837890625,2.565335512161255,-0.045727651566267014,-0.14708660542964935
1772790782624621000,25.04062109375,2.1668033599853516,-0.48078498244285583,-0.42399218678474426
1772790782644655000,25.060655029296875,1.8705312013626099,-0.8080189228057861,-0.7170888781547546
1772790782664688400,25.0806884765625,1.7131190299987793,-1.0398967266082764,-0.8879031538963318
