time,seconds_elapsed,z,y,x
1772717204862826000,0.057825927734375,-0.00047166692093014717,-0.001403050497174263,0.0012676510959863663
1772717204882698000,0.077697998046875,0.0007352153770625591,-0.001305154524743557,0.0039324769750237465
1772717204902571300,0.0975712890625,0.00010084360837936401,-0.0003339499235153198,0.000058887526392936707
1772717204922443300,0.117443359375,0.0003892011009156704,0.0027056047692894936,0.0007122838869690895
1772717204942316000,0.13731591796875,0.00028704944998025894,0.0011270372197031975,-5.6438148021698e-7
1772717204962188300,0.157188232421875,0.0018742391839623451,0.00016148202121257782,-0.0006272387690842152
1772717204982061000,0.17706103515625,0.0019186967983841896,-0.0012138281017541885,-0.00004900991916656494
1772717205001933000,0.19693310546875,-0.0002555418759584427,0.0011519081890583038,0.0022610705345869064
1772717205021806300,0.216806396484375,0.0013296855613589287,0.00046439189463853836,-0.00134291872382164
1772717205041678000,0.236677978515625,-0.00030146073549985886,0.0008413093164563179,-0.00007420219480991364
1772717205061550000,0.256550048828125,-0.0001772092655301094,-0.0007009608671069145,-0.0014825547114014626
1772717205081423000,0.276423095703125,-0.00036500487476587296,0.0006253477185964584,-0.0006977017037570477
1772717205101295400,0.29629541015625,0.0005143214948475361,0.000828692689538002,0.0014998344704508781
1772717205121168100,0.316168212890625,-0.001669368240982294,0.0003561815246939659,-0.0018274919129908085
1772717205141040000,0.3360400390625,-0.0008317804895341396,0.0011491356417536736,0.001158988568931818
1772717205160913200,0.3559130859375,-0.000730413943529129,-0.0010465402156114578,0.0013277474790811539
1772717205180785200,0.37578515625,0.0002797078341245651,-0.00011485908180475235,0.0003244662657380104
1772717205200658200,0.395658203125,0.0011347564868628979,0.0015477221459150314,0.0005112183280289173
1772717205220530000,0.415530029296875,-0.0004433095455169678,-0.0015560593456029892,-0.0005750232376158237
1772717205240403200,0.4354033203125,-0.0003998344764113426,0.0002993149682879448,-0.0011363341473042965
1772717205260275200,0.455275146484375,-0.00044573936611413956,0.0015088748186826706,-0.0007784422487020493
1772717205280148000,0.47514794921875,0.0011830199509859085,0.0005778586491942406,-0.00037972163408994675
1772717205300020200,0.495020263671875,-0.00005787191912531853,-0.00029983464628458023,-0.0015604011714458466
1772717205319892200,0.514892333984375,0.0013543148525059223,-0.00037663988769054413,0.0007516192272305489
1772717205339765000,0.534764892578125,-0.00047397706657648087,0.0006559938192367554,-0.0001875036396086216
1772717205359637200,0.55463720703125,-0.0007669581100344658,0.0003654696047306061,0.00025338539853692055
1772717205379510300,0.57451025390625,-0.002060164697468281,-0.00037609320133924484,0.0010388530790805817
1772717205399382000,0.594382080078125,0.0018586893565952778,-0.0006711063906550407,0.00015239417552947998
1772717205419255300,0.61425537109375,-0.0028611416928470135,-0.0010032467544078827,0.00031643547117710114
1772717205439127300,0.634127197265625,-0.001471199095249176,0.00014776922762393951,-0.0003833407536149025
1772717205459000000,0.654,-0.0014869403094053268,0.000671938993036747,0.0012766476720571518
1772717205478872000,0.6738720703125,-0.00036888010799884796,-0.0008134236559271812,-0.0013785390183329582
1772717205498745000,0.6937451171875,-0.0007990337908267975,-0.0009490754455327988,0.002552052028477192
1772717205518617300,0.713617431640625,-0.0015692566521465778,0.0011613350361585617,-0.0008209291845560074
1772717205538489300,0.7334892578125,-0.0017629950307309628,-0.0005514901131391525,-0.0023853243328630924
1772717205558362400,0.7533623046875,-0.0015857703983783722,0.0012407917529344559,0.0021100486628711224
1772717205578234000,0.773234130859375,0.0011122715659439564,-0.001026165671646595,0.001777586992830038
1772717205598107400,0.793107421875,0.00022349832579493523,0.0005923081189393997,-0.001840333454310894
1772717205617979400,0.8129794921875,-0.0006646718829870224,0.0001284116879105568,-0.0018172645941376686
1772717205637852200,0.83285205078125,-0.0005515650846064091,-0.0020505422726273537,-0.0005706865340471268
1772717205657724400,0.852724365234375,0.002977090422064066,0.00015616975724697113,-0.0038935437332838774
1772717205677597200,0.87259716796875,-0.00004482222720980644,0.0013440633192658424,-0.000519169494509697
1772717205697469200,0.89246923828125,-0.00011179177090525627,-0.0031966245733201504,0.0021321289241313934
1772717205717342500,0.912342529296875,-0.0019566635601222515,0.00009879376739263535,-0.0003884020261466503
1772717205737214200,0.932214111328125,-0.001972614787518978,-0.0007252069190144539,0.0009168786928057671
1772717205757087200,0.952087158203125,-0.000379346776753664,-0.0008962666615843773,-0.0017770431004464626
1772717205776959200,0.971959228515625,0.0010452605783939362,-0.0007474217563867569,0.000007379800081253052
1772717205796831500,0.99183154296875,-0.001965651288628578,0.0002623302862048149,-0.0010024094954133034
1772717205816704300,1.011704345703125,-0.0007390868850052357,0.00023503229022026062,-0.00003296276554465294
1772717205836576300,1.031576171875,0.00037834420800209045,0.00024021975696086884,-0.00032827258110046387
1772717205856449300,1.05144921875,0.0014014937914907932,-0.0022668717429041862,-0.0015964331105351448
1772717205876321300,1.0713212890625,0.0013057524338364601,-0.003169987816363573,0.00006557069718837738
1772717205896194300,1.0911943359375,-0.0016501350328326225,0.001440858468413353,0.0020640608854591846
1772717205916066000,1.111066162109375,0.0012043612077832222,0.0005974117666482925,-0.0005638417787849903
1772717205935939300,1.130939208984375,0.0042122541926801205,0.0011386321857571602,0.0000857640989124775
1772717205955811300,1.150811279296875,0.0010095485486090183,0.0008627306669950485,-0.001135602593421936
1772717205975684000,1.17068408203125,-0.0010707126930356026,-0.0003808010369539261,-0.0014574197120964527
1772717205995556400,1.190556396484375,-0.000901288352906704,0.0008200313895940781,0.0007424862124025822
1772717206015429400,1.210429443359375,0.0006255167536437511,-0.0005454998463392258,-0.0006321128457784653
1772717206035301000,1.230301025390625,-0.0016983994282782078,-0.000963941216468811,-0.0013691694475710392
1772717206055173000,1.250173095703125,-0.0009047337807714939,0.00021692458540201187,-0.0019443752244114876
1772717206075046400,1.27004638671875,0.0002219146117568016,0.0018632123246788979,0.000745630357414484
1772717206094918100,1.289918212890625,-0.0018888693302869797,-0.0005885865539312363,0.0015601254999637604
1772717206114791200,1.309791259765625,0.0008050934411585331,-0.0011305371299386024,0.0025481097400188446
1772717206134663400,1.329663330078125,-0.0007107551209628582,0.0015507405623793602,-0.001386124175041914
1772717206154536200,1.3495361328125,0.0021411660127341747,0.0015820646658539772,-0.0012908955104649067
1772717206174408200,1.369408203125,0.0011726529337465763,-0.0003169560804963112,0.001047282014042139
1772717206194281200,1.38928125,0.001750018447637558,-0.00047922879457473755,-0.0007146773859858513
1772717206214153200,1.4091533203125,0.0005568698979914188,0.00020322389900684357,-0.0008340761996805668
1772717206234026200,1.429026123046875,-0.0001409389078617096,0.002138606272637844,-0.00020776642486453056
1772717206253898500,1.4488984375,-0.000174790620803833,-0.0007243026047945023,-0.001655531581491232
1772717206273770200,1.468770263671875,0.00037667667493224144,0.001815296709537506,0.002080394420772791
1772717206293643300,1.488643310546875,0.0009932280518114567,0.0029318081215023994,0.00024430081248283386
1772717206313515300,1.508515380859375,-0.00026063574478030205,0.000004270114004611969,-0.0002798372879624367
1772717206333388300,1.52838818359375,-0.0006147399544715881,0.0006271656602621078,-0.0028072914574295282
1772717206353260300,1.54826025390625,-0.0009617982432246208,0.00034334883093833923,-0.00019031530246138573
1772717206373133000,1.568133056640625,0.0005971002392470837,0.0005298107862472534,0.0007405034266412258
1772717206393005300,1.58800537109375,0.0003065126948058605,-0.0011623241007328033,0.0013999193906784058
1772717206412878300,1.60787841796875,0.001098537351936102,0.0014267228543758392,-0.0003607221879065037
1772717206432750300,1.627750244140625,0.0017805597744882107,-0.0009452207013964653,0.00309735257178545
1772717206452623400,1.647623291015625,0.0020411601290106773,0.000057194381952285767,-0.001736816018819809
1772717206472495400,1.667495361328125,-0.00043312273919582367,-0.00026172492653131485,-0.000031208619475364685
1772717206492367400,1.687367431640625,0.00016272859647870064,0.0010574264451861382,0.00043127965182065964
1772717206512239600,1.707239501953125,-0.0008986229076981544,0.001997704617679119,0.0017058560624718666
1772717206532111600,1.727111572265625,0.0030922365840524435,-0.000010980293154716492,0.00020695338025689125
1772717206551985000,1.74698486328125,-0.00016664806753396988,-0.0007304884493350983,0.002673373557627201
1772717206571856600,1.766856689453125,0.0004980182275176048,-0.0006061708554625511,-5.527399480342865e-7
1772717206591729700,1.786729736328125,0.0021500587463378906,-0.00023136287927627563,0.002520425245165825
1772717206611602000,1.806601806640625,0.00040635839104652405,0.0001973714679479599,0.000367848202586174
1772717206631474700,1.826474609375,-0.0014567794278264046,-0.0006740055978298187,-0.0003046272322535515
1772717206651346700,1.8463466796875,-0.0015852893702685833,0.00045297108590602875,-0.0007067248225212097
1772717206671219700,1.8662197265625,0.00020347116515040398,-0.0014372225850820541,0.0009460295550525188
1772717206691091700,1.886091796875,0.0008317334577441216,0.0001303916797041893,-0.0012059081345796585
1772717206710963700,1.905963623046875,0.0001508067362010479,0.0006852857768535614,0.0006600911729037762
1772717206730836700,1.925836669921875,-0.001738120336085558,-0.0001486232504248619,-0.0006825551390647888
1772717206750708700,1.945708740234375,0.00017379643395543098,-0.0011456981301307678,0.001127593219280243
1772717206770581800,1.965581787109375,0.002775518223643303,0.000025463290512561798,0.0008512008935213089
1772717206790453800,1.985453857421875,-0.0023615839891135693,-0.0007158573716878891,0.0004249913617968559
1772717206810326800,2.005326904296875,0.0018148096278309822,0.0015621623024344444,0.0007649874314665794
1772717206830198800,2.02519873046875,-0.0024699242785573006,0.0015589380636811256,0.0011408347636461258
1772717206850071600,2.045071533203125,-0.0008772769942879677,-0.0021856362000107765,0.0017552273347973824
1772717206869943600,2.064943603515625,-0.0005773324519395828,-0.0010908953845500946,-0.0020578866824507713
1772717206889816800,2.08481689453125,-0.0004947199486196041,-0.00013026036322116852,0.001605680212378502
1772717206909688800,2.104688720703125,0.00205328781157732,0.0001514200121164322,-0.0009225183166563511
1772717206929561600,2.1245615234375,-0.0016905074007809162,0.0004679262638092041,0.0012018196284770966
1772717206949433900,2.144433837890625,0.002973492257297039,0.001277439296245575,-0.0012277420610189438
1772717206969305900,2.164305908203125,-0.002001736778765917,-0.00011973641812801361,0.0004453216679394245
1772717206989178600,2.1841787109375,-0.000050562433898448944,0.0003071548417210579,-0.0002392129972577095
1772717207009051000,2.20405078125,0.0010397559963166714,-0.0002411315217614174,-0.0011262302286922932
1772717207028923600,2.223923583984375,-0.0009103119373321533,0.0009300056844949722,-0.0017182067967951298
1772717207048795600,2.243795654296875,0.0013887803070247173,-0.00203741155564785,-0.0028218631632626057
1772717207068669000,2.2636689453125,0.0029193488880991936,0.0006757844239473343,-0.0035136633086949587
1772717207088540700,2.283540771484375,0.0019100802019238472,-0.0009488267824053764,-0.000507730059325695
1772717207108413700,2.30341357421875,-0.0005446653813123703,-0.0004912586882710457,-0.0003868257626891136
1772717207128285700,2.32328564453125,0.0001220819540321827,0.001628468744456768,-0.0017055748030543327
1772717207148158700,2.34315869140625,-0.003366398625075817,0.0021773818880319595,-0.0015224912203848362
1772717207168030700,2.36303076171875,0.0011111730709671974,0.0007483549416065216,-0.002982510719448328
1772717207187902700,2.38290283203125,-0.00024248845875263214,0.0005441615357995033,0.000716072041541338
1772717207207775700,2.402775634765625,-0.0008136434480547905,-0.00036617182195186615,0.0019675795920193195
1772717207227647700,2.422647705078125,-0.000914465170353651,-0.0021081361919641495,-0.002990823471918702
1772717207247520800,2.442520751953125,0.00003588804975152016,-0.00043063051998615265,-0.0003739902749657631
1772717207267392500,2.462392578125,-0.0008395449258387089,-0.0018542865291237831,0.0017105573788285255
1772717207287265800,2.482265869140625,0.0009799720719456673,0.00015126261860132217,0.0006674462929368019
1772717207307137800,2.5021376953125,0.0005529667250812054,0.0014186780899763107,-0.0005276268348097801
1772717207327010600,2.522010498046875,0.0018531093373894691,0.00001640990376472473,0.0014339573681354523
1772717207346882800,2.5418828125,0.000822857953608036,-0.0004301266744732857,-0.0016200058162212372
1772717207366755800,2.561755859375,0.003536333329975605,-0.0019626710563898087,0.0006994199939072132
1772717207386627600,2.581627685546875,0.0005260496400296688,-0.003240490797907114,-0.0017225942574441433
1772717207406499600,2.60149951171875,0.00021301349624991417,-0.0007472168654203415,-0.0004717949777841568
1772717207426372900,2.621372802734375,-0.0006265295669436455,-0.001812671311199665,0.00008201180025935173
1772717207446244600,2.64124462890625,0.0011170157231390476,0.0009176647290587425,-0.0015671593137085438
1772717207466117600,2.66111767578125,-0.001664742361754179,0.0014611072838306427,0.001943548209965229
1772717207485990000,2.680989990234375,0.0017136591486632824,0.0020686322823166847,0.0021318867802619934
1772717207505863000,2.70086279296875,-0.001980637665838003,-0.0008230404928326607,-0.00011275988072156906
1772717207525735000,2.72073486328125,0.000005400273948907852,0.0005415556952357292,-0.000390524510294199
1772717207545607700,2.740607666015625,-0.0008707689121365547,-0.00045542698353528976,-0.0003218073397874832
1772717207565480000,2.76047998046875,0.0006171171553432941,-0.002516987733542919,-0.0007033213041722775
1772717207585353000,2.78035302734375,0.0007060961797833443,-0.0009540226310491562,0.0011722082272171974
1772717207605225000,2.800224853515625,0.0001307232305407524,0.0006091957911849022,-0.0008010300807654858
1772717207625098000,2.820097900390625,0.0011471929028630257,0.0019162222743034363,0.0012588785029947758
1772717207644970000,2.839969970703125,0.002309134230017662,0.0014385329559445381,0.00020960113033652306
1772717207664842000,2.859842041015625,-0.0012268652208149433,0.004112382419407368,-0.0004976354539394379
1772717207684714800,2.87971484375,0.0006074965931475163,-0.0002437382936477661,-0.0013882126659154892
1772717207704587000,2.8995869140625,0.0004246453754603863,0.002831430174410343,-0.00038160290569067
1772717207724459800,2.919459716796875,0.0038001430220901966,-0.0011298982426524162,-0.002461546566337347
1772717207744331800,2.939331787109375,0.00014143995940685272,-0.000504370778799057,0.001013964880257845
1772717207764205000,2.959205078125,-0.0017565535381436348,-0.00024705659598112106,0.0021043396554887295
1772717207784077000,2.9790771484375,-0.0018718154169619083,-0.00028346944600343704,0.0009522298350930214
1772717207803949800,2.99894970703125,-0.0011356021277606487,-0.0009817145764827728,0.00017202552407979965
1772717207823821800,3.01882177734375,-0.00011741090565919876,0.00015082955360412598,-0.00023617735132575035
1772717207843694800,3.03869482421875,-0.0009209122508764267,0.0003180401399731636,0.0010064616799354553
1772717207863566800,3.05856689453125,0.0010838564485311508,-0.0010198131203651428,0.002182183787226677
1772717207883438800,3.07843896484375,-0.0005494924262166023,-0.00032745301723480225,-0.000014115124940872192
1772717207903312000,3.098311767578125,-0.0015979507006704807,0.0005628559738397598,-0.0002152775414288044
1772717207923183900,3.118183837890625,-0.0011918679811060429,0.0004982762038707733,-0.0004137731157243252
1772717207943057000,3.138056884765625,0.000979042612016201,0.0004827817901968956,0.0031632618047297
1772717207962929000,3.157928955078125,0.0005814032629132271,0.0008497275412082672,0.0005977018736302853
1772717207982802000,3.177802001953125,-0.00020947447046637535,0.001718713901937008,0.0007573370821774006
1772717208002674000,3.197673828125,-0.0005063368007540703,0.001923304982483387,0.0002077203243970871
1772717208022547000,3.217546875,0.0018038437701761723,-0.0004320712760090828,0.0018479619175195694
1772717208042419000,3.2374189453125,-0.0014618653804063797,-0.0013308441266417503,0.00054538669064641
1772717208062292000,3.2572919921875,-0.002980150282382965,0.0004545040428638458,0.0007502082735300064
1772717208082163700,3.277163818359375,0.0015043579041957855,-0.0006836280226707458,0.0007322439923882484
1772717208102036000,3.297035888671875,-0.000032932497560977936,-0.0006899237632751465,0.0015228353440761566
1772717208121909000,3.316908935546875,0.0005726395174860954,0.0009583774954080582,-0.0006974078714847565
1772717208141780700,3.33678076171875,-0.0009598876349627972,-0.00020404811948537827,-0.0006656073965132236
1772717208161654000,3.356654052734375,0.0005715293809771538,-0.0006487863138318062,0.0006644534878432751
1772717208181526000,3.376526123046875,-0.0003163008950650692,-0.0005826391279697418,-0.001763376872986555
1772717208201398800,3.396398681640625,-0.0016790805384516716,-0.0016073733568191528,-0.000405116006731987
1772717208221270800,3.416270751953125,-0.0013143518008291721,0.0017204256728291512,0.00039744749665260315
1772717208241144000,3.43614404296875,-0.0006571272388100624,-0.0014925478026270866,0.0038620270788669586
1772717208261015800,3.456015869140625,0.002148900879547,-0.0019783060997724533,0.0003409390337765217
1772717208280888800,3.475888916015625,0.000534967053681612,0.0005089491605758667,0.001968392636626959
1772717208300761000,3.495760986328125,-0.00311956275254488,-0.0012306664139032364,-0.0023966762237250805
1772717208320632800,3.5156328125,-0.003740468993782997,0.0012136232107877731,0.0006169653497636318
1772717208340505900,3.535505859375,-0.0011946088634431362,-0.0009208051487803459,-0.000473720021545887
1772717208360377900,3.5553779296875,0.001189705915749073,0.0005656266584992409,0.0033270237036049366
1772717208380251000,3.5752509765625,-0.0006536133587360382,0.0018704356625676155,0.0024215546436607838
1772717208400123000,3.595122802734375,0.0001732194796204567,0.0008461857214570045,0.0014097923412919044
1772717208419996000,3.614995849609375,-0.001128434669226408,0.0007344121113419533,-0.0023608901537954807
1772717208439868000,3.634867919921875,0.0011537913233041763,0.00045469217002391815,-0.0005431151948869228
1772717208459741000,3.654740966796875,-0.0005886503495275974,0.001006854698061943,0.0018113660626113415
1772717208479613000,3.674613037109375,-0.00012045539915561676,-0.000020407140254974365,-0.00019729183986783028
1772717208499486000,3.69448583984375,0.0010240399278700352,0.00048119667917490005,-0.0014175837859511375
1772717208519358000,3.71435791015625,0.000012602191418409348,-0.00014498271048069,0.0014584106393158436
1772717208539230000,3.73422998046875,0.0014779814518988132,0.0011636950075626373,0.0011858493089675903
1772717208559102700,3.754102783203125,-0.001355817075818777,0.0019220570102334023,0.0005783578380942345
1772717208578975000,3.77397509765625,-0.0018534217961132526,-0.0016990946605801582,0.0022535137832164764
1772717208598847700,3.79384765625,-0.00227117957547307,0.00039049237966537476,-0.0011055911891162395
1772717208618719700,3.8137197265625,0.0009213173761963844,0.0017246054485440254,0.00021789362654089928
1772717208638593000,3.833593017578125,0.0002563293091952801,-0.000014557503163814545,0.0005559064447879791
1772717208658465000,3.853465087890625,-0.0010975543409585953,0.00007302127778530121,0.000021317042410373688
1772717208678337800,3.873337890625,0.0000993446446955204,0.0009122034534811974,0.0008184132166206837
1772717208698209800,3.893209716796875,-0.0007045404054224491,0.0026796916499733925,-0.0010968269780278206
1772717208718082800,3.913082763671875,-0.0018935897387564182,-0.002723628655076027,0.0006874119862914085
1772717208737954800,3.932954833984375,0.00021850364282727242,-0.0015405230224132538,0.0014245039783418179
1772717208757826800,3.952826904296875,0.0011326209641993046,-0.0020194193348288536,0.0026334384456276894
1772717208777699800,3.972699951171875,0.0010481104254722595,-0.0008077919483184814,-0.00035844510421156883
1772717208797571800,3.99257177734375,0.0027137314900755882,0.0005304552614688873,0.0003781798295676708
1772717208817444900,4.01244482421875,0.0005002752877771854,0.0007720300927758217,0.00011783745139837265
1772717208837316900,4.03231689453125,0.0026584253646433353,0.0015640482306480408,-0.0008244989439845085
1772717208857190000,4.05218994140625,-0.0006202040240168571,0.0005148984491825104,0.0010299161076545715
1772717208877062000,4.072061767578125,0.002285391790792346,0.00019927695393562317,-0.0010902555659413338
1772717208896934700,4.0919345703125,-0.0009699896909296513,0.0010515796020627022,0.0022339257411658764
1772717208916807000,4.111806884765625,-0.000007302965968847275,-0.0005551371723413467,0.0004694899544119835
1772717208936679000,4.131678955078125,0.001256964635103941,0.0000059176236391067505,-0.001822394784539938
1772717208956551700,4.1515517578125,-0.0004186234436929226,0.000978698953986168,-0.0002257106825709343
1772717208976423700,4.171423583984375,-0.0007765330374240875,0.00006902776658535004,0.0006898478604853153
1772717208996297000,4.191296875,0.0011587664484977722,0.0005052071064710617,0.0015590363182127476
1772717209016169000,4.2111689453125,0.0011550597846508026,0.0012630019336938858,0.001220964826643467
1772717209036042000,4.2310419921875,-0.002439027652144432,0.0010584089905023575,-0.0007667811587452888
1772717209055914000,4.2509140625,0.0006617270410060883,-0.0008772360160946846,-0.00040914444252848625
1772717209075786800,4.270786865234375,-0.0005845548585057259,-0.002439760137349367,0.0005750861018896103
1772717209095658800,4.29065869140625,0.000238676555454731,0.00018183328211307526,-0.003568739863112569
1772717209115532000,4.310531982421875,0.0004297480918467045,0.0014458969235420227,-0.0001712227240204811
1772717209135403800,4.33040380859375,-0.00023211445659399033,-0.0007059182971715927,0.0009487606585025787
1772717209155275800,4.35027587890625,-0.0001819678582251072,0.00016418099403381348,0.00005061086267232895
1772717209175149000,4.370149169921875,-0.0017599626444280148,-0.0007374528795480728,-0.00022841989994049072
1772717209195020800,4.390020751953125,0.002367973793298006,-0.0007353909313678741,0.0013078879565000534
1772717209214893800,4.409893798828125,-0.00015528779476881027,-0.0009185280650854111,0.0004451628774404526
1772717209234765800,4.429765869140625,0.003192391712218523,-0.0021360591053962708,0.003056864719837904
1772717209254638800,4.449638916015625,0.00006105983629822731,0.0007578125223517418,-0.0022045569494366646
1772717209274510800,4.4695107421875,0.000996612012386322,-0.0007201936095952988,0.0007867114618420601
1772717209294383900,4.4893837890625,-0.0026211682707071304,0.001145344227552414,-0.0017357785254716873
1772717209314256000,4.509255859375,0.0004698885604739189,-0.0006130728870630264,0.00016902200877666473
1772717209334129000,4.52912890625,-0.0003296877257525921,0.0017667487263679504,0.0017239279113709927
1772717209354001000,4.5490009765625,-0.0005363640375435352,0.0003669699653983116,0.0005006701685488224
1772717209373872600,4.56887255859375,-0.0008205878548324108,0.00245019793510437,-0.0007344544865190983
1772717209393746000,4.588745849609375,0.00036580534651875496,-0.0003704996779561043,-0.0017156349495053291
1772717209413618000,4.608617919921875,-0.0007909634150564671,-0.0015676552429795265,-0.0013804850168526173
1772717209433490700,4.62849072265625,0.00040189363062381744,0.000699121505022049,-0.00011091260239481926
1772717209453363000,4.648363037109375,0.0014410926960408688,-0.0008259797468781471,-0.0017075138166546822
1772717209473236000,4.668236083984375,0.001447333488613367,0.0013080993667244911,0.0006778519600629807
1772717209493107700,4.688107666015625,0.0037383087910711765,0.0003900844603776932,-0.0015694773755967617
1772717209512981200,4.707981201171875,-0.0001958492211997509,0.00040064193308353424,-0.0018014060333371162
1772717209532853200,4.727853271484375,-0.0006145997904241085,-0.0009444747120141983,0.0006554084829986095
1772717209552725000,4.74772509765625,-0.0004146518185734749,-0.0028951959684491158,-0.00008754897862672806
1772717209572598300,4.767598388671875,-0.0009684558026492596,0.0005826158449053764,-0.0002451948821544647
1772717209592470300,4.78747021484375,0.0014607463963329792,0.0005030371248722076,0.001148506999015808
1772717209612343000,4.807343017578125,0.0005885153077542782,0.0009704139083623886,-0.0002287733368575573
1772717209632215000,4.827215087890625,-0.0007822415791451931,-0.0005244230851531029,0.0005268435925245285
1772717209652088000,4.847088134765625,0.0003305142745375633,-0.0007538720965385437,-0.0017492985352873802
1772717209671960000,4.8669599609375,-0.0005966732278466225,0.00023802928626537323,0.0017273197881877422
1772717209691833000,4.8868330078125,0.0004961215890944004,0.003061903640627861,-0.0008175265975296497
1772717209711705000,4.906705078125,0.0005776700563728809,-0.0008067181333899498,-0.0016085593961179256
1772717209731578000,4.926578125,-0.0005940664559602737,-0.0001806020736694336,0.0022207889705896378
1772717209751450000,4.9464501953125,0.0031136274337768555,-0.0011597350239753723,0.0016462085768580437
1772717209771322000,4.966322021484375,0.00004449672996997833,-0.0023673498071730137,0.0022585494443774223
1772717209791195100,4.986195068359375,0.0020735999569296837,0.0008121989667415619,-0.0008217929862439632
1772717209811067100,5.006067138671875,0.00025834329426288605,0.00020193122327327728,-0.001635813619941473
1772717209830940000,5.02593994140625,0.0009808959439396858,0.0004807598888874054,-0.00197412958368659
1772717209850812200,5.045812255859375,-0.0001573404297232628,0.0008759722113609314,0.0015387758612632751
1772717209870685200,5.065685302734375,0.00011094287037849426,-0.0012120073661208153,0.0010275584645569324
1772717209890557000,5.085556884765625,-0.00038119079545140266,0.0007557561621069908,-0.0016676844097673893
1772717209910430200,5.10543017578125,-0.0007604053243994713,-0.0031140544451773167,-0.0001088571734726429
1772717209930302200,5.12530224609375,0.00006544496864080429,-0.0012260181829333305,-0.0008008573204278946
1772717209950175000,5.145175048828125,-0.0006546503864228725,-0.00002848450094461441,0.0004741712473332882
1772717209970047000,5.165046875,0.00013291742652654648,-0.00028054509311914444,-0.001753001008182764
1772717209989919200,5.184919189453125,0.0011512264609336853,0.00006124284118413925,-0.001487648580223322
1772717210009792000,5.2047919921875,0.0016009300015866756,0.0006555365398526192,0.0012064389884471893
1772717210029664000,5.2246640625,-0.000026518478989601135,0.001974545419216156,0.0020632976666092873
1772717210049537300,5.244537353515625,0.0015505501069128513,0.0002453550696372986,0.0003592199645936489
1772717210069409000,5.264408935546875,0.000769477803260088,0.0007020570337772369,0.0006854408420622349
1772717210089282000,5.284281982421875,-0.0014135916717350483,-0.005340580362826586,0.002316434867680073
1772717210109154300,5.304154296875,0.0011457344517111778,-0.0005297837778925896,-0.0019945031963288784
1772717210129027000,5.324027099609375,0.00001675216481089592,0.0007682368159294128,0.0010117646306753159
1772717210148899000,5.343899169921875,0.0006065713241696358,-0.00007729791104793549,0.0006680143997073174
1772717210168772000,5.363772216796875,0.0006606867536902428,-0.00016719568520784378,-0.0008964813314378262
1772717210188644000,5.38364404296875,-0.00167500926181674,0.0025788983330130577,0.000799187459051609
1772717210208516000,5.40351611328125,0.0010779909789562225,-0.00030231941491365433,-0.0016705296002328396
1772717210228389000,5.42338916015625,0.00005501089617609978,0.00083882175385952,-0.002281438559293747
1772717210248261000,5.44326123046875,0.00037128617987036705,-0.0012205550447106361,0.0003842981532216072
1772717210268134100,5.463134033203125,0.0006281514652073383,-0.0018362393602728844,0.0013998779468238354
1772717210288006100,5.483006103515625,0.0004991679452359676,-0.0001891832798719406,-0.0004926468245685101
1772717210307879200,5.502879150390625,0.00016319984570145607,-0.0011225808411836624,0.0016255336813628674
1772717210327751200,5.522751220703125,0.000960296019911766,0.0025221584364771843,0.0002829423174262047
1772717210347624000,5.5426240234375,0.001936254557222128,0.0011589135974645615,0.000830348115414381
1772717210367496000,5.562495849609375,-0.0010041003115475178,0.0016057081520557404,-0.00028464896604418755
1772717210387368200,5.5823681640625,0.0011390550062060356,0.0005062734708189964,0.0022302428260445595
1772717210407241200,5.6022412109375,0.0000551147386431694,-0.0008318135514855385,0.0004763863980770111
1772717210427113000,5.622113037109375,-0.000477728433907032,-0.0012903036549687386,0.0017017247155308723
1772717210446986200,5.641986328125,0.0008517121896147728,0.0007829414680600166,0.00213466864079237
1772717210466858200,5.661858154296875,-0.0005443715490400791,-0.0007337974384427071,0.0004652123898267746
1772717210486731000,5.68173095703125,0.00038184644654393196,0.0006757359951734543,0.0006699739024043083
1772717210506603300,5.701603271484375,0.0015710098668932915,0.0013020364567637444,-0.002763007301837206
1772717210526476300,5.721476318359375,0.0008367937989532948,0.0024380702525377274,-0.0011069709435105324
1772717210546348300,5.741348388671875,0.0006624902598559856,0.0015092389658093452,-0.0007745581679046154
1772717210566221300,5.76122119140625,-0.0004566460847854614,0.00009101629257202148,-0.0001374916173517704
1772717210586093300,5.78109326171875,-0.00024162698537111282,-0.0014866897836327553,-0.0012590102851390839
1772717210605965300,5.80096533203125,-0.0004037967883050442,-0.00015392620116472244,0.0016220025718212128
1772717210625838300,5.82083837890625,0.002073218347504735,0.00003863312304019928,0.000490537378937006
1772717210645710300,5.84071044921875,0.0029840499628335238,-0.0005196323618292809,-0.0011690100654959679
1772717210665583400,5.860583251953125,-0.002592247910797596,0.0007721772417426109,-0.0026715565472841263
1772717210685455400,5.880455322265625,0.0006775171495974064,0.0009419554844498634,-0.0018867026083171368
1772717210705328000,5.900328125,-0.0002452717162668705,-0.0011615855619311333,0.003160592168569565
1772717210725200100,5.9202001953125,-0.0030840090475976467,0.0003274213522672653,-0.0009848461486399174
1772717210745073400,5.940073486328125,-0.0002470272593200207,-0.0024193543940782547,0.00022771721705794334
1772717210764945200,5.959945068359375,0.00029511330649256706,-0.00014636944979429245,-0.0018014172092080116
1772717210784817200,5.979817138671875,-0.000018829014152288437,0.0007014302536845207,0.0010273288935422897
1772717210804690400,5.9996904296875,-0.0003987322561442852,-0.001232389360666275,-0.0016093463636934757
1772717210824562400,6.0195625,-0.0010422244668006897,-0.0005924403667449951,0.0004453156143426895
1772717210844435200,6.039435302734375,0.00016023032367229462,0.0019386997446417809,-0.00019489089027047157
1772717210864307200,6.05930712890625,-0.00038925232365727425,0.0005889274179935455,-0.0012475508265197277
1772717210884180200,6.07918017578125,0.0010138466022908688,-0.0008601807057857513,-0.0036060556303709745
1772717210904052200,6.09905224609375,-0.0016686120070517063,0.0004445919767022133,0.0005067386664450169
1772717210923925200,6.11892529296875,-0.0006336425431072712,-0.00038185808807611465,0.0030486788600683212
1772717210943797200,6.13879736328125,0.0006303288973867893,-0.0018473593518137932,-0.0003653820604085922
1772717210963669200,6.158669189453125,-0.0037202714011073112,-0.0022072037681937218,0.00032381201162934303
1772717210983542300,6.178542236328125,0.0023930701427161694,-0.0005666129291057587,0.00010235095396637917
1772717211003414300,6.198414306640625,0.0004789242520928383,0.000706884078681469,0.0011248132213950157
1772717211023287300,6.218287353515625,-0.000474308617413044,-0.0002482198178768158,0.0013408591039478779
1772717211043159300,6.2381591796875,-0.001527316402643919,0.003958641551434994,0.0005409196019172668
1772717211063032300,6.2580322265625,-0.0009868559427559376,-0.002700251527130604,-0.0011403607204556465
1772717211082904300,6.277904296875,-0.0004366920329630375,0.0008649630472064018,-0.0012438073754310608
1772717211102777300,6.29777734375,-0.0005443757399916649,-0.002067866735160351,-0.00024097925052046776
1772717211122649000,6.317649169921875,-0.0006208647973835468,0.001507866196334362,-0.0018725707195699215
1772717211142522400,6.3375224609375,0.001714217010885477,0.0018838383257389069,0.0000832616351544857
1772717211162394400,6.357394287109375,0.00013469113036990166,0.0006409557536244392,-0.001768497284501791
1772717211182266000,6.37726611328125,-0.0015661558136343956,0.00132694561034441,0.0008989749476313591
1772717211202139400,6.397139404296875,0.0019286535680294037,0.0008627315983176231,0.00044031720608472824
1772717211222011400,6.417011474609375,0.0008930163457989693,0.00006095226854085922,0.0005637356080114841
1772717211241884200,6.43688427734375,0.0007078172639012337,0.0016564708203077316,-0.00015340512618422508
1772717211261756200,6.456756103515625,0.0013592485338449478,-0.0010552732273936272,-0.0018312213942408562
1772717211281629400,6.47662939453125,-0.002549760974943638,0.0000698501244187355,-0.0010053040459752083
1772717211301501200,6.496501220703125,0.0007014279253780842,-0.00018069148063659668,0.0008093826472759247
1772717211321374200,6.516374267578125,0.004200217314064503,-0.0007901694625616074,0.0008325199596583843
1772717211341246500,6.53624658203125,-0.002043119166046381,-0.0006312020123004913,0.0011094613000750542
1772717211361118200,6.5561181640625,0.0015371311455965042,-0.0021358393132686615,-0.0018080081790685654
1772717211380991200,6.5759912109375,-0.0015605296939611435,0.0019954759627580643,0.0017607402987778187
1772717211400863200,6.59586328125,0.0009641502983868122,0.0005258657038211823,0.00039497949182987213
1772717211420736300,6.615736328125,0.000046154018491506577,0.0004464332014322281,0.0012616547755897045
1772717211440608300,6.635608154296875,-0.002731640823185444,-0.0006040176376700401,0.0011375625617802143
1772717211460481300,6.655481201171875,0.00021841377019882202,-0.0010131662711501122,0.0006817360408604145
1772717211480353300,6.675353271484375,-0.0006811772473156452,-0.0000388631597161293,-0.001151124481111765
1772717211500225500,6.6952255859375,0.0018518916331231594,0.0006588529795408249,-0.00016228808090090752
1772717211520097500,6.71509765625,0.0009505907073616982,-0.0009221788495779037,0.00020038709044456482
1772717211539970600,6.734970458984375,0.00001635681837797165,0.000275488942861557,-0.0002232617698609829
1772717211559842600,6.754842529296875,-0.0005265953950583935,0.0010995129123330116,-0.0007237945683300495
1772717211579714600,6.774714599609375,0.0015508020296692848,-0.0005641784518957138,0.00040530087426304817
1772717211599587300,6.79458740234375,-0.0013596154749393463,0.0004945285618305206,0.002087082713842392
1772717211619459600,6.81445947265625,-0.0015021110884845257,-0.0016829399392008781,0.000975301954895258
1772717211639332600,6.83433251953125,-0.0031452178955078125,0.00028142519295215607,0.0008881054818630219
1772717211659204600,6.85420458984375,-0.0005558724515140057,0.00043940450996160507,-0.0016215029172599316
1772717211679077600,6.87407763671875,-0.00067928247153759,0.0006000110879540443,0.00000772019848227501
1772717211698949600,6.89394970703125,0.001991510624065995,0.0010930830612778664,0.0015817745588719845
1772717211718822400,6.913822509765625,-0.0003727227449417114,0.0005249297246336937,-0.0011570272035896778
1772717211738694400,6.9336943359375,-0.00006943149492144585,0.0004997793585062027,0.001341972965747118
1772717211758566700,6.953566650390625,0.0005284054204821587,-0.0026650824584066868,-0.00006383052095770836
1772717211778439400,6.973439453125,-0.0006402991712093353,-0.00019312091171741486,0.0014968584291636944
1772717211798311400,6.9933115234375,0.0015988107770681381,-0.002083071507513523,0.00034435931593179703
1772717211818184700,7.013184814453125,0.000685292761772871,0.0017289072275161743,0.0009531290270388126
1772717211838056400,7.033056396484375,-0.001829594373703003,-0.0007453802973031998,-0.0016677649691700935
1772717211857929500,7.052929443359375,0.0016498146578669548,0.0011240337044000626,0.0003557163290679455
1772717211877801500,7.072801513671875,-0.000404424499720335,0.0001422567293047905,0.0007899608463048935
1772717211897674500,7.092674560546875,0.0008498979732394218,0.00042445864528417587,-0.0003705127164721489
1772717211917546500,7.11254638671875,0.00046256743371486664,0.00025824736803770065,0.0009729950688779354
1772717211937418500,7.13241845703125,0.00008128304034471512,0.0005225073546171188,-0.0010256893001496792
1772717211957291500,7.15229150390625,-0.00027386704459786415,-0.0019947420805692673,-0.0015577934682369232
1772717211977163500,7.17216357421875,-0.0003396212123334408,-0.0005124872550368309,0.0032742521725594997
1772717211997036500,7.19203662109375,-0.0026297462172806263,-0.0007547801360487938,-0.000820748507976532
1772717212016908300,7.211908203125,-0.0005208957009017467,0.0005949502810835838,-0.0018202089704573154
1772717212036781600,7.231781494140625,0.00007493793964385986,-0.00018361303955316544,-0.0010847686789929867
1772717212056653600,7.251653564453125,-0.00019741058349609375,0.001316094771027565,-0.00010786205530166626
1772717212076526600,7.271526611328125,0.002135244198143482,-0.002696043811738491,-0.0017376132309436798
1772717212096398600,7.291398681640625,-0.00004892796277999878,0.00016972888261079788,6.579793989658356e-7
1772717212116270600,7.3112705078125,-0.0012128218077123165,-0.0004029190167784691,0.00003218557685613632
1772717212136143400,7.331143310546875,-0.0005029276944696903,0.0004765493795275688,0.0005015837959945202
1772717212156015600,7.351015625,0.001111276913434267,0.0001490376889705658,-0.0005257241427898407
1772717212175888600,7.370888671875,-0.002995165530592203,0.0007343608886003494,0.00006361352279782295
1772717212195760400,7.390760498046875,0.0013916469179093838,-0.00034477654844522476,-0.0019343625754117966
1772717212215633700,7.410633544921875,0.00018881820142269135,0.0005496637895703316,0.0027961209416389465
1772717212235505700,7.430505615234375,0.0004625464789569378,-0.00034969206899404526,-0.002729005180299282
1772717212255378400,7.45037841796875,-0.001099319662898779,0.0009773178026080132,-0.00204667029902339
1772717212275250400,7.47025048828125,0.0009328522719442844,0.0006590411067008972,0.003059913869947195
1772717212295122700,7.490122802734375,-0.002762718591839075,0.0006109913811087608,-0.00039904285222291946
1772717212314995500,7.509995361328125,-0.0007505388930439949,-0.0006215553730726242,-0.00003205379471182823
1772717212334867500,7.529867431640625,-0.0018174382857978344,0.0014308178797364235,0.0001456979662179947
1772717212354740700,7.54974072265625,-0.0005353158339858055,0.0012241881340742111,-0.0005034515634179115
1772717212374612500,7.569612548828125,0.0008812393061816692,0.0019414173439145088,-0.00009855581447482109
1772717212394485500,7.589485595703125,-0.00015420280396938324,0.0018648887053132057,0.0016453452408313751
1772717212414357500,7.609357421875,0.0007235030643641949,-0.0010803863406181335,0.0017048078589141369
1772717212434229500,7.6292294921875,0.0008547310717403889,0.00044614821672439575,0.0006564944051206112
1772717212454102500,7.6491025390625,0.002409073757007718,-0.00009378977119922638,-0.004204810597002506
1772717212473974500,7.668974609375,0.00018804054707288742,-0.001979774795472622,-0.0011197878047823906
1772717212493847600,7.68884765625,0.0011552623473107815,-0.0007900157943367958,-0.0020164093002676964
1772717212513720600,7.708720458984375,0.0017973980866372585,-0.0005629351362586021,0.00040302053093910217
1772717212533593600,7.728593505859375,-0.0010782885365188122,0.002825353294610977,-0.0006255502812564373
1772717212553465600,7.748465576171875,-0.001751071773469448,-0.0008733728900551796,0.0003041471354663372
1772717212573338600,7.768338623046875,-0.001587197184562683,-0.0007128529250621796,-0.0004040696658194065
1772717212593210600,7.788210693359375,-0.0005299295298755169,-0.001309433951973915,-0.00005075521767139435
1772717212613083600,7.808083740234375,-0.0007877233438193798,-0.0028529190458357334,-0.0004763370379805565
1772717212632955600,7.82795556640625,-0.0004915948957204819,-0.0005390690639615059,0.00014837877824902534
1772717212652827400,7.847827392578125,-0.00034439144656062126,0.0002669990062713623,-0.0010932916775345802
1772717212672700700,7.86770068359375,0.0010119746439158916,0.0012006061151623726,-0.000033295247703790665
1772717212692572700,7.88757275390625,-0.0001686294563114643,0.00009247567504644394,0.001536775380373001
1772717212712445400,7.907445556640625,0.0007831696420907974,-0.00005016941577196121,0.000512066762894392
1772717212732317700,7.927317626953125,0.00030440976843237877,-0.00040201470255851746,-0.00032011745497584343
1772717212752190500,7.9471904296875,0.0013553788885474205,-0.00013102125376462936,-0.0009179296903312206
1772717212772062500,7.9670625,-0.0005818014033138752,-0.00011586863547563553,-0.0032097199000418186
1772717212791934500,7.9869345703125,-0.0016265828162431717,0.0020257439464330673,0.0012074322439730167
1772717212811807700,8.006807861328125,0.0028907358646392822,-0.0001865718513727188,0.0011419253423810005
1772717212831679500,8.026679443359376,-0.001324683427810669,-0.0003249580040574074,0.0012893080711364746
1772717212851552800,8.046552734375,0.0024333868641406298,0.0023933257907629013,0.00011469190940260887
1772717212871424800,8.0664248046875,0.00006834929808974266,0.0013977335765957832,0.000421029981225729
1772717212891297500,8.086297607421875,-0.0010143248364329338,0.003053293563425541,-0.0016110134311020374
1772717212911169500,8.10616943359375,-0.0003694589249789715,-0.0012832432985305786,-0.0008685304783284664
1772717212931042600,8.12604248046875,0.0008611450903117657,0.0009383056312799454,-0.001983810681849718
1772717212950914600,8.14591455078125,-0.0008581005968153477,0.00000486522912979126,-0.0006653051823377609
1772717212970787600,8.16578759765625,-0.0011199391447007656,-0.002136118710041046,0.0011674799025058746
1772717212990659800,8.185659912109376,-0.0002303924411535263,-0.000963001511991024,-0.0006543225608766079
1772717213010531600,8.205531494140626,0.00021902471780776978,-0.0014819838106632233,-0.001625418197363615
1772717213030404600,8.225404541015624,0.001457110047340393,0.001735595054924488,-0.0004805624485015869
1772717213050276600,8.245276611328125,0.0014629759825766087,0.0031530866399407387,0.00028786808252334595
1772717213070149600,8.265149658203125,0.0017702891491353512,0.002211860381066799,0.0007536369375884533
1772717213090021600,8.285021728515625,-0.0005020666867494583,-0.00030530430376529694,-0.00009774323552846909
1772717213109894400,8.304894287109375,-0.0020639533177018166,-0.001382947899401188,-0.001558687537908554
1772717213129766700,8.3247666015625,0.0005685882642865181,0.0005822675302624702,-0.0009721051901578903
1772717213149639700,8.3446396484375,-0.0014632917009294033,0.0011505791917443275,0.000043023377656936646
1772717213169511700,8.36451171875,-0.0019372496753931046,0.0011283429339528084,-0.00027524353936314583
1772717213189383400,8.384383544921874,-0.0004213922657072544,0.0022669238969683647,0.00044517870992422104
1772717213209256700,8.404256591796875,-0.00043911533430218697,-0.00023109186440706253,-0.0008708625100553036
1772717213229128700,8.424128662109375,-0.0006537609733641148,-0.0019034957513213158,0.0008996040560305119
1772717213249001500,8.44400146484375,0.00018674181774258614,0.0011385073885321617,-0.000883852131664753
1772717213268873700,8.463873779296875,0.0011843903921544552,0.0004646163433790207,-0.0015609520487487316
1772717213288746500,8.48374658203125,0.0019452166743576527,0.000945710577070713,-0.0015933699905872345
1772717213308618500,8.503618408203126,-0.0008554672822356224,0.0008278107270598412,-0.0007933271117508411
1772717213328491800,8.52349169921875,-0.001786080189049244,0.0030469177290797234,-0.0018589794635772705
1772717213348363500,8.543363525390625,0.000009760726243257523,-0.0010715266689658165,-0.0016448074020445347
1772717213368235500,8.563235595703125,-0.0016243364661931992,0.0006416114047169685,0.000764018390327692
1772717213388108500,8.583108642578125,0.0007537477649748325,0.00009668245911598206,-0.0005410164594650269
1772717213407980800,8.602980712890625,0.0005796742625534534,-0.0003241905942559242,-0.000392137560993433
1772717213427853600,8.622853515625,0.0015815012156963348,-0.00102155189961195,0.0022208252921700478
1772717213447725600,8.6427255859375,-0.0003575589507818222,0.0013690060004591942,-0.0015202895738184452
1772717213467598600,8.6625986328125,-0.0005268598906695843,0.00005090516060590744,0.0028046094812452793
1772717213487470600,8.682470703125,0.00011744443327188492,0.0006538284942507744,-0.0022941376082599163
1772717213507342300,8.70234228515625,0.0010124482214450836,0.000915144570171833,0.00003052316606044769
1772717213527215400,8.72221533203125,-0.0019198823720216751,0.004466601647436619,0.000048949383199214935
1772717213547087400,8.74208740234375,-0.00031792931258678436,0.002344139851629734,0.00011739833280444145
1772717213566960400,8.76196044921875,0.000250265933573246,-0.0027986415661871433,-0.002994823269546032
1772717213586832400,8.781832275390625,-0.0008063646964728832,-0.002380039542913437,0.0007689693011343479
1772717213606705400,8.801705322265626,0.0008490970358252525,0.0016380175948143005,-0.00017430121079087257
