time,seconds_elapsed,z,y,x
1772788811896065300,0.183065185546875,9.75917911529541,0.7180446982383728,2.6416139602661133
1772788811916162600,0.20316259765625,9.786727905273438,0.7090616226196289,2.645806074142456
1772788811936260000,0.223260009765625,9.791518211364746,0.7144514918327332,2.6595799922943115
1772788811956357400,0.243357421875,9.800501823425293,0.7288243174552917,2.6488003730773926
1772788811976455000,0.263454833984375,9.790919303894043,0.7390051484107971,2.662574291229248
1772788811996552200,0.28355224609375,9.771756172180176,0.7252311110496521,2.666167736053467
1772788812016649700,0.303649658203125,9.780738830566406,0.7396039962768555,2.6655688285827637
1772788812036747300,0.323747314453125,9.775947570800781,0.7306209802627563,2.6649699211120605
1772788812056844500,0.343844482421875,9.789721488952637,0.7168469429016113,2.6541903018951416
1772788812076942000,0.363942138671875,9.775348663330078,0.7126548886299133,2.6440093517303467
1772788812097039400,0.384039306640625,9.76876163482666,0.6988808512687683,2.666167736053467
1772788812117137000,0.404136962890625,9.78732681274414,0.7419995069503784,2.6709585189819336
1772788812137234200,0.424234130859375,9.78732681274414,0.7372085452079773,2.666167736053467
1772788812157331700,0.444331787109375,9.77774429321289,0.7132537364959717,2.661376714706421
1772788812177430300,0.46443017578125,9.77774429321289,0.7324175834655762,2.6476025581359863
1772788812197529900,0.48452978515625,9.79211711883545,0.727626621723175,2.6715574264526367
1772788812217629400,0.50462939453125,9.806489944458008,0.7228356599807739,2.6763484477996826
1772788812237729000,0.52472900390625,9.79211711883545,0.727626621723175,2.6523935794830322
1772788812257828400,0.544828369140625,9.76876163482666,0.7228356599807739,2.657184600830078
1772788812277928000,0.564927978515625,9.773552894592285,0.6892989277839661,2.618856906890869
1772788812298027500,0.585027587890625,9.772953987121582,0.6940898895263672,2.6374218463897705
1772788812318127000,0.605127197265625,9.8016996383667,0.7228356599807739,2.6757495403289795
1772788812338226400,0.625226318359375,9.744806289672852,0.7324175834655762,2.589512348175049
1772788812358326000,0.645325927734375,9.711869239807129,0.7324175834655762,2.6422128677368164
1772788812378425600,0.665425537109375,9.815473556518555,0.7419995069503784,2.766178846359253
1772788812398525200,0.685525146484375,9.815473556518555,0.8521915078163147,2.7518060207366943
1772788812418624500,0.70562451171875,9.782535552978516,0.794700026512146,2.7422239780426025
1772788812438724000,0.72572412109375,9.75917911529541,0.6845079660415649,2.761387825012207
1772788812458823700,0.74582373046875,9.768162727355957,0.6988808512687683,2.7038965225219727
1772788812478923300,0.76592333984375,9.75917911529541,0.756372332572937,2.6799416542053223
1772788812499022800,0.78602294921875,9.78732681274414,0.6988808512687683,2.69970440864563
1772788812519122200,0.8061220703125,9.796908378601074,0.7036718130111694,2.69970440864563
1772788812539221800,0.8262216796875,9.811281204223633,0.7036718130111694,2.6811394691467285
1772788812559321300,0.8463212890625,9.79211711883545,0.6605532169342041,2.628438949584961
1772788812579421000,0.8664208984375,9.778343200683594,0.6988808512687683,2.623647928237915
1772788812599520300,0.886520263671875,9.796908378601074,0.6653441786766052,2.666766405105591
1772788812619619800,0.906619873046875,9.773552894592285,0.7132537364959717,2.6476025581359863
1772788812639719400,0.926719482421875,9.749597549438477,0.7605644464492798,2.7050940990448
1772788812659819000,0.946819091796875,9.744806289672852,0.7605644464492798,2.7817494869232178
1772788812679917300,0.966917236328125,9.796908378601074,0.7797282934188843,2.7482128143310547
1772788812700015400,0.987015380859375,9.782535552978516,0.8138638138771057,2.7476139068603516
1772788812720113400,1.007113525390625,9.79211711883545,0.7372085452079773,2.7380318641662598
1772788812740211200,1.027211181640625,9.8016996383667,0.7036718130111694,2.685331344604492
1772788812760309200,1.047309326171875,9.796908378601074,0.7419995069503784,2.7044951915740967
1772788812780407000,1.067406982421875,9.806489944458008,0.7611632943153381,2.6805405616760254
1772788812800505000,1.087505126953125,9.730433464050293,0.7228356599807739,2.6470038890838623
1772788812820603100,1.10760302734375,9.716659545898438,0.7372085452079773,2.69970440864563
1772788812840701000,1.127700927734375,9.75917911529541,0.7036718130111694,2.727851152420044
1772788812860799000,1.147799072265625,9.754388809204102,0.7611632943153381,2.73264217376709
1772788812880897000,1.16789697265625,9.725643157958984,0.7707452178001404,2.7374331951141357
1772788812900994800,1.187994873046875,9.740015983581543,0.6892989277839661,2.6805405616760254
1772788812921092900,1.2080927734375,9.820263862609863,0.6036605834960938,2.7805516719818115
1772788812941190700,1.228190673828125,9.910094261169434,0.6228244304656982,2.809297561645508
1772788812961288700,1.248288818359375,9.782535552978516,0.6755249500274658,2.689523458480835
1772788812981386800,1.26838671875,9.763371467590332,0.6324063539505005,2.6655688285827637
1772788813001484500,1.288484619140625,9.815473556518555,0.5844967365264893,2.7182693481445312
1772788813021582600,1.30858251953125,9.77774429321289,0.6467791795730591,2.7038965225219727
1772788813041680400,1.328680419921875,9.75917911529541,0.6419882774353027,2.689523458480835
1772788813061778400,1.3487783203125,9.78732681274414,0.6419882774353027,2.766178846359253
1772788813081876500,1.36887646484375,9.8016996383667,0.6707339882850647,2.7470149993896484
1772788813101974300,1.388974365234375,9.782535552978516,0.6797170639038086,2.6326308250427246
1772788813122072300,1.409072265625,9.744806289672852,0.6318074464797974,2.661376714706421
1772788813142170000,1.429170166015625,9.763970375061035,0.6509712934494019,2.6470038890838623
1772788813162268200,1.44926806640625,9.811281204223633,0.6461803317070007,2.6374218463897705
1772788813182366700,1.46936669921875,9.806489944458008,0.6988808512687683,2.7044951915740967
1772788813202465300,1.48946533203125,9.8016996383667,0.7515813708305359,2.7763595581054688
1772788813222563800,1.509563720703125,9.811281204223633,0.7611632943153381,2.8194782733917236
1772788813242662400,1.529662353515625,9.825055122375488,0.8228468894958496,2.848223924636841
1772788813282859500,1.569859619140625,9.67893123626709,0.6222255229949951,2.8194782733917236
1772788813302957800,1.589957763671875,9.976569175720215,0.5982707738876343,2.9769809246063232
1772788813323056400,1.610056396484375,10.241270065307617,0.7941011190414429,3.0488452911376953
1772788813343155200,1.6301552734375,9.966987609863281,0.8659654855728149,3.0105175971984863
1772788813363253500,1.65025341796875,9.626829147338867,0.6126436591148376,2.6811394691467285
1772788813383352000,1.67035205078125,9.863383293151855,0.4838866591453552,2.5996930599212646
1772788813403450600,1.69045068359375,10.056818008422852,0.5317962169647217,2.590111255645752
1772788813423549200,1.710549072265625,9.938840866088867,0.5695250034332275,2.623647928237915
1772788813443647700,1.730647705078125,9.796908378601074,0.5317962169647217,2.5996930599212646
1772788813463746300,1.750746337890625,9.839427947998047,0.48867762088775635,2.437399387359619
1772788813483844900,1.770844970703125,9.88194751739502,0.4216042160987854,2.1744956970214844
1772788813503943400,1.790943359375,9.934049606323242,0.3976494371891022,2.0116031169891357
1772788813524042000,1.8110419921875,9.834636688232422,0.3880675137042999,1.8966201543807983
1772788813544140500,1.831140625,9.782535552978516,0.43118613958358765,1.7486993074417114
1772788813584337700,1.871337646484375,9.853800773620605,0.39285847544670105,1.6528801918029785
1772788813604436200,1.891436279296875,9.816072463989258,0.4838866591453552,1.705580711364746
1772788813624534800,1.91153466796875,9.829846382141113,0.5078414678573608,1.7343264818191528
1772788813644633300,1.93163330078125,9.867574691772461,0.46951380372047424,1.7007898092269897
1772788813664732000,1.95173193359375,9.877157211303711,0.4838866591453552,1.6576710939407349
1772788813684829700,1.97182958984375,9.85859203338623,0.5222142934799194,1.6055694818496704
1772788813704927500,1.991927490234375,9.877157211303711,0.5174233913421631,1.5816147327423096
1772788813725025300,2.012025390625,9.938840866088867,0.45034995675086975,1.6534790992736816
1772788813745123000,2.032123046875,9.938840866088867,0.47430476546287537,1.6343152523040771
1772788813765220900,2.052220947265625,9.877157211303711,0.4838866591453552,1.586405634880066
1772788813785318700,2.072318603515625,10.06160831451416,0.4838866591453552,1.6534790992736816
1772788813805416400,2.09241650390625,9.849010467529297,0.4790956974029541,1.6151514053344727
1772788813825514000,2.112513916015625,9.901111602783203,0.43597710132598877,1.7013885974884033
1772788813845611800,2.13261181640625,10.009507179260254,0.4790956974029541,1.7397162914276123
1772788813865709600,2.15270947265625,10.009507179260254,0.47430476546287537,1.7492982149124146
1772788813885807400,2.172807373046875,9.796908378601074,0.49346858263015747,1.5959875583648682
1772788813905905200,2.1929052734375,9.99992561340332,0.4557397961616516,1.6714451313018799
1772788813926003000,2.2130029296875,10.056818008422852,0.4701126515865326,1.6379084587097168
1772788813946100700,2.233100830078125,9.79211711883545,0.48448553681373596,1.5804169178009033
1772788813966198500,2.253198486328125,10.009507179260254,0.4940674602985382,1.6570723056793213
1772788813986296300,2.27329638671875,9.943032264709473,0.5180222392082214,1.6325186491012573
1772788814006394000,2.29339404296875,9.938241958618164,0.47969457507133484,1.6708463430404663
1772788814026492000,2.313491943359375,9.975970268249512,0.4701126515865326,1.6948010921478271
1772788814046589700,2.333589599609375,9.923869132995605,0.4940674602985382,1.685219168663025
1772788814066687500,2.3536875,9.971179008483887,0.46532171964645386,1.685219168663025
1772788814086785000,2.373784912109375,9.957405090332031,0.4228019714355469,1.6564733982086182
1772788814106882800,2.3938828125,9.924468040466309,0.4892764985561371,1.5947898626327515
1772788814126980600,2.413980712890625,9.933450698852539,0.4749036133289337,1.6235356330871582
1772788814167176200,2.45417626953125,9.890931129455566,0.4749036133289337,1.5995807647705078
1772788814187273700,2.474273681640625,9.97177791595459,0.47969457507133484,1.6810270547866821
1772788814207371500,2.49437158203125,9.943032264709473,0.4509488344192505,1.6618632078170776
1772788814227469000,2.514468994140625,9.929258346557617,0.5180222392082214,1.5995807647705078
1772788814247566800,2.53456689453125,9.962196350097656,0.5084403157234192,1.6283265352249146
1772788814267664400,2.554664306640625,9.952614784240723,0.44136691093444824,1.685219168663025
1772788814287762200,2.57476220703125,9.957405090332031,0.417412132024765,1.6283265352249146
1772788814307859700,2.594859619140625,9.966987609863281,0.4557397961616516,1.5947898626327515
1772788814327957200,2.614957275390625,9.938241958618164,0.5222142934799194,1.5708351135253906
1772788814348055000,2.635054931640625,9.934049606323242,0.4509488344192505,1.6283265352249146
1772788814368152600,2.655152587890625,10.019088745117188,0.4126211702823639,1.6426993608474731
1772788814388250400,2.67525048828125,10.004715919494629,0.5174233913421631,1.6235356330871582
1772788814408348000,2.695347900390625,9.78732681274414,0.4365759789943695,1.613953709602356
1772788814428445700,2.71544580078125,10.066399574279785,0.4509488344192505,1.6714451313018799
1772788814468641000,2.75564111328125,9.947823524475098,0.4509488344192505,1.647490382194519
1772788814488738600,2.775738525390625,9.980761528015137,0.417412132024765,1.5995807647705078
1772788814508836400,2.79583642578125,9.905303955078125,0.4509488344192505,1.6145524978637695
1772788814549031400,2.836031494140625,9.938840866088867,0.47430476546287537,1.6049705743789673
1772788814569129200,2.856129150390625,9.962196350097656,0.4647228419780731,1.6289254426956177
1772788814589226800,2.876226806640625,9.976569175720215,0.44555899500846863,1.6049705743789673
1772788814609324500,2.896324462890625,9.976569175720215,0.4647228419780731,1.600179672241211
1772788814629422000,2.916422119140625,9.957405090332031,0.4551409184932709,1.63850736618042
1772788814649519900,2.936519775390625,9.943631172180176,0.4838866591453552,1.600179672241211
1772788814669617400,2.956617431640625,9.9484224319458,0.44555899500846863,1.6097615957260132
1772788814689715700,2.9767158203125,9.976569175720215,0.4216042160987854,1.600179672241211
1772788814709813800,2.996813720703125,9.976569175720215,0.46053075790405273,1.5852079391479492
1772788814750010000,3.037010009765625,9.957405090332031,0.44615787267684937,1.5995807647705078
1772788814770108400,3.0571083984375,9.952614784240723,0.4701126515865326,1.6187446117401123
1772788814790206500,3.07720654296875,10.075383186340332,0.42699405550956726,1.6379084587097168
1772788814810304800,3.0973046875,9.772953987121582,0.48448553681373596,1.5325074195861816
1772788814850501000,3.137501220703125,9.947823524475098,0.4892764985561371,1.5804169178009033
1772788814870599200,3.15759912109375,9.924468040466309,0.46532171964645386,1.633117437362671
1772788814890697500,3.177697509765625,9.99034309387207,0.4509488344192505,1.5899988412857056
1772788814910795500,3.19779541015625,9.910094261169434,0.4365759789943695,1.5852079391479492
1772788814930893800,3.217893798828125,9.957405090332031,0.4749036133289337,1.5941909551620483
1772788814950992000,3.237991943359375,9.943032264709473,0.46053075790405273,1.589400053024292
1772788814971090200,3.258090087890625,9.957405090332031,0.4365759789943695,1.5750271081924438
1772788814991188200,3.278188232421875,9.962196350097656,0.4365759789943695,1.584609031677246
1772788815011286500,3.29828662109375,9.957405090332031,0.46053075790405273,1.5989819765090942
1772788815031384600,3.318384521484375,9.957405090332031,0.4509488344192505,1.6037728786468506
1772788815051483000,3.33848291015625,9.966388702392578,0.44136691093444824,1.5989819765090942
1772788815071581000,3.358580810546875,9.943032264709473,0.46053075790405273,1.5989819765090942
1772788815091679200,3.37867919921875,9.938241958618164,0.4701126515865326,1.5989819765090942
1772788815111777300,3.39877734375,9.943032264709473,0.4749036133289337,1.6133548021316528
1772788815131875600,3.41887548828125,9.966987609863281,0.46532171964645386,1.5989819765090942
1772788815151973600,3.4389736328125,9.975970268249512,0.4557397961616516,1.584609031677246
1772788815172072000,3.459072021484375,10.009507179260254,0.4365759789943695,1.5941909551620483
1772788815192170500,3.47917041015625,9.99034309387207,0.46532171964645386,1.5654451847076416
1772788815212269000,3.49926904296875,9.791518211364746,0.42699405550956726,1.5414904356002808
1772788815232367400,3.519367431640625,10.061009407043457,0.46053075790405273,1.5989819765090942
1772788815272564500,3.559564453125,9.985551834106445,0.46532171964645386,1.6277276277542114
1772788815292663000,3.5796630859375,9.938241958618164,0.46532171964645386,1.589400053024292
1772788815312761300,3.59976123046875,9.947823524475098,0.47969457507133484,1.5750271081924438
1772788815332860000,3.61985986328125,9.952614784240723,0.4509488344192505,1.589400053024292
1772788815352958500,3.63995849609375,9.943032264709473,0.4557397961616516,1.5798181295394897
1772788815373057000,3.66005712890625,9.985551834106445,0.4509488344192505,1.5702362060546875
1772788815393155300,3.6801552734375,9.947823524475098,0.4365759789943695,1.5750271081924438
1772788815413254000,3.70025390625,9.966388702392578,0.4365759789943695,1.5702362060546875
1772788815433352400,3.7203525390625,9.962196350097656,0.48448553681373596,1.584609031677246
1772788815453450800,3.74045068359375,9.980761528015137,0.46532171964645386,1.5989819765090942
1772788815493648000,3.78064794921875,9.943032264709473,0.43238386511802673,1.5989819765090942
1772788815513746400,3.800746337890625,9.957405090332031,0.43717482686042786,1.6037728786468506
1772788815553943300,3.840943359375,9.952614784240723,0.43717482686042786,1.5366995334625244
1772788815574041900,3.861041748046875,9.956806182861328,0.3701014220714569,1.622337818145752
1772788815594140400,3.881140380859375,9.980761528015137,0.3940562307834625,1.6127558946609497
1772788815614238700,3.90123876953125,10.028072357177734,0.4850844144821167,1.5504734516143799
1772788815634337300,3.921337158203125,9.748998641967773,0.5042482614517212,1.4839990139007568
1772788815654435800,3.941435791015625,10.089157104492188,0.43717482686042786,1.622337818145752
1772788815674534700,3.96153466796875,9.956806182861328,0.4611296057701111,1.5600553750991821
1772788815694634200,3.98163427734375,9.914286613464355,0.39884716272354126,1.6181457042694092
1772788815734833400,4.02183349609375,9.9005126953125,0.4892764985561371,1.4696260690689087
1772788815754933000,4.04193310546875,9.971179008483887,0.39884716272354126,1.4839990139007568
1772788815775032600,4.062032470703125,9.975970268249512,0.2700901925563812,1.5702362060546875
1772788815795132000,4.0821318359375,9.952614784240723,0.3892652690410614,1.589400053024292
1772788815815231500,4.1022314453125,9.956806182861328,0.5515589118003845,1.5606542825698853
1772788815835331000,4.1223310546875,9.910094261169434,0.5803046822547913,1.5654451847076416
1772788815855430700,4.1424306640625,9.91907787322998,0.7282254695892334,1.4935808181762695
1772788815875530200,4.1625302734375,9.881348609924316,0.4940674602985382,1.5989819765090942
1772788815895629800,4.1826298828125,9.947823524475098,0.25571733713150024,1.7373207807540894
1772788815915729200,4.202729248046875,9.943032264709473,0.4802934527397156,1.512744665145874
1772788815935828700,4.222828857421875,9.862784385681152,0.5228132009506226,1.421716570854187
1772788815955928300,4.24292822265625,9.914286613464355,0.2892540395259857,1.6654564142227173
1772788815976028000,4.26302783203125,9.999326705932617,0.4084290862083435,1.6031739711761475
1772788815996127500,4.28312744140625,9.928659439086914,0.5755137205123901,1.4360893964767456
1772788816016227000,4.30322705078125,9.866975784301758,0.41322004795074463,1.5408915281295776
1772788816036326700,4.32332666015625,9.886139869689941,0.31799978017807007,1.512744665145874
1772788816056426000,4.343426025390625,9.876558303833008,0.4036381244659424,1.4935808181762695
1772788816076525600,4.363525634765625,9.933450698852539,0.2078077644109726,1.694202184677124
1772788816096625200,4.383625244140625,10.098738670349121,0.19822585582733154,1.803795337677002
1772788816116724700,4.403724853515625,9.994535446166992,0.63779616355896,1.7223490476608276
1772788816136824300,4.42382421875,9.980761528015137,0.8479993939399719,1.693603277206421
1772788816156924000,4.443923828125,10.013699531555176,0.9671744704246521,1.6552757024765015
1772788816197120500,4.48412060546875,9.753789901733398,-0.1311524510383606,1.0396376848220825
1772788816217218600,4.504218505859375,9.938241958618164,0.0928247943520546,1.5031627416610718
1772788816237316900,4.52431689453125,9.957405090332031,0.6282142400741577,1.6462926864624023
1772788816257415200,4.544415283203125,10.084964752197266,0.43238386511802673,1.7564846277236938
1772788816277513200,4.56451318359375,9.735224723815918,0.1886439323425293,1.5558632612228394
1772788816297611500,4.584611572265625,9.578919410705566,0.3269828259944916,1.1156941652297974
1772788816317709800,4.604709716796875,9.966388702392578,0.12636148929595947,1.3881797790527344
1772788816337808000,4.624807861328125,10.042445182800293,0.026350263506174088,2.1199984550476074
1772788816357906200,4.64490625,9.848411560058594,0.3940562307834625,2.506868362426758
1772788816378004200,4.665004150390625,9.95201587677002,0.8240446448326111,2.5398061275482178
1772788816398102500,4.6851025390625,9.866975784301758,0.8863270878791809,2.3775124549865723
1772788816418200600,4.70520068359375,9.814874649047852,0.6904966831207275,2.3248119354248047
1772788816438299000,4.725298828125,10.004117012023926,0.8240446448326111,2.5877156257629395
1772788816458397200,4.745397216796875,9.980761528015137,1.1731855869293213,2.9075121879577637
1772788816478495200,4.7654951171875,9.909496307373047,1.1875585317611694,2.85002064704895
1772788816518691800,4.80569189453125,9.781936645507812,1.3546431064605713,2.926675796508789
1772788816538790000,4.825789794921875,9.928659439086914,1.273196816444397,2.9506306648254395
1772788816558888200,4.84588818359375,10.089157104492188,1.0396376848220825,2.6589810848236084
1772788816578986200,4.865986328125,9.73941707611084,1.067185640335083,2.425421953201294
1772788816599084500,4.88608447265625,9.611857414245605,0.9767563939094543,2.5978965759277344
1772788816619182800,4.906182861328125,9.853201866149902,0.6707339882850647,2.8416364192962646
1772788816639281000,4.926281005859375,10.056219100952148,0.8426095843315125,2.755998134613037
1772788816659379200,4.946379150390625,10.349664688110352,1.2917617559432983,3.8459408283233643
1772788816679477000,4.96647705078125,9.820263862609863,0.89531010389328,3.2530598640441895
1772788816699574800,4.98657470703125,9.768162727355957,0.21738967299461365,2.254145383834839
1772788816719672600,5.006672607421875,9.702286720275879,0.10240671038627625,1.7139649391174316
1772788816739770400,5.026770263671875,10.160422325134277,0.18385298550128937,1.7427105903625488
1772788816759868200,5.0468681640625,10.278399467468262,0.30302804708480835,2.039151191711426
1772788816779966000,5.066966064453125,9.696897506713867,0.4467567503452301,1.980461835861206
1772788816800063700,5.087063720703125,9.631021499633789,0.4850844144821167,1.6648576259613037
1772788816820161500,5.10716162109375,9.871767044067383,0.33237263560295105,1.454654335975647
1772788816840259000,5.127259033203125,9.966388702392578,0.31320881843566895,1.5504734516143799
1772788816860356900,5.14735693359375,9.805891036987305,0.399446040391922,1.693603277206421
1772788816880454700,5.16745458984375,9.8526029586792,0.43238386511802673,1.6792304515838623
1772788816900552400,5.187552490234375,9.91907787322998,0.3946550786495209,1.693603277206421
1772788816920650200,5.207650146484375,9.871767044067383,0.4659205675125122,1.597784161567688
1772788816940748000,5.227748046875,9.866975784301758,0.43238386511802673,1.5163378715515137
1772788816960845800,5.247845703125,9.923869132995605,0.2419433295726776,1.6169480085372925
1772788816980943600,5.267943603515625,9.984953880310059,0.3419545590877533,1.636111855506897
1772788817001041400,5.28804150390625,9.890931129455566,0.5761125683784485,1.492982029914856
1772788817021139200,5.30813916015625,9.881348609924316,0.4467567503452301,1.4450724124908447
1772788817041237000,5.328237060546875,9.95201587677002,0.2892540395259857,1.5313096046447754
1772788817061334800,5.348334716796875,9.933450698852539,0.427592933177948,1.5217278003692627
1772788817081432600,5.3684326171875,9.914286613464355,0.5904854536056519,1.5025639533996582
1772788817101530000,5.388530029296875,9.881348609924316,0.5713216066360474,1.526518702507019
1772788817121628000,5.4086279296875,9.91907787322998,0.37070029973983765,1.5834113359451294
1772788817141725700,5.4287255859375,10.018489837646484,0.31320881843566895,1.5786203145980835
1772788817161823500,5.448823486328125,9.91907787322998,0.5186210870742798,1.4690271615982056
1772788817181921800,5.468921875,9.933450698852539,0.5042482614517212,1.4977729320526123
1772788817202020400,5.489020263671875,9.956806182861328,0.2652992606163025,1.5834113359451294
1772788817222119000,5.509118896484375,9.947224617004395,0.2892540395259857,1.4786090850830078
1772788817242217200,5.52921728515625,10.013699531555176,0.4850844144821167,1.4834001064300537
1772788817262315800,5.549315673828125,9.91907787322998,0.47550249099731445,1.5121458768844604
1772788817282414300,5.569414306640625,9.975970268249512,0.3275817036628723,1.5834113359451294
1772788817302512600,5.5895126953125,9.984953880310059,0.43717482686042786,1.540292739868164
1772788817322611200,5.609611083984375,10.00890827178955,0.4659205675125122,1.5594565868377686
1772788817342709800,5.629709716796875,9.899913787841797,0.4234008193016052,1.5307108163833618
1772788817362808000,5.64980810546875,9.923869132995605,0.385073184967041,1.5307108163833618
1772788817382906600,5.66990673828125,10.04184627532959,0.4425646662712097,1.5546655654907227
1772788817403005200,5.690005126953125,10.061009407043457,0.4234008193016052,1.525919795036316
1772788817423103500,5.710103515625,9.81966495513916,0.43298274278640747,1.4492645263671875
1772788817443202000,5.7302021484375,9.999326705932617,0.3946550786495209,1.4875922203063965
1772788817463300600,5.750300537109375,10.136466979980469,0.35632744431495667,1.5546655654907227
1772788817503497500,5.79049755859375,9.928060531616211,0.4569375216960907,1.434891700744629
1772788817523596000,5.810595947265625,10.022682189941406,0.43298274278640747,1.4971741437911987
1772788817543694300,5.8306943359375,9.947224617004395,0.41381892561912537,1.4971741437911987
1772788817583891500,5.870891357421875,9.980761528015137,0.427592933177948,1.492982029914856
1772788817603989800,5.89098974609375,9.980761528015137,0.4228019714355469,1.492982029914856
1772788817624088300,5.91108837890625,10.028072357177734,0.43717482686042786,1.492982029914856
1772788817644187000,5.931186767578125,9.904705047607422,0.47550249099731445,1.4498634338378906
1772788817684383200,5.97138330078125,9.999326705932617,0.4228019714355469,1.4786090850830078
1772788817704481000,5.99148095703125,9.933450698852539,0.4228019714355469,1.4738181829452515
1772788817724578800,6.011578857421875,9.994535446166992,0.41322004795074463,1.4642362594604492
1772788817744676900,6.0316767578125,9.947823524475098,0.441965788602829,1.4600441455841064
1772788817784872400,6.07187255859375,9.975970268249512,0.427592933177948,1.492982029914856
1772788817825068300,6.112068359375,9.975970268249512,0.43238386511802673,1.4834001064300537
1772788817845166000,6.132166015625,9.984953880310059,0.41322004795074463,1.4738181829452515
1772788817885361700,6.172361572265625,9.984953880310059,0.43238386511802673,1.4786090850830078
1772788817905459700,6.192459716796875,9.975970268249512,0.43238386511802673,1.4738181829452515
1772788817925557500,6.2125576171875,9.971179008483887,0.4228019714355469,1.48819100856781
1772788817945655300,6.2326552734375,10.018489837646484,0.4228019714355469,1.5073548555374146
1772788817965753000,6.252753173828125,9.94243335723877,0.4467567503452301,1.4594453573226929
1772788817985851100,6.27285107421875,9.909496307373047,0.41322004795074463,1.4450724124908447
1772788818005949000,6.292948974609375,10.013699531555176,0.4036381244659424,1.5169367790222168
1772788818026046700,6.313046630859375,9.933450698852539,0.4515477120876312,1.4642362594604492
1772788818046144800,6.333144775390625,9.985551834106445,0.43717482686042786,1.45525324344635
1772788818066242600,6.35324267578125,9.956806182861328,0.427592933177948,1.45525324344635
1772788818086340400,6.37334033203125,9.971179008483887,0.4084290862083435,1.479207992553711
1772788818106438100,6.393438232421875,9.99034309387207,0.43238386511802673,1.4504622220993042
1772788818126536200,6.4135361328125,9.99034309387207,0.41801100969314575,1.4696260690689087
1772788818146634000,6.433634033203125,9.980761528015137,0.41801100969314575,1.4648351669311523
1772788818166731800,6.453731689453125,9.966388702392578,0.41322004795074463,1.4504622220993042
1772788818186830800,6.473830810546875,9.980162620544434,0.42819178104400635,1.468428373336792
1772788818206929700,6.4939296875,9.970580101013184,0.43298274278640747,1.4780102968215942
1772788818227028500,6.514028564453125,9.980162620544434,0.4186098873615265,1.463637351989746
1772788818247127300,6.534127197265625,9.984953880310059,0.4377737045288086,1.4588464498519897
1772788818267226400,6.554226318359375,9.980162620544434,0.42819178104400635,1.4678294658660889
1772788818287325200,6.5743251953125,9.989744186401367,0.4186098873615265,1.443874716758728
1772788818307424000,6.594424072265625,9.96099853515625,0.4186098873615265,1.4486656188964844
1772788818327522800,6.614522705078125,9.965789794921875,0.40902796387672424,1.4534566402435303
1772788818347622000,6.634621826171875,9.984953880310059,0.4234008193016052,1.4582475423812866
1772788818367720700,6.654720703125,9.975371360778809,0.4377737045288086,1.4534566402435303
1772788818387819500,6.674819580078125,9.985551834106445,0.42699405550956726,1.4606430530548096
1772788818407918300,6.69491845703125,9.99992561340332,0.40783020853996277,1.4702249765396118
1772788818428017400,6.715017333984375,9.99034309387207,0.4317850172519684,1.4606430530548096
1772788818468215000,6.755215087890625,9.957405090332031,0.417412132024765,1.4612419605255127
1772788818488313900,6.77531396484375,9.985551834106445,0.42220309376716614,1.4516600370407104
1772788818508412700,6.79541259765625,9.99034309387207,0.42699405550956726,1.4468690156936646
1772788818528511500,6.815511474609375,9.961597442626953,0.41322004795074463,1.4642362594604492
1772788818568707600,6.85570751953125,9.995134353637695,0.41801100969314575,1.4744170904159546
1772788818588805400,6.875805419921875,10.075383186340332,0.39884716272354126,1.503761649131775
1772788818608903400,6.8959033203125,9.834636688232422,0.4940674602985382,1.374405860900879
1772788818629001500,6.91600146484375,10.009507179260254,0.4126211702823639,1.4845978021621704
1772788818669198300,6.9561982421875,9.910094261169434,0.40783020853996277,1.504360556602478
1772788818709404700,6.99640478515625,9.938840866088867,0.41202232241630554,1.4810045957565308
1772788818729507800,7.0165078125,9.976569175720215,0.4072313606739044,1.4289029836654663
1772788818749611000,7.036611083984375,9.966388702392578,0.427592933177948,1.4600441455841064
1772788818789817600,7.076817626953125,9.980761528015137,0.41322004795074463,1.45525324344635
1772788818809920800,7.096920654296875,9.99992561340332,0.41801100969314575,1.4504622220993042
1772788818830024000,7.11702392578125,9.99034309387207,0.43238386511802673,1.4600441455841064
1772788818870230000,7.15722998046875,9.975970268249512,0.43238386511802673,1.45525324344635
1772788818890333200,7.177333251953125,9.971179008483887,0.4228019714355469,1.45525324344635
1772788818910436600,7.1974365234375,9.980761528015137,0.4084290862083435,1.4600441455841064
1772788818930539800,7.217539794921875,9.971179008483887,0.4036381244659424,1.45525324344635
1772788818950643000,7.237642822265625,9.985551834106445,0.427592933177948,1.4504622220993042
1772788818970746000,7.25774609375,9.995134353637695,0.441965788602829,1.4360893964767456
1772788818990849300,7.277849365234375,9.995134353637695,0.427592933177948,1.440880298614502
1772788819010952400,7.297952392578125,9.971179008483887,0.43717482686042786,1.45525324344635
1772788819031055600,7.3180556640625,9.980761528015137,0.4228019714355469,1.4744170904159546
1772788819071262000,7.358261962890625,9.971179008483887,0.427592933177948,1.4456713199615479
1772788819091365000,7.378365234375,9.975970268249512,0.43238386511802673,1.440880298614502
1772788819111468300,7.39846826171875,9.975970268249512,0.427592933177948,1.4456713199615479
1772788819131571500,7.418571533203125,9.980761528015137,0.427592933177948,1.4312983751296997
1772788819151674600,7.438674560546875,9.99034309387207,0.43717482686042786,1.4600441455841064
1772788819171776000,7.45877587890625,9.99034309387207,0.43238386511802673,1.4456713199615479
1772788819191874000,7.4788740234375,9.980761528015137,0.4228019714355469,1.4456713199615479
1772788819211972000,7.49897216796875,9.975970268249512,0.4228019714355469,1.440880298614502
1772788819232070100,7.519070068359375,9.966388702392578,0.43238386511802673,1.4600441455841064
1772788819252168200,7.539168212890625,9.985551834106445,0.441965788602829,1.4456713199615479
1772788819272266200,7.559266357421875,9.980761528015137,0.427592933177948,1.4265074729919434
1772788819292364000,7.579364013671875,9.99034309387207,0.41322004795074463,1.440880298614502
1772788819332560100,7.61956005859375,9.985551834106445,0.427592933177948,1.4360893964767456
1772788819352658200,7.639658203125,9.985551834106445,0.43717482686042786,1.4360893964767456
1772788819372756200,7.659756103515625,9.975970268249512,0.43238386511802673,1.4360893964767456
1772788819412952300,7.699952392578125,9.994535446166992,0.4228019714355469,1.4450724124908447
1772788819433050400,7.72005029296875,9.999326705932617,0.4228019714355469,1.4306995868682861
1772788819453148400,7.7401484375,9.975970268249512,0.4036381244659424,1.4306995868682861
1772788819473246200,7.76024609375,9.961597442626953,0.427592933177948,1.4498634338378906
1772788819513442300,7.8004423828125,9.971179008483887,0.43238386511802673,1.4450724124908447
1772788819553638400,7.840638427734375,9.980761528015137,0.4084290862083435,1.4504622220993042
1772788819573736400,7.860736328125,9.971179008483887,0.41801100969314575,1.4504622220993042
1772788819593834500,7.88083447265625,9.99034309387207,0.41322004795074463,1.4600441455841064
1772788819613932500,7.9009326171875,9.985551834106445,0.4084290862083435,1.441479206085205
1772788819634030600,7.921030517578125,9.980761528015137,0.4084290862083435,1.446270227432251
1772788819654128600,7.941128662109375,9.985551834106445,0.4084290862083435,1.4366883039474487
1772788819674226000,7.961225830078125,9.985551834106445,0.42699405550956726,1.4366883039474487
1772788819694322200,7.981322265625,9.99034309387207,0.4126211702823639,1.4510611295700073
1772788819714418700,8.001418701171875,9.971179008483887,0.44615787267684937,1.4510611295700073
1772788819734515200,8.02151513671875,9.99034309387207,0.44615787267684937,1.4702249765396118
1772788819754611700,8.04161181640625,10.11311149597168,0.3982483148574829,1.4606430530548096
1772788819774708200,8.061708251953124,9.725643157958984,0.46053075790405273,1.3606318235397339
1772788819794804500,8.081804443359376,10.146648406982422,0.40783020853996277,1.4612419605255127
1772788819814901000,8.10190087890625,9.919676780700684,0.44136691093444824,1.4229142665863037
1772788819834997500,8.12199755859375,9.995134353637695,0.417412132024765,1.4468690156936646
1772788819855093800,8.14209375,10.014298439025879,0.44615787267684937,1.4372870922088623
1772788819875190300,8.162190185546875,9.97177791595459,0.3982483148574829,1.4420781135559082
1772788819895286800,8.182286865234374,9.995134353637695,0.40303927659988403,1.4516600370407104
1772788819915383300,8.20238330078125,9.962196350097656,0.4317850172519684,1.4420781135559082
1772788819935479600,8.2224794921875,10.014298439025879,0.44555899500846863,1.452258825302124
1772788819955576000,8.242576171875,9.961597442626953,0.41801100969314575,1.4312983751296997
1772788819975672600,8.262672607421875,9.966388702392578,0.427592933177948,1.421716570854187
1772788819995769000,8.28276904296875,9.995134353637695,0.4036381244659424,1.4265074729919434
1772788820015865600,8.302865478515624,9.99034309387207,0.43238386511802673,1.4360893964767456
1772788820035961900,8.3229619140625,9.975970268249512,0.441965788602829,1.440880298614502
1772788820056058400,8.343058349609375,9.999326705932617,0.41801100969314575,1.4456713199615479
1772788820076155000,8.36315478515625,9.999326705932617,0.41801100969314575,1.440880298614502
1772788820096251400,8.38325146484375,9.980761528015137,0.43238386511802673,1.4450724124908447
1772788820116347600,8.40334765625,9.985551834106445,0.41801100969314575,1.4306995868682861
1772788820136444200,8.423444091796876,9.985551834106445,0.4036381244659424,1.4306995868682861
1772788820156540700,8.443540771484376,9.995134353637695,0.4036381244659424,1.441479206085205
1772788820176636700,8.46363671875,9.971179008483887,0.41801100969314575,1.441479206085205
1772788820196732700,8.483732666015625,9.975970268249512,0.41801100969314575,1.4271063804626465
1772788820216828700,8.50382861328125,9.980761528015137,0.427592933177948,1.4223153591156006
1772788820236924700,8.523924560546876,9.995134353637695,0.427592933177948,1.4271063804626465
1772788820257020700,8.544020751953125,9.99034309387207,0.427592933177948,1.441479206085205
1772788820277116400,8.564116455078125,9.975970268249512,0.4317850172519684,1.4223153591156006
1772788820297212400,8.58421240234375,9.980761528015137,0.4317850172519684,1.4271063804626465
1772788820317308400,8.604308349609376,9.980761528015137,0.41801100969314575,1.4318972826004028
1772788820337404400,8.624404296875,9.980761528015137,0.417412132024765,1.4223153591156006
1772788820357500400,8.64450048828125,9.957405090332031,0.42699405550956726,1.4223153591156006
1772788820377596200,8.66459619140625,9.957405090332031,0.44136691093444824,1.441479206085205
1772788820397692200,8.684692138671876,9.995134353637695,0.42220309376716614,1.4366883039474487
1772788820417788200,8.7047880859375,9.97177791595459,0.42220309376716614,1.432496190071106
1772788820437884200,8.72488427734375,9.980761528015137,0.417412132024765,1.4516600370407104
1772788820457980200,8.744980224609375,9.995134353637695,0.40783020853996277,1.432496190071106
1772788820478076000,8.765075927734374,9.976569175720215,0.4317850172519684,1.4181232452392578
1772788820498172000,8.785171875,9.995134353637695,0.417412132024765,1.42770516872406
1772788820518268000,8.805267822265625,9.976569175720215,0.4126211702823639,1.432496190071106
1772788820538364000,8.825364013671875,9.971179008483887,0.44136691093444824,1.4271063804626465
1772788820558460000,8.8454599609375,9.971179008483887,0.4228019714355469,1.4318972826004028
1772788820578555600,8.8655556640625,9.961597442626953,0.41801100969314575,1.4318972826004028
1772788820598651600,8.885651611328125,9.975970268249512,0.41801100969314575,1.4360893964767456
1772788820618747600,8.90574755859375,9.995134353637695,0.41322004795074463,1.4360893964767456
1772788820638843600,8.92584375,9.985551834106445,0.43238386511802673,1.440880298614502
1772788820658939600,8.945939697265626,9.99034309387207,0.41801100969314575,1.4169255495071411
1772788820679036400,8.966036376953125,9.975970268249512,0.4084290862083435,1.421716570854187
1772788820699134200,8.98613427734375,9.980761528015137,0.43238386511802673,1.440880298614502
1772788820719231700,9.006231689453125,9.999326705932617,0.4228019714355469,1.4169255495071411
1772788820739329300,9.026329345703125,9.985551834106445,0.41801100969314575,1.4223153591156006
1772788820759426800,9.0464267578125,9.971179008483887,0.43717482686042786,1.4366883039474487
1772788820779524400,9.0665244140625,9.980761528015137,0.41801100969314575,1.4271063804626465
1772788820799622000,9.086621826171875,9.995134353637695,0.427592933177948,1.4318972826004028
1772788820819719400,9.106719482421875,9.971179008483887,0.39884716272354126,1.4271063804626465
1772788820839817000,9.12681689453125,9.971179008483887,0.41801100969314575,1.4271063804626465
1772788820859914500,9.14691455078125,9.980761528015137,0.43238386511802673,1.4271063804626465
1772788820880012000,9.167011962890625,9.995134353637695,0.41801100969314575,1.4318972826004028
1772788820900109600,9.187109619140625,9.985551834106445,0.427592933177948,1.4318972826004028
1772788820920207000,9.20720703125,9.975970268249512,0.43238386511802673,1.4175244569778442
1772788820940304600,9.2273046875,9.952614784240723,0.4228019714355469,1.4318972826004028
1772788820960402200,9.247402099609374,9.980761528015137,0.41322004795074463,1.4271063804626465
1772788820980499700,9.267499755859374,9.980761528015137,0.41801100969314575,1.4223153591156006
1772788821000597200,9.28759716796875,9.962196350097656,0.41322004795074463,1.4271063804626465
1772788821020694800,9.30769482421875,9.99034309387207,0.4036381244659424,1.4223153591156006
1772788821040792300,9.327792236328126,9.966388702392578,0.44136691093444824,1.4223153591156006
1772788821060889900,9.347889892578126,9.966388702392578,0.42699405550956726,1.4271063804626465
1772788821080987400,9.3679873046875,9.980761528015137,0.39884716272354126,1.4223153591156006
1772788821101085000,9.3880849609375,9.971179008483887,0.41322004795074463,1.4271063804626465
1772788821121182500,9.408182373046875,9.99034309387207,0.42220309376716614,1.4271063804626465
1772788821141280000,9.428280029296875,9.980761528015137,0.4036381244659424,1.4265074729919434
1772788821161377500,9.44837744140625,9.971179008483887,0.41801100969314575,1.4121346473693848
1772788821181475800,9.468475830078125,9.985551834106445,0.41801100969314575,1.4121346473693848
1772788821201574400,9.488574462890625,9.966388702392578,0.4084290862083435,1.421716570854187
1772788821221673000,9.5086728515625,9.999326705932617,0.41801100969314575,1.4648351669311523
1772788821241771500,9.528771484375,10.075383186340332,0.441965788602829,1.4121346473693848
1772788821261869800,9.548869873046876,9.744207382202148,0.43238386511802673,1.3690159320831299
1772788821281968400,9.568968505859376,10.136466979980469,0.37968334555625916,1.4456713199615479
1772788821302067000,9.58906689453125,9.871767044067383,0.4084290862083435,1.421716570854187
1772788821322165500,9.60916552734375,10.018489837646484,0.43717482686042786,1.4312983751296997
1772788821342263800,9.629263916015624,9.971179008483887,0.4228019714355469,1.4169255495071411
1772788821362362400,9.6493623046875,9.971179008483887,0.441965788602829,1.4265074729919434
1772788821382461000,9.6694609375,9.975970268249512,0.427592933177948,1.4169255495071411
1772788821402559500,9.6895595703125,9.975970268249512,0.427592933177948,1.4169255495071411
1772788821422657800,9.70965771484375,10.004117012023926,0.4036381244659424,1.421716570854187
1772788821442756400,9.72975634765625,9.957405090332031,0.41801100969314575,1.421716570854187
1772788821462855000,9.74985498046875,9.99034309387207,0.43238386511802673,1.4312983751296997
1772788821482953500,9.769953369140625,9.966388702392578,0.41801100969314575,1.4312983751296997
1772788821503051800,9.7900517578125,9.985551834106445,0.41322004795074463,1.421716570854187
1772788821523150300,9.810150390625,9.971179008483887,0.41322004795074463,1.4121346473693848
1772788821543249000,9.830248779296875,9.985551834106445,0.4228019714355469,1.4259085655212402
1772788821583446000,9.870446044921875,9.971179008483887,0.43238386511802673,1.416326642036438
1772788821623643000,9.910642822265626,9.980761528015137,0.4186098873615265,1.4211176633834839
1772788821643741400,9.930741455078126,9.980162620544434,0.40902796387672424,1.4211176633834839
1772788821663839700,9.95083984375,9.989744186401367,0.41381892561912537,1.4211176633834839
1772788821683938600,9.9709384765625,9.975970268249512,0.4042370021343231,1.4157278537750244
1772788821704037400,9.991037353515624,9.95201587677002,0.385073184967041,1.4205187559127808
1772788821724136000,10.011135986328124,9.95201587677002,0.43298274278640747,1.4061459302902222
1772788821744234800,10.03123486328125,9.947224617004395,0.39884716272354126,1.4115357398986816
1772788821764333600,10.05133349609375,9.966388702392578,0.41322004795074463,1.416326642036438
1772788821784432000,10.07143212890625,9.975970268249512,0.4228019714355469,1.4067447185516357
1772788821804531000,10.091531005859375,9.971179008483887,0.41801100969314575,1.416326642036438
1772788821824629800,10.111629638671875,9.971179008483887,0.41801100969314575,1.416326642036438
1772788821844728300,10.131728271484375,9.971179008483887,0.427592933177948,1.416326642036438
1772788821864827100,10.1518271484375,9.975970268249512,0.4228019714355469,1.416326642036438
1772788821884925700,10.17192578125,9.966388702392578,0.4084290862083435,1.4067447185516357
1772788821905024500,10.1920244140625,9.971179008483887,0.4084290862083435,1.4211176633834839
1772788821925123300,10.212123291015626,9.966388702392578,0.4084290862083435,1.4211176633834839
1772788821945222000,10.232221923828124,9.966388702392578,0.399446040391922,1.4115357398986816
1772788821965320700,10.25232080078125,9.984953880310059,0.4186098873615265,1.4259085655212402
1772788821985419500,10.27241943359375,9.975970268249512,0.41381892561912537,1.416326642036438
1772788822025617000,10.312616943359375,9.956806182861328,0.42819178104400635,1.4115357398986816
1772788822045715700,10.3327158203125,9.95201587677002,0.4186098873615265,1.4067447185516357
1772788822065814300,10.352814208984375,9.956806182861328,0.4234008193016052,1.416326642036438
1772788822085913000,10.3729130859375,9.961597442626953,0.40902796387672424,1.4211176633834839
1772788822106012000,10.393011962890625,9.971179008483887,0.41381892561912537,1.416326642036438
1772788822126110500,10.4131103515625,9.966388702392578,0.4234008193016052,1.4115357398986816
1772788822146209300,10.433209228515626,9.956806182861328,0.40902796387672424,1.416326642036438
1772788822166307800,10.453307861328126,9.961597442626953,0.4186098873615265,1.416326642036438
1772788822186407000,10.473406982421874,9.984953880310059,0.41381892561912537,1.4115357398986816
1772788822206506000,10.493506103515625,9.975970268249512,0.40902796387672424,1.4259085655212402
1772788822226605000,10.51360498046875,9.980162620544434,0.4377737045288086,1.4259085655212402
1772788822246704000,10.5337041015625,9.961597442626953,0.43298274278640747,1.4211176633834839
1772788822266803200,10.55380322265625,9.975970268249512,0.4234008193016052,1.416326642036438
1772788822286902300,10.57390234375,9.989744186401367,0.4186098873615265,1.4067447185516357
1772788822307001000,10.5940009765625,9.956806182861328,0.4234008193016052,1.4115357398986816
1772788822327100200,10.61410009765625,9.971179008483887,0.43298274278640747,1.4019538164138794
1772788822347199200,10.63419921875,9.984953880310059,0.4186098873615265,1.397162914276123
1772788822367298300,10.65429833984375,9.971179008483887,0.40902796387672424,1.4115357398986816
1772788822387397400,10.6743974609375,9.980162620544434,0.41381892561912537,1.4211176633834839
1772788822407496400,10.694496337890625,9.971179008483887,0.43298274278640747,1.4211176633834839
1772788822427595300,10.71459521484375,9.956806182861328,0.4234008193016052,1.416326642036438
1772788822447694300,10.7346943359375,9.966388702392578,0.43298274278640747,1.4019538164138794
1772788822467793400,10.75479345703125,9.975970268249512,0.4234008193016052,1.4067447185516357
1772788822487892500,10.774892578125,9.984953880310059,0.4186098873615265,1.416326642036438
1772788822507991600,10.794991455078126,9.989744186401367,0.4042370021343231,1.4115357398986816
1772788822548189400,10.835189453125,9.980162620544434,0.40902796387672424,1.39656400680542
1772788822568288500,10.85528857421875,9.980162620544434,0.38986414670944214,1.4061459302902222
1772788822588387600,10.8753876953125,9.961597442626953,0.41381892561912537,1.4157278537750244
1772788822608486700,10.895486572265625,9.970580101013184,0.41381892561912537,1.4205187559127808
1772788822628585500,10.91558544921875,9.956806182861328,0.4042370021343231,1.4013549089431763
1772788822648684500,10.9356845703125,9.961597442626953,0.4186098873615265,1.4013549089431763
1772788822668783600,10.95578369140625,9.989744186401367,0.42819178104400635,1.4157278537750244
1772788822688882400,10.97588232421875,9.961597442626953,0.4186098873615265,1.4157278537750244
1772788822708981200,10.995981201171874,9.961597442626953,0.4425646662712097,1.4109368324279785
1772788822729079800,11.016079833984374,9.956806182861328,0.41381892561912537,1.4061459302902222
1772788822749178600,11.0361787109375,9.947224617004395,0.399446040391922,1.410338044166565
1772788822789376300,11.076376220703125,9.970580101013184,0.4234008193016052,1.410338044166565
1772788822809475000,11.09647509765625,9.965789794921875,0.41381892561912537,1.410338044166565
1772788822829574000,11.116573974609375,9.980162620544434,0.41381892561912537,1.410338044166565
1772788822869771300,11.156771240234375,9.95201587677002,0.42819178104400635,1.405547022819519
1772788822909969000,11.196968994140626,9.956207275390625,0.4287906587123871,1.4151289463043213
1772788822930067700,11.217067626953124,9.993936538696289,0.4144177734851837,1.410338044166565
1772788822950166500,11.23716650390625,9.980162620544434,0.399446040391922,1.4157278537750244
1772788822990364000,11.277364013671875,9.966388702392578,0.43298274278640747,1.4013549089431763
1772788823010462700,11.297462646484375,9.975371360778809,0.4234008193016052,1.4109368324279785
1772788823030561500,11.3175615234375,9.95201587677002,0.43298274278640747,1.4061459302902222
1772788823050660400,11.337660400390625,9.980162620544434,0.40902796387672424,1.4109368324279785
1772788823070759000,11.357759033203125,9.966388702392578,0.41381892561912537,1.4013549089431763
1772788823090857700,11.377857666015625,9.989744186401367,0.4186098873615265,1.4061459302902222
1772788823110956500,11.39795654296875,9.989744186401367,0.42819178104400635,1.4205187559127808
1772788823131055400,11.418055419921876,9.975371360778809,0.4186098873615265,1.4061459302902222
1772788823171253000,11.4582529296875,9.980162620544434,0.40902796387672424,1.410338044166565
1772788823191352600,11.4783525390625,9.975371360778809,0.4234008193016052,1.410338044166565
1772788823211452200,11.4984521484375,9.984953880310059,0.4377737045288086,1.4151289463043213
1772788823251651000,11.538651123046876,9.96099853515625,0.4144177734851837,1.405547022819519
1772788823271750700,11.558750732421874,9.975371360778809,0.42819178104400635,1.3959650993347168
1772788823291850200,11.578850341796874,9.984953880310059,0.41920873522758484,1.4007561206817627
1772788823311949600,11.598949462890625,9.970580101013184,0.41920873522758484,1.405547022819519
1772788823332049200,11.619049072265625,9.956207275390625,0.41920873522758484,1.405547022819519
1772788823352148700,11.639148681640625,9.970580101013184,0.40483587980270386,1.4007561206817627
1772788823372248300,11.659248291015626,9.970580101013184,0.4186098873615265,1.410338044166565
1772788823412447200,11.699447265625,9.975371360778809,0.40004491806030273,1.410338044166565
1772788823452646100,11.739646240234375,9.989744186401367,0.40004491806030273,1.4199198484420776
1772788823472745700,11.759745849609375,9.984953880310059,0.41920873522758484,1.4151289463043213
1772788823492845300,11.77984521484375,9.975371360778809,0.41920873522758484,1.4247108697891235
1772788823533044200,11.820044189453125,9.984953880310059,0.4287906587123871,1.3959650993347168
1772788823553143800,11.840143798828125,9.984953880310059,0.4425646662712097,1.4007561206817627
1772788823573243400,11.860243408203125,9.980162620544434,0.409626841545105,1.4007561206817627
1772788823593342700,11.8803427734375,9.96099853515625,0.40483587980270386,1.405547022819519
1772788823633542000,11.9205419921875,9.970580101013184,0.4144177734851837,1.410338044166565
1772788823653641200,11.94064111328125,9.989744186401367,0.41920873522758484,1.405547022819519
1772788823673740300,11.960740234375,9.965789794921875,0.4287906587123871,1.4007561206817627
1772788823693838600,11.980838623046875,9.980162620544434,0.4144177734851837,1.4007561206817627
1772788823734035500,12.021035400390625,9.96099853515625,0.4287906587123871,1.4097391366958618
1772788823754133800,12.0411337890625,9.975371360778809,0.4186098873615265,1.4013549089431763
1772788823774232000,12.061232177734375,9.961597442626953,0.40902796387672424,1.39656400680542
1772788823814428700,12.1014287109375,9.970580101013184,0.4186098873615265,1.4109368324279785
1772788823834527000,12.12152685546875,9.971179008483887,0.4042370021343231,1.4061459302902222
1772788823854625300,12.141625244140625,9.975371360778809,0.399446040391922,1.4061459302902222
1772788823874723600,12.1617236328125,9.966388702392578,0.4186098873615265,1.4013549089431763
1772788823894822100,12.181822265625,10.027473449707031,0.399446040391922,1.4828011989593506
1772788823914920400,12.20192041015625,10.03226375579834,0.4569375216960907,1.3732080459594727
1772788823935018800,12.222018798828126,9.777145385742188,0.399446040391922,1.3492532968521118
1772788823955117000,12.242116943359376,10.14065933227539,0.38986414670944214,1.4247108697891235
1772788823975215400,12.26221533203125,9.885540962219238,0.41381892561912537,1.391772985458374
1772788823995313700,12.282313720703126,10.04184627532959,0.42819178104400635,1.4199198484420776
1772788824015412000,12.302411865234374,9.96099853515625,0.40902796387672424,1.410338044166565
1772788824035510300,12.32251025390625,9.989744186401367,0.399446040391922,1.3911741971969604
1772788824055608800,12.34260888671875,9.975371360778809,0.41381892561912537,1.4007561206817627
1772788824075707100,12.36270703125,9.975371360778809,0.4234008193016052,1.3959650993347168
1772788824095805400,12.382805419921874,9.999326705932617,0.4042370021343231,1.4199198484420776
1772788824115903700,12.40290380859375,9.970580101013184,0.4186098873615265,1.3911741971969604
1772788824136002000,12.423001953125,9.980162620544434,0.4234008193016052,1.4151289463043213
1772788824156100400,12.443100341796875,9.980162620544434,0.4234008193016052,1.4061459302902222
1772788824176198700,12.46319873046875,9.980162620544434,0.399446040391922,1.4205187559127808
1772788824216395500,12.5033955078125,9.970580101013184,0.4234008193016052,1.4013549089431763
1772788824236493800,12.523493896484375,9.975371360778809,0.4186098873615265,1.4061459302902222
1772788824256592400,12.54359228515625,9.994535446166992,0.4186098873615265,1.4061459302902222
1772788824276690700,12.563690673828125,9.980162620544434,0.41381892561912537,1.4013549089431763
1772788824296789000,12.5837890625,9.966388702392578,0.41381892561912537,1.4109368324279785
1772788824316887300,12.60388720703125,9.970580101013184,0.4234008193016052,1.4061459302902222
1772788824336985900,12.62398583984375,9.970580101013184,0.41381892561912537,1.39656400680542
1772788824357084200,12.644084228515625,9.961597442626953,0.41381892561912537,1.39656400680542
1772788824377182500,12.664182373046875,9.980162620544434,0.41381892561912537,1.4205187559127808
1772788824397281000,12.684281005859376,9.984953880310059,0.42819178104400635,1.4253097772598267
1772788824417379300,12.70437939453125,9.966388702392578,0.42819178104400635,1.4061459302902222
1772788824437477600,12.7244775390625,9.980162620544434,0.41381892561912537,1.39656400680542
1772788824457576200,12.744576171875,9.984953880310059,0.40902796387672424,1.39656400680542
1772788824477674500,12.764674560546876,9.980162620544434,0.40902796387672424,1.4061459302902222
1772788824517871400,12.804871337890624,9.970580101013184,0.42819178104400635,1.4061459302902222
1772788824537969700,12.8249697265625,9.989744186401367,0.40902796387672424,1.405547022819519
1772788824578166500,12.86516650390625,9.999326705932617,0.40902796387672424,1.410338044166565
1772788824598264800,12.885264892578125,9.984953880310059,0.4186098873615265,1.405547022819519
1772788824618363100,12.905363037109375,9.975371360778809,0.40902796387672424,1.4007561206817627
1772788824638461700,12.925461669921875,9.980162620544434,0.4042370021343231,1.405547022819519
1772788824658560000,12.94556005859375,9.984953880310059,0.41381892561912537,1.4007561206817627
1772788824678658000,12.965657958984375,9.980162620544434,0.42819178104400635,1.405547022819519
1772788824718854400,13.0058544921875,9.994535446166992,0.4186098873615265,1.410338044166565
1772788824738952400,13.025952392578125,9.984953880310059,0.4186098873615265,1.39656400680542
1772788824779148500,13.0661484375,9.994535446166992,0.399446040391922,1.4205187559127808
1772788824799246600,13.08624658203125,9.984953880310059,0.4186098873615265,1.39656400680542
1772788824839442700,13.126442626953125,9.989744186401367,0.42819178104400635,1.391772985458374
1772788824859540700,13.146540771484375,9.965789794921875,0.4425646662712097,1.3869820833206177
1772788824879638800,13.166638671875,9.965789794921875,0.43298274278640747,1.3869820833206177
1772788824899736800,13.18673681640625,9.970580101013184,0.4186098873615265,1.4013549089431763
1772788824919835000,13.2068349609375,9.975371360778809,0.4234008193016052,1.391772985458374
1772788824939933000,13.226932861328125,9.975371360778809,0.4234008193016052,1.4013549089431763
1772788824960031200,13.24703125,9.975371360778809,0.4042370021343231,1.39656400680542
1772788824980129300,13.26712939453125,9.975371360778809,0.4042370021343231,1.3869820833206177
1772788825040423400,13.32742333984375,9.984953880310059,0.4186098873615265,1.4109368324279785
1772788825060521500,13.347521484375,9.980162620544434,0.43298274278640747,1.4157278537750244
1772788825080619500,13.36761962890625,9.984953880310059,0.4042370021343231,1.39656400680542
1772788825100717600,13.387717529296875,9.989744186401367,0.38986414670944214,1.4013549089431763
1772788825120815600,13.407815673828125,9.980162620544434,0.42819178104400635,1.391772985458374
1772788825140913700,13.42791357421875,9.984953880310059,0.43298274278640747,1.391772985458374
1772788825161011700,13.44801171875,9.965789794921875,0.41381892561912537,1.4007561206817627
1772788825181110000,13.468110107421875,9.984953880310059,0.40902796387672424,1.3815922737121582
1772788825201208000,13.4882080078125,10.008309364318848,0.4042370021343231,1.3959650993347168
1772788825221306000,13.50830615234375,9.989744186401367,0.41381892561912537,1.3815922737121582
1772788825241404400,13.528404296875,9.980162620544434,0.43298274278640747,1.3815922737121582
1772788825261502500,13.54850244140625,9.937643051147461,0.4186098873615265,1.405547022819519
1772788825301698800,13.58869873046875,9.984953880310059,0.40902796387672424,1.4151289463043213
1772788825341895200,13.628895263671875,9.975970268249512,0.4084290862083435,1.4067447185516357
1772788825361993200,13.6489931640625,9.961597442626953,0.41801100969314575,1.397162914276123
1772788825382091300,13.66909130859375,9.999326705932617,0.39884716272354126,1.3977617025375366
1772788825402189600,13.689189453125,9.99034309387207,0.4228019714355469,1.421716570854187
1772788825422287600,13.70928759765625,9.975970268249512,0.41322004795074463,1.4121346473693848
1772788825462484000,13.74948388671875,9.980761528015137,0.4036381244659424,1.4025527238845825
1772788825482582000,13.76958203125,9.985551834106445,0.4084290862083435,1.4073436260223389
1772788825502680300,13.789680419921876,9.985551834106445,0.4084290862083435,1.4127334356307983
1772788825542876400,13.82987646484375,9.971179008483887,0.4234008193016052,1.4019538164138794
1772788825562974700,13.849974609375,9.994535446166992,0.41381892561912537,1.4019538164138794
1772788825583072800,13.87007275390625,9.980162620544434,0.385073184967041,1.4019538164138794
1772788825603171000,13.890171142578126,9.966388702392578,0.38986414670944214,1.3923718929290771
1772788825623269000,13.91026904296875,9.975371360778809,0.4186098873615265,1.391772985458374
1772788825643367200,13.9303671875,9.975371360778809,0.41381892561912537,1.39656400680542
1772788825683563300,13.970563232421876,9.966388702392578,0.40902796387672424,1.391772985458374
1772788825703661000,13.9906611328125,9.980162620544434,0.4186098873615265,1.4013549089431763
1772788825743856600,14.030856689453126,9.984953880310059,0.39884716272354126,1.382789969444275
1772788825763954400,14.050954345703126,9.989744186401367,0.41801100969314575,1.382789969444275
1772788825784052200,14.07105224609375,9.980761528015137,0.43238386511802673,1.3923718929290771
1772788825804150000,14.09114990234375,9.985551834106445,0.41322004795074463,1.4019538164138794
1772788825824247800,14.111247802734376,9.980761528015137,0.43238386511802673,1.4067447185516357
1772788825844345600,14.131345703125,9.975970268249512,0.4036381244659424,1.4019538164138794
1772788825864443400,14.151443359375,9.980761528015137,0.41801100969314575,1.4019538164138794
1772788825884541200,14.171541259765625,9.985551834106445,0.41801100969314575,1.383388876914978
1772788825904639000,14.191638916015625,9.975970268249512,0.3844743072986603,1.3977617025375366
1772788825924736800,14.21173681640625,9.971179008483887,0.41801100969314575,1.3929708003997803
1772788825944834600,14.23183447265625,9.984953880310059,0.40902796387672424,1.397162914276123
1772788825985030100,14.272030029296875,9.975970268249512,0.427592933177948,1.4019538164138794
1772788826005128000,14.2921279296875,9.989744186401367,0.40902796387672424,1.382789969444275
1772788826025225700,14.312225830078125,9.984953880310059,0.40902796387672424,1.4019538164138794
1772788826045323500,14.332323486328125,9.984953880310059,0.4186098873615265,1.4019538164138794
1772788826065421300,14.35242138671875,9.989744186401367,0.40902796387672424,1.3923718929290771
1772788826085519000,14.37251904296875,9.975970268249512,0.4186098873615265,1.397162914276123
1772788826105617000,14.392616943359375,9.980162620544434,0.41381892561912537,1.397162914276123
1772788826125715000,14.41271484375,9.975970268249512,0.4186098873615265,1.4019538164138794
1772788826145812700,14.432812744140625,9.971179008483887,0.39884716272354126,1.3923718929290771
1772788826186008600,14.473008544921875,9.975970268249512,0.41322004795074463,1.4067447185516357
1772788826206107000,14.49310693359375,9.994535446166992,0.4036381244659424,1.3923718929290771
1772788826226205000,14.513204833984375,9.989744186401367,0.4036381244659424,1.3977617025375366
1772788826266401500,14.553401611328125,9.971179008483887,0.4228019714355469,1.3929708003997803
1772788826306598000,14.593597900390625,9.99034309387207,0.3940562307834625,1.3929708003997803
1772788826326696200,14.6136962890625,9.99034309387207,0.41322004795074463,1.4073436260223389
1772788826346794200,14.633794189453125,10.00890827178955,0.41801100969314575,1.397162914276123
1772788826366892500,14.653892578125,9.971179008483887,0.40902796387672424,1.3875809907913208
1772788826386990600,14.673990478515625,9.971179008483887,0.41381892561912537,1.4067447185516357
1772788826407089000,14.6940888671875,9.989744186401367,0.40902796387672424,1.4019538164138794
1772788826427187200,14.714187255859375,9.989744186401367,0.40902796387672424,1.397162914276123
1772788826447285200,14.73428515625,9.975970268249512,0.4234008193016052,1.397162914276123
1772788826467383600,14.754383544921875,9.980162620544434,0.38986414670944214,1.3875809907913208
1772788826487481600,14.774481689453125,9.989744186401367,0.41381892561912537,1.3923718929290771
1772788826507580000,14.794579833984375,9.980162620544434,0.41381892561912537,1.397162914276123
1772788826527678200,14.81467822265625,10.004117012023926,0.399446040391922,1.4115357398986816
1772788826547776300,14.8347763671875,9.989744186401367,0.427592933177948,1.3923718929290771
1772788826587972600,14.87497265625,9.994535446166992,0.4228019714355469,1.383388876914978
1772788826628169200,14.915169189453126,9.99034309387207,0.4036381244659424,1.4073436260223389
1772788826648267300,14.935267333984376,9.99034309387207,0.41801100969314575,1.3929708003997803
1772788826668365800,14.95536572265625,9.971179008483887,0.41801100969314575,1.383388876914978
1772788826688465700,14.975465576171874,9.99034309387207,0.4036381244659424,1.3929708003997803
1772788826708565800,14.995565673828125,9.99034309387207,0.4084290862083435,1.3881797790527344
1772788826748765700,15.035765625,9.985551834106445,0.4084290862083435,1.3875809907913208
1772788826768865500,15.055865478515624,9.980761528015137,0.41801100969314575,1.397162914276123
1772788826788965600,15.075965576171875,9.985551834106445,0.41322004795074463,1.397162914276123
1772788826809065500,15.0960654296875,9.989744186401367,0.3940562307834625,1.3875809907913208
1772788826829165600,15.11616552734375,9.985551834106445,0.4036381244659424,1.3779990673065186
1772788826869365500,15.156365478515625,9.985551834106445,0.39884716272354126,1.397162914276123
1772788826909565400,15.1965654296875,9.980761528015137,0.4228019714355469,1.397162914276123
1772788826929665500,15.21666552734375,9.975970268249512,0.4228019714355469,1.3923718929290771
1772788826949765400,15.236765380859374,9.995134353637695,0.41801100969314575,1.3977617025375366
1772788826989965300,15.27696533203125,9.985551834106445,0.41322004795074463,1.4025527238845825
1772788827010065400,15.2970654296875,9.985551834106445,0.39884716272354126,1.383388876914978
1772788827030165200,15.317165283203124,9.975970268249512,0.4228019714355469,1.3929708003997803
1772788827050265300,15.337265380859375,9.975970268249512,0.4036381244659424,1.3977617025375366
1772788827070365200,15.357365234375,9.980761528015137,0.4084290862083435,1.3929708003997803
1772788827090465300,15.37746533203125,9.995134353637695,0.39884716272354126,1.3929708003997803
1772788827110565000,15.397565185546876,9.995134353637695,0.427592933177948,1.4025527238845825
1772788827130665200,15.417665283203124,9.995134353637695,0.4036381244659424,1.3935695886611938
1772788827150765000,15.43776513671875,9.999326705932617,0.3940562307834625,1.3785978555679321
1772788827170864600,15.45786474609375,9.975970268249512,0.41801100969314575,1.383388876914978
1772788827190963000,15.477962890625,9.975970268249512,0.41322004795074463,1.3977617025375366
1772788827211061200,15.498061279296875,9.980761528015137,0.3892652690410614,1.397162914276123
1772788827231159600,15.51815966796875,9.980761528015137,0.4036381244659424,1.3923718929290771
1772788827251257900,15.5382578125,9.975970268249512,0.4084290862083435,1.4019538164138794
1772788827271356000,15.55835595703125,9.985551834106445,0.39884716272354126,1.4019538164138794
1772788827291454200,15.5784541015625,9.999326705932617,0.41801100969314575,1.397162914276123
1772788827311552500,15.598552490234376,9.980761528015137,0.41322004795074463,1.397162914276123
1772788827331650800,15.61865087890625,9.985551834106445,0.3940562307834625,1.3923718929290771
1772788827351749000,15.6387490234375,9.99034309387207,0.427592933177948,1.3983606100082397
1772788827371847400,15.658847412109376,9.980761528015137,0.41322004795074463,1.407942533493042
1772788827391945700,15.67894580078125,9.975970268249512,0.41322004795074463,1.3935695886611938
1772788827412044000,15.6990439453125,9.980761528015137,0.417412132024765,1.4127334356307983
1772788827432142300,15.719142333984376,9.971179008483887,0.4126211702823639,1.3983606100082397
1772788827452240400,15.739240478515624,9.985551834106445,0.4126211702823639,1.403151512145996
1772788827472338700,15.759338623046874,9.99992561340332,0.40783020853996277,1.3983606100082397
1772788827492437000,15.77943701171875,9.980761528015137,0.42699405550956726,1.3935695886611938
1772788827512535300,15.799535400390624,9.962196350097656,0.417412132024765,1.3893775939941406
1772788827532633600,15.819633544921874,9.99034309387207,0.4126211702823639,1.4037504196166992
1772788827552732000,15.83973193359375,9.99034309387207,0.41322004795074463,1.3977617025375366
1772788827572830200,15.859830322265625,9.995134353637695,0.4036381244659424,1.3977617025375366
1772788827592928500,15.879928466796875,9.985551834106445,0.39884716272354126,1.3929708003997803
1772788827613026800,15.90002685546875,9.99034309387207,0.41801100969314575,1.3977617025375366
1772788827633125000,15.920125,9.985551834106445,0.3892652690410614,1.3929708003997803
1772788827653223400,15.940223388671875,9.999326705932617,0.3940562307834625,1.4025527238845825
1772788827673321700,15.96032177734375,9.961597442626953,0.427592933177948,1.4121346473693848
1772788827693420300,15.980420166015625,9.971179008483887,0.41801100969314575,1.397162914276123
1772788827713518800,16.000518798828125,9.975970268249512,0.4036381244659424,1.3875809907913208
1772788827733617400,16.020617431640623,10.00890827178955,0.4084290862083435,1.3923718929290771
1772788827753716000,16.040716064453125,9.985551834106445,0.41801100969314575,1.4121346473693848
1772788827773814500,16.060814453125,9.971179008483887,0.41322004795074463,1.3785978555679321
1772788827793912800,16.080912841796874,9.980761528015137,0.41322004795074463,1.383388876914978
1772788827814011400,16.101011474609376,10.018489837646484,0.4228019714355469,1.3929708003997803
1772788827834110000,16.12110986328125,10.004117012023926,0.4036381244659424,1.3929708003997803
1772788827874307000,16.16130712890625,9.985551834106445,0.4036381244659424,1.4121346473693848
1772788827894405600,16.181405517578124,9.980761528015137,0.4228019714355469,1.3929708003997803
1772788827914504200,16.201504150390626,9.995134353637695,0.4084290862083435,1.3929708003997803
1772788827934602800,16.221602783203124,9.999326705932617,0.3844743072986603,1.3929708003997803
1772788827954701300,16.241701416015626,9.99034309387207,0.41322004795074463,1.3839877843856812
1772788827974800000,16.2617998046875,9.985551834106445,0.43238386511802673,1.3935695886611938
1772788827994898400,16.2818984375,9.99034309387207,0.41801100969314575,1.3935695886611938
1772788828014997000,16.3019970703125,9.99992561340332,0.4084290862083435,1.3887786865234375
1772788828035095600,16.322095458984375,10.009507179260254,0.41322004795074463,1.3935695886611938
1772788828055194000,16.342194091796873,9.99992561340332,0.4084290862083435,1.374405860900879
1772788828075292400,16.36229248046875,9.966987609863281,0.40303927659988403,1.3887786865234375
1772788828095391000,16.382390869140625,9.975970268249512,0.40783020853996277,1.403151512145996
1772788828115489500,16.402489501953124,9.980761528015137,0.40783020853996277,1.3839877843856812
1772788828135588000,16.422588134765626,9.995134353637695,0.40783020853996277,1.3935695886611938
1772788828155686700,16.442686767578124,9.966388702392578,0.4036381244659424,1.3929708003997803
1772788828175785000,16.462784912109374,9.995134353637695,0.41801100969314575,1.3929708003997803
1772788828195882800,16.4828828125,9.99034309387207,0.43238386511802673,1.3977617025375366
1772788828215980500,16.50298046875,9.966388702392578,0.41801100969314575,1.383388876914978
1772788828236078600,16.52307861328125,9.957405090332031,0.3940562307834625,1.383388876914978
1772788828276274400,16.5632744140625,9.995134353637695,0.427592933177948,1.3881797790527344
1772788828296372200,16.583372314453126,9.985551834106445,0.4036381244659424,1.3977617025375366
1772788828336568000,16.623568115234374,9.975970268249512,0.4084290862083435,1.3929708003997803
1772788828356665900,16.643665771484375,9.980761528015137,0.4084290862083435,1.3791967630386353
1772788828396861700,16.68386181640625,9.995134353637695,0.4126211702823639,1.3983606100082397
1772788828416959500,16.70395947265625,10.004715919494629,0.42220309376716614,1.3983606100082397
1772788828437057500,16.7240576171875,9.966987609863281,0.4036381244659424,1.3983606100082397
1772788828457155300,16.7441552734375,9.980761528015137,0.40303927659988403,1.3791967630386353
1772788828477253000,16.764253173828124,9.962196350097656,0.417412132024765,1.3791967630386353
1772788828497351200,16.78435107421875,9.99992561340332,0.4126211702823639,1.3887786865234375
1772788828517449000,16.804448974609375,9.985551834106445,0.40303927659988403,1.3983606100082397
1772788828557644800,16.844644775390623,9.966388702392578,0.4084290862083435,1.3935695886611938
1772788828597840400,16.88484033203125,10.004715919494629,0.41322004795074463,1.3935695886611938
1772788828617938400,16.9049384765625,9.971179008483887,0.4084290862083435,1.3983606100082397
1772788828638036200,16.9250361328125,9.971179008483887,0.41322004795074463,1.407942533493042
1772788828658134000,16.945134033203125,9.980761528015137,0.41322004795074463,1.3839877843856812
1772788828678231800,16.965231689453127,9.971179008483887,0.41801100969314575,1.374405860900879
1772788828698329600,16.98532958984375,9.980761528015137,0.39884716272354126,1.3839877843856812
1772788828738525200,17.025525146484377,9.971179008483887,0.4228019714355469,1.3929708003997803
1772788828758623000,17.045623046875,9.966388702392578,0.4084290862083435,1.3929708003997803
1772788828778720800,17.065720703125,9.999326705932617,0.4228019714355469,1.3977617025375366
1772788828798818600,17.085818603515627,9.99034309387207,0.4228019714355469,1.3929708003997803
1772788828818916400,17.105916259765625,9.980761528015137,0.4084290862083435,1.3977617025375366
1772788828839014100,17.12601416015625,10.11311149597168,0.36051952838897705,1.4504622220993042
1772788828859111700,17.146111572265625,9.81966495513916,0.5042482614517212,1.2540329694747925
1772788828879209500,17.16620947265625,10.004117012023926,0.3940562307834625,1.4121346473693848
1772788828899307300,17.186307373046876,10.046636581420898,0.4228019714355469,1.3690159320831299
1772788828919405000,17.206405029296874,9.956806182861328,0.39884716272354126,1.4265074729919434
1772788828939502800,17.2265029296875,10.042445182800293,0.42699405550956726,1.374405860900879
1772788828959600600,17.2466005859375,9.919676780700684,0.3934573531150818,1.403151512145996
1772788828979698400,17.266698486328124,10.032862663269043,0.42220309376716614,1.3702137470245361
1772788828999796200,17.286796142578126,9.943032264709473,0.40783020853996277,1.4037504196166992
1772788829039991600,17.326991455078126,9.952614784240723,0.40783020853996277,1.3893775939941406
1772788829060089300,17.34708935546875,9.99034309387207,0.4126211702823639,1.3702137470245361
1772788829080187100,17.367187255859374,9.952614784240723,0.42699405550956726,1.3893775939941406
1772788829100285000,17.387284912109376,10.004715919494629,0.417412132024765,1.3893775939941406
1772788829120382700,17.4073828125,9.99034309387207,0.40783020853996277,1.3750046491622925
1772788829140480500,17.42748046875,10.004715919494629,0.41801100969314575,1.3935695886611938
1772788829160578300,17.447578369140626,9.980761528015137,0.4084290862083435,1.3935695886611938
1772788829180676600,17.467676513671876,9.975970268249512,0.4228019714355469,1.3983606100082397
1772788829200775400,17.487775390625,9.985551834106445,0.41322004795074463,1.3791967630386353
1772788829220874200,17.507874267578124,9.985551834106445,0.4036381244659424,1.3791967630386353
1772788829240973000,17.52797314453125,9.985551834106445,0.41322004795074463,1.3935695886611938
1772788829261071600,17.548071533203125,9.99992561340332,0.41322004795074463,1.3839877843856812
1772788829281170400,17.56817041015625,9.980761528015137,0.4036381244659424,1.3881797790527344
1772788829301269200,17.588269287109377,9.99034309387207,0.41801100969314575,1.4121346473693848
1772788829321368000,17.6083681640625,9.99034309387207,0.4036381244659424,1.3977617025375366
1772788829341466600,17.628466552734373,10.004715919494629,0.417412132024765,1.3791967630386353
1772788829361565400,17.6485654296875,10.014298439025879,0.4126211702823639,1.3983606100082397
1772788829381664300,17.668664306640625,10.004715919494629,0.40303927659988403,1.3845865726470947
1772788829401762800,17.6887626953125,9.99034309387207,0.417412132024765,1.394168496131897
1772788829441960400,17.72896044921875,9.985551834106445,0.42220309376716614,1.4037504196166992
1772788829462059300,17.749059326171874,9.985551834106445,0.42699405550956726,1.3893775939941406
1772788829482157800,17.76915771484375,9.985551834106445,0.417412132024765,1.3845865726470947
1772788829502256600,17.789256591796875,9.980761528015137,0.3982483148574829,1.3893775939941406
1772788829522355500,17.80935546875,9.966987609863281,0.40783020853996277,1.4037504196166992
1772788829542454000,17.8294541015625,9.995134353637695,0.40303927659988403,1.3893775939941406
1772788829562552800,17.849552734375,10.009507179260254,0.4126211702823639,1.3893775939941406
1772788829582651600,17.869651611328123,9.995134353637695,0.40783020853996277,1.394168496131897
1772788829602750500,17.88975048828125,9.99034309387207,0.42220309376716614,1.380394458770752
1772788829622849000,17.90984912109375,9.995134353637695,0.40783020853996277,1.3851854801177979
1772788829642947800,17.92994775390625,9.99034309387207,0.38866639137268066,1.3851854801177979
1772788829663046700,17.950046630859376,9.986150741577148,0.417412132024765,1.380394458770752
1772788829683145700,17.970145751953126,9.976569175720215,0.3982483148574829,1.3756035566329956
1772788829703245000,17.9902451171875,9.962196350097656,0.40303927659988403,1.3660216331481934
1772788829723344400,18.010344482421875,9.976569175720215,0.41202232241630554,1.380394458770752
1772788829743443500,18.030443359375,9.980761528015137,0.4126211702823639,1.3750046491622925
1772788829763542800,18.050542724609375,9.99034309387207,0.42220309376716614,1.3989595174789429
1772788829783642000,18.07064208984375,9.985551834106445,0.417412132024765,1.3797956705093384
1772788829803741400,18.090741455078124,9.985551834106445,0.3982483148574829,1.3750046491622925
1772788829823840800,18.1108408203125,10.004715919494629,0.4126211702823639,1.3893775939941406
1772788829843939800,18.13093994140625,9.995134353637695,0.42220309376716614,1.3893775939941406
1772788829864039200,18.1510390625,9.985551834106445,0.42699405550956726,1.394168496131897
1772788829904237600,18.191237548828123,9.962196350097656,0.4126211702823639,1.3845865726470947
1772788829924337000,18.2113369140625,9.97177791595459,0.40783020853996277,1.3983606100082397
1772788829944436200,18.231436279296876,9.975970268249512,0.40783020853996277,1.403151512145996
1772788829964535600,18.25153564453125,9.995134353637695,0.40783020853996277,1.3839877843856812
1772788829984635000,18.271634765625,9.975970268249512,0.4126211702823639,1.3887786865234375
1772788830004734000,18.29173388671875,9.985551834106445,0.42220309376716614,1.3791967630386353
1772788830024833300,18.311833251953125,9.99034309387207,0.42699405550956726,1.374405860900879
1772788830065032000,18.352031982421874,9.99992561340332,0.3892652690410614,1.3935695886611938
1772788830105230300,18.392230224609374,9.971179008483887,0.41322004795074463,1.3839877843856812
1772788830125329700,18.41232958984375,9.99034309387207,0.427592933177948,1.3935695886611938
1772788830145429000,18.432428955078127,9.986150741577148,0.417412132024765,1.3851854801177979
1772788830165528000,18.452528076171873,9.99992561340332,0.4072313606739044,1.3851854801177979
1772788830185625600,18.47262548828125,10.004715919494629,0.4072313606739044,1.3899763822555542
1772788830205723000,18.492722900390625,9.990942001342773,0.4168132543563843,1.3851854801177979
1772788830225820400,18.5128203125,9.976569175720215,0.4072313606739044,1.385784387588501
1772788830245918000,18.53291796875,9.990942001342773,0.4168132543563843,1.3905752897262573
1772788830266015200,18.55301513671875,9.976569175720215,0.4216042160987854,1.3905752897262573
1772788830286112800,18.57311279296875,9.986150741577148,0.41202232241630554,1.380993366241455
1772788830306210300,18.593210205078126,9.98136043548584,0.4263951778411865,1.3762024641036987
1772788830326307600,18.6133076171875,9.986150741577148,0.41202232241630554,1.3905752897262573
1772788830346405000,18.633405029296874,9.97177791595459,0.40783020853996277,1.3797956705093384
1772788830366502400,18.65350244140625,9.975970268249512,0.4126211702823639,1.3797956705093384
1772788830386600000,18.673599853515626,10.004715919494629,0.3934573531150818,1.3750046491622925
1772788830426794800,18.713794677734374,9.975970268249512,0.40303927659988403,1.3839877843856812
1772788830446892300,18.733892333984375,9.995134353637695,0.42220309376716614,1.3935695886611938
1772788830466989600,18.753989501953125,9.971179008483887,0.42220309376716614,1.407942533493042
1772788830487087000,18.774087158203123,9.980761528015137,0.4084290862083435,1.3791967630386353
1772788830507184600,18.7941845703125,9.971179008483887,0.4084290862083435,1.369614839553833
1772788830527282000,18.814281982421875,9.962196350097656,0.4084290862083435,1.3791967630386353
1772788830547379500,18.83437939453125,9.995134353637695,0.4126211702823639,1.3893775939941406
1772788830567476700,18.854476806640626,9.98136043548584,0.40783020853996277,1.3989595174789429
1772788830587574300,18.87457421875,9.986150741577148,0.40783020853996277,1.3851854801177979
1772788830607671800,18.894671875,9.976569175720215,0.417412132024765,1.3899763822555542
1772788830627769000,18.91476904296875,9.99034309387207,0.417412132024765,1.380394458770752
1772788830647866600,18.93486669921875,9.99992561340332,0.40303927659988403,1.3947674036026
1772788830667964200,18.954964111328124,9.99992561340332,0.3982483148574829,1.3995583057403564
1772788830688063200,18.975063232421874,9.990942001342773,0.417412132024765,1.3899763822555542
1772788830708162300,18.995162353515624,9.98136043548584,0.40303927659988403,1.380394458770752
1772788830748360400,19.0353603515625,9.98136043548584,0.40783020853996277,1.3756035566329956
1772788830768459500,19.05545947265625,9.99034309387207,0.42699405550956726,1.3899763822555542
1772788830788558600,19.07555859375,9.99034309387207,0.4126211702823639,1.380394458770752
1772788830808657400,19.095657470703124,9.966987609863281,0.40303927659988403,1.380394458770752
1772788830828756500,19.115756591796874,9.986150741577148,0.40783020853996277,1.3947674036026
1772788830848855600,19.13585546875,9.99992561340332,0.40303927659988403,1.380394458770752
1772788830868954600,19.15595458984375,9.98136043548584,0.4126211702823639,1.380394458770752
1772788830889053700,19.1760537109375,10.004715919494629,0.40783020853996277,1.3899763822555542
1772788830929251800,19.216251953125,9.990942001342773,0.417412132024765,1.3851854801177979
1772788830949350700,19.2363505859375,9.985551834106445,0.40303927659988403,1.394168496131897
1772788830969449700,19.25644970703125,9.976569175720215,0.3982483148574829,1.3702137470245361
1772788830989548800,19.276548828125,9.985551834106445,0.40783020853996277,1.3845865726470947
1772788831009647900,19.29664794921875,9.985551834106445,0.42220309376716614,1.3797956705093384
1772788831029747000,19.316746826171876,9.99034309387207,0.417412132024765,1.3750046491622925
1772788831069945000,19.356945068359376,9.995134353637695,0.40783020853996277,1.394168496131897
1772788831090044200,19.377044189453127,9.99992561340332,0.42699405550956726,1.3797956705093384
1772788831110143000,19.39714306640625,9.976569175720215,0.417412132024765,1.3797956705093384
1772788831130242000,19.417241943359375,9.995134353637695,0.3982483148574829,1.3893775939941406
1772788831150341000,19.437341064453125,9.995134353637695,0.3982483148574829,1.394168496131897
1772788831170440200,19.457440185546876,9.99034309387207,0.417412132024765,1.3797956705093384
1772788831190538800,19.477538818359374,9.980761528015137,0.4126211702823639,1.3797956705093384
1772788831230736100,19.517736083984374,9.962196350097656,0.42220309376716614,1.3797956705093384
1772788831250834700,19.537834716796876,9.99992561340332,0.42220309376716614,1.3893775939941406
1772788831291032000,19.578031982421876,9.97177791595459,0.40303927659988403,1.394168496131897
1772788831311131000,19.598130859375,9.966987609863281,0.3934573531150818,1.3797956705093384
1772788831331229400,19.6182294921875,9.99034309387207,0.417412132024765,1.394168496131897
1772788831351328000,19.638327880859375,9.985551834106445,0.417412132024765,1.394168496131897
1772788831371426800,19.6584267578125,9.995134353637695,0.3934573531150818,1.394168496131897
1772788831391525400,19.678525390625,9.980761528015137,0.3982483148574829,1.3845865726470947
1772788831411624200,19.698624267578126,9.980761528015137,0.3982483148574829,1.3893775939941406
1772788831431722800,19.71872265625,10.004715919494629,0.42699405550956726,1.3750046491622925
1772788831451821300,19.7388212890625,9.985551834106445,0.417412132024765,1.3845865726470947
1772788831471920000,19.758920166015624,9.975970268249512,0.417412132024765,1.3845865726470947
1772788831512117200,19.7991171875,9.995134353637695,0.3982483148574829,1.3893775939941406
1772788831532216000,19.819216064453126,9.99034309387207,0.417412132024765,1.3887786865234375
1772788831552314600,19.839314697265625,9.97177791595459,0.42699405550956726,1.3845865726470947
1772788831572413400,19.859413330078127,9.962196350097656,0.40783020853996277,1.3893775939941406
1772788831592512000,19.879511962890625,9.99992561340332,0.40303927659988403,1.3893775939941406
1772788831612610800,19.89961083984375,9.99034309387207,0.40783020853996277,1.3947674036026
1772788831632709400,19.91970947265625,9.98136043548584,0.40303927659988403,1.3995583057403564
1772788831652808000,19.939807861328124,9.98136043548584,0.3934573531150818,1.3756035566329956
1772788831672906500,19.959906494140625,9.995134353637695,0.40783020853996277,1.3899763822555542
1772788831693004300,19.98000439453125,10.009507179260254,0.417412132024765,1.3947674036026
1772788831713102000,20.00010205078125,10.014298439025879,0.40303927659988403,1.3851854801177979
1772788831753297700,20.040297607421873,9.99034309387207,0.40783020853996277,1.3797956705093384
1772788831773395500,20.0603955078125,9.980761528015137,0.42220309376716614,1.3750046491622925
1772788831793493200,20.0804931640625,9.97177791595459,0.42699405550956726,1.3750046491622925
1772788831813591300,20.10059130859375,9.980761528015137,0.40303927659988403,1.394168496131897
1772788831833689000,20.120689208984373,9.980761528015137,0.4126211702823639,1.394168496131897
1772788831873884700,20.160884765625,9.975970268249512,0.3934573531150818,1.3702137470245361
1772788831893982500,20.180982421875,9.99034309387207,0.417412132024765,1.3702137470245361
1772788831914080500,20.20108056640625,9.995134353637695,0.40783020853996277,1.3797956705093384
1772788831934178300,20.22117822265625,9.980761528015137,0.4126211702823639,1.3791967630386353
1772788831954276000,20.241276123046877,9.986150741577148,0.40303927659988403,1.3899763822555542
1772788831974374000,20.261373779296875,9.957405090332031,0.4126211702823639,1.3851854801177979
1772788831994471700,20.2814716796875,9.98136043548584,0.4126211702823639,1.3851854801177979
1772788832014569500,20.301569580078127,10.004715919494629,0.4263951778411865,1.3899763822555542
1772788832034667300,20.321667236328125,9.995134353637695,0.417412132024765,1.380394458770752
1772788832054765300,20.341765380859375,9.97177791595459,0.4263951778411865,1.3899763822555542
1772788832074863000,20.361863037109377,9.976569175720215,0.43597710132598877,1.380394458770752
1772788832094961000,20.3819609375,9.97177791595459,0.4072313606739044,1.3899763822555542
1772788832115058700,20.40205859375,9.986150741577148,0.4168132543563843,1.3995583057403564
1772788832135156500,20.422156494140626,9.986150741577148,0.4072313606739044,1.3947674036026
1772788832155254500,20.442254638671876,9.99034309387207,0.4126211702823639,1.380394458770752
1772788832195450400,20.482450439453125,9.98136043548584,0.42220309376716614,1.3899763822555542
1772788832215548400,20.50254833984375,9.98136043548584,0.40783020853996277,1.3995583057403564
1772788832235646500,20.522646484375,9.99034309387207,0.417412132024765,1.3851854801177979
1772788832255744800,20.542744873046875,9.98136043548584,0.42220309376716614,1.3851854801177979
1772788832275842800,20.5628427734375,9.986150741577148,0.417412132024765,1.380394458770752
1772788832295940900,20.58294091796875,9.986150741577148,0.3982483148574829,1.380394458770752
1772788832316039000,20.603038818359376,9.99034309387207,0.40783020853996277,1.3660216331481934
1772788832336137000,20.623136962890626,9.98136043548584,0.42220309376716614,1.3756035566329956
1772788832356235000,20.643235107421877,9.986150741577148,0.4216042160987854,1.380394458770752
1772788832376333000,20.6633330078125,9.986150741577148,0.4072313606739044,1.3708126544952393
1772788832396431400,20.683431396484377,9.976569175720215,0.3976494371891022,1.3660216331481934
1772788832416529400,20.703529296875,9.990942001342773,0.4072313606739044,1.3756035566329956
1772788832436627500,20.72362744140625,9.99992561340332,0.4168132543563843,1.3708126544952393
1772788832476823600,20.763823486328125,9.990942001342773,0.4024403989315033,1.3756035566329956
1772788832496921600,20.783921630859375,9.990942001342773,0.4168132543563843,1.380394458770752
1772788832517019600,20.80401953125,9.97177791595459,0.4072313606739044,1.380394458770752
1772788832537118000,20.824117919921875,9.990942001342773,0.4024403989315033,1.385784387588501
1772788832557216000,20.844216064453125,10.004715919494629,0.4126211702823639,1.3702137470245361
1772788832577314000,20.86431396484375,9.98136043548584,0.4126211702823639,1.3845865726470947
1772788832597412000,20.884412109375,9.97177791595459,0.417412132024765,1.3845865726470947
1772788832617510100,20.90451025390625,9.995134353637695,0.40783020853996277,1.3845865726470947
1772788832637608200,20.924608154296877,9.99034309387207,0.38387542963027954,1.3893775939941406
1772788832657706500,20.94470654296875,9.995134353637695,0.40783020853996277,1.3893775939941406
1772788832677804300,20.96480419921875,9.976569175720215,0.3934573531150818,1.3893775939941406
1772788832697901800,20.98490185546875,9.985551834106445,0.3934573531150818,1.3893775939941406
1772788832717999600,21.00499951171875,9.99992561340332,0.42220309376716614,1.3845865726470947
1772788832758195200,21.0451953125,9.995134353637695,0.417412132024765,1.3750046491622925
1772788832778292700,21.065292724609375,9.98136043548584,0.417412132024765,1.3606318235397339
1772788832798390500,21.085390625,9.97177791595459,0.42220309376716614,1.3750046491622925
1772788832818488300,21.10548828125,9.97177791595459,0.4126211702823639,1.3797956705093384
1772788832838585900,21.1255859375,9.995134353637695,0.40783020853996277,1.3893775939941406
1772788832878781400,21.165781494140624,10.004715919494629,0.417412132024765,1.3797956705093384
1772788832898879200,21.185879150390626,9.976569175720215,0.3982483148574829,1.3893775939941406
1772788832918976800,21.205976806640624,9.976569175720215,0.4126211702823639,1.394168496131897
1772788832939074600,21.226074462890626,9.976569175720215,0.4126211702823639,1.3756035566329956
1772788832959172400,21.24617236328125,9.986150741577148,0.3934573531150818,1.3756035566329956
1772788832979270100,21.266270263671874,9.990942001342773,0.40303927659988403,1.380394458770752
1772788832999367700,21.28636767578125,9.97177791595459,0.4263951778411865,1.3756035566329956
1772788833019465500,21.306465576171874,9.995134353637695,0.4126211702823639,1.3756035566329956
1772788833039563300,21.326563232421876,10.014298439025879,0.4126211702823639,1.3899763822555542
1772788833059660800,21.346660888671874,9.995134353637695,0.40783020853996277,1.380394458770752
1772788833099856400,21.3868564453125,9.99992561340332,0.4168132543563843,1.3995583057403564
1772788833119954000,21.406953857421875,9.986150741577148,0.40303927659988403,1.3708126544952393
1772788833160149500,21.4471494140625,9.986150741577148,0.3790844678878784,1.380394458770752
1772788833180247800,21.467247802734374,9.986150741577148,0.40783020853996277,1.3899763822555542
1772788833200346000,21.48734619140625,9.986150741577148,0.40783020853996277,1.3851854801177979
1772788833220444700,21.507444580078126,9.97177791595459,0.3934573531150818,1.3708126544952393
1772788833240543000,21.52754296875,9.976569175720215,0.38866639137268066,1.3708126544952393
1772788833260641500,21.5476416015625,9.995134353637695,0.4263951778411865,1.3851854801177979
1772788833280739800,21.56773974609375,9.986150741577148,0.4072313606739044,1.380394458770752
1772788833300838400,21.58783837890625,9.995733261108398,0.4024403989315033,1.3708126544952393
1772788833320936700,21.607936767578124,9.995733261108398,0.4072313606739044,1.361230731010437
1772788833341035300,21.62803515625,9.986150741577148,0.3982483148574829,1.3851854801177979
1772788833361133600,21.648133544921876,9.98136043548584,0.3982483148574829,1.380394458770752
1772788833381232000,21.668232177734374,9.97177791595459,0.42220309376716614,1.3947674036026
1772788833401330400,21.688330322265625,9.97177791595459,0.3982483148574829,1.3851854801177979
1772788833421429000,21.708428955078126,9.986150741577148,0.4126211702823639,1.3756035566329956
1772788833441527300,21.72852734375,9.990942001342773,0.42699405550956726,1.3708126544952393
1772788833461625900,21.7486259765625,9.976569175720215,0.42220309376716614,1.3899763822555542
1772788833501822700,21.78882275390625,9.99992561340332,0.40783020853996277,1.3947674036026
1772788833542019600,21.82901953125,9.99992561340332,0.38866639137268066,1.3851854801177979
1772788833582216400,21.869216552734375,9.976569175720215,0.42220309376716614,1.380394458770752
1772788833602315000,21.88931494140625,9.995134353637695,0.417412132024765,1.3756035566329956
1772788833622413300,21.909413330078124,9.995134353637695,0.3982483148574829,1.380394458770752
1772788833642512000,21.929511962890626,9.99034309387207,0.3934573531150818,1.3947674036026
1772788833662610200,21.949610107421876,9.99034309387207,0.3982483148574829,1.394168496131897
1772788833682709200,21.969709228515626,9.99992561340332,0.3982483148574829,1.3708126544952393
1772788833702808600,21.98980859375,9.986150741577148,0.3982483148574829,1.3564397096633911
1772788833743007000,22.030007080078125,9.986150741577148,0.42220309376716614,1.3893775939941406
1772788833763106000,22.05010595703125,9.97177791595459,0.42699405550956726,1.394168496131897
1772788833783205000,22.070205078125,9.986150741577148,0.417412132024765,1.3845865726470947
1772788833803304400,22.090304443359376,9.99992561340332,0.40783020853996277,1.3702137470245361
1772788833823403500,22.110403564453126,9.99034309387207,0.40783020853996277,1.3606318235397339
1772788833863602000,22.150601806640626,9.99034309387207,0.417412132024765,1.4037504196166992
1772788833883701200,22.170701171875,9.985551834106445,0.42699405550956726,1.3893775939941406
1772788833903800300,22.19080029296875,9.985551834106445,0.42220309376716614,1.3654227256774902
1772788833923899400,22.2108994140625,9.995134353637695,0.3982483148574829,1.3893775939941406
1772788833964097800,22.251097900390626,9.99992561340332,0.4216042160987854,1.3756035566329956
1772788833984197000,22.271197021484376,9.995733261108398,0.4216042160987854,1.3756035566329956
1772788834004296200,22.291296142578126,10.004715919494629,0.4024403989315033,1.3899763822555542
1772788834024395300,22.311395263671876,9.966987609863281,0.4072313606739044,1.3756035566329956
1772788834044494600,22.33149462890625,9.98136043548584,0.41202232241630554,1.3899763822555542
1772788834064593700,22.35159375,9.98136043548584,0.3976494371891022,1.3899763822555542
1772788834084692700,22.371692626953124,9.97177791595459,0.4216042160987854,1.380394458770752
1772788834124891100,22.41189111328125,9.98136043548584,0.3976494371891022,1.3762024641036987
1772788834144990500,22.431990478515626,9.986150741577148,0.4126211702823639,1.3899763822555542
1772788834165089500,22.452089599609376,9.99992561340332,0.40303927659988403,1.3845865726470947
1772788834185187600,22.4721875,9.99992561340332,0.40783020853996277,1.3797956705093384
1772788834205285600,22.49228564453125,10.004715919494629,0.40303927659988403,1.3845865726470947
1772788834225384000,22.512384033203126,9.976569175720215,0.40783020853996277,1.3750046491622925
1772788834245482000,22.53248193359375,9.98136043548584,0.417412132024765,1.3702137470245361
1772788834265580000,22.552580078125,9.97177791595459,0.40303927659988403,1.3797956705093384
1772788834285678000,22.572677978515625,9.966987609863281,0.417412132024765,1.3845865726470947
1772788834305776000,22.592776123046875,9.995134353637695,0.417412132024765,1.3893775939941406
1772788834345972500,22.632972412109375,9.986150741577148,0.4168132543563843,1.3756035566329956
1772788834366070500,22.653070556640625,9.995733261108398,0.4168132543563843,1.3708126544952393
1772788834386168600,22.67316845703125,9.99992561340332,0.4168132543563843,1.3756035566329956
1772788834406266600,22.6932666015625,9.986150741577148,0.39285847544670105,1.3708126544952393
1772788834426364700,22.71336474609375,9.98136043548584,0.4024403989315033,1.3708126544952393
1772788834446462700,22.733462646484377,9.986150741577148,0.4216042160987854,1.3899763822555542
1772788834466560800,22.753560791015627,9.995733261108398,0.41202232241630554,1.3756035566329956
1772788834486658800,22.773658935546877,9.986150741577148,0.39285847544670105,1.3756035566329956
1772788834506757000,22.793757080078127,9.97177791595459,0.39285847544670105,1.3666205406188965
1772788834526855200,22.813855224609377,9.995733261108398,0.41202232241630554,1.3762024641036987
1772788834546953200,22.833953125,9.99992561340332,0.3982483148574829,1.3756035566329956
1772788834567051300,22.85405126953125,9.976569175720215,0.4126211702823639,1.3708126544952393
1772788834587149300,22.8741494140625,9.986150741577148,0.42220309376716614,1.3660216331481934
1772788834607247400,22.894247314453125,9.97177791595459,0.40783020853996277,1.3756035566329956
1772788834627345700,22.914345703125,9.97177791595459,0.3982483148574829,1.3756035566329956
1772788834647443700,22.934443603515625,9.995134353637695,0.40303927659988403,1.3851854801177979
1772788834667541800,22.954541748046875,9.990942001342773,0.38866639137268066,1.3660216331481934
1772788834687640300,22.974640380859373,9.986150741577148,0.40783020853996277,1.3851854801177979
1772788834707739100,22.9947392578125,9.98136043548584,0.417412132024765,1.3851854801177979
1772788834727837700,23.014837646484374,9.986150741577148,0.40783020853996277,1.380394458770752
1772788834747936300,23.034936279296875,9.986150741577148,0.4168132543563843,1.385784387588501
1772788834768035000,23.05503515625,9.967586517333984,0.4168132543563843,1.372010350227356
1772788834788133600,23.075133544921876,9.98136043548584,0.4168132543563843,1.3815922737121582
1772788834828331000,23.1153310546875,10.000524520874023,0.40184152126312256,1.372010350227356
1772788834848429600,23.1354296875,10.005314826965332,0.4066324830055237,1.3768012523651123
1772788834868528000,23.155528076171876,9.995733261108398,0.37788674235343933,1.3911741971969604
1772788834908725500,23.1957255859375,9.995733261108398,0.4066324830055237,1.3774001598358154
1772788834928824300,23.21582421875,9.986749649047852,0.4162144064903259,1.391772985458374
1772788834948923000,23.2359228515625,9.98136043548584,0.4168132543563843,1.3851854801177979
1772788834969021400,23.256021484375,9.995733261108398,0.3832765817642212,1.3564397096633911
1772788834989120300,23.276120361328125,9.98136043548584,0.39285847544670105,1.3708126544952393
1772788835009218800,23.29621875,9.986150741577148,0.3982483148574829,1.3660216331481934
1772788835029317400,23.3163173828125,9.986150741577148,0.3982483148574829,1.3756035566329956
1772788835049416200,23.336416259765624,9.995134353637695,0.4216042160987854,1.3851854801177979
1772788835069514800,23.3565146484375,9.990942001342773,0.40783020853996277,1.3708126544952393
1772788835089613300,23.37661328125,9.99992561340332,0.40783020853996277,1.3851854801177979
1772788835129810700,23.416810791015624,9.99034309387207,0.3934573531150818,1.361230731010437
1772788835149909500,23.436909423828126,9.97177791595459,0.41202232241630554,1.3666205406188965
1772788835170008000,23.457008056640625,9.976569175720215,0.39285847544670105,1.3714114427566528
1772788835190106000,23.477106201171875,9.976569175720215,0.3880675137042999,1.3666205406188965
1772788835210204400,23.497204345703125,9.995733261108398,0.39285847544670105,1.3905752897262573
1772788835230302500,23.517302490234375,9.990942001342773,0.3976494371891022,1.3905752897262573
1772788835250400500,23.537400390625,9.986150741577148,0.3976494371891022,1.3762024641036987
1772788835270498800,23.557498779296875,9.98136043548584,0.4168132543563843,1.385784387588501
1772788835290596900,23.577596923828125,10.000524520874023,0.4168132543563843,1.380993366241455
1772788835330793200,23.617793212890625,9.990942001342773,0.39285847544670105,1.380993366241455
1772788835350891500,23.6378916015625,9.986150741577148,0.40783020853996277,1.3756035566329956
1772788835391087900,23.678087890625,9.98136043548584,0.4126211702823639,1.3845865726470947
1772788835411186000,23.69818603515625,9.99034309387207,0.40303927659988403,1.3702137470245361
1772788835431284200,23.7182841796875,9.985551834106445,0.42220309376716614,1.3797956705093384
1772788835451382300,23.73838232421875,9.985551834106445,0.42220309376716614,1.3702137470245361
1772788835471480600,23.75848046875,9.980761528015137,0.40303927659988403,1.3893775939941406
1772788835491578600,23.77857861328125,9.985551834106445,0.40303927659988403,1.3797956705093384
1772788835531775000,23.81877490234375,9.966987609863281,0.4126211702823639,1.3791967630386353
1772788835551873000,23.838873046875,9.97177791595459,0.4072313606739044,1.3714114427566528
1772788835592069600,23.879069580078124,9.986150741577148,0.4168132543563843,1.3666205406188965
1772788835632266000,23.919265869140624,9.976569175720215,0.41202232241630554,1.3762024641036987
1772788835652364000,23.939364013671874,9.967586517333984,0.4072313606739044,1.372010350227356
1772788835672462000,23.959462158203124,9.986150741577148,0.3880675137042999,1.3768012523651123
1772788835692560100,23.97956005859375,9.990942001342773,0.3976494371891022,1.3911741971969604
1772788835712658200,23.999658203125,9.986150741577148,0.3976494371891022,1.3815922737121582
1772788835732756200,24.019756103515626,9.990942001342773,0.4114234447479248,1.3768012523651123
1772788835752854300,24.039854248046876,10.000524520874023,0.3976494371891022,1.3762024641036987
1772788835772952300,24.059952392578126,9.995733261108398,0.4072313606739044,1.3762024641036987
1772788835793050400,24.08005029296875,10.000524520874023,0.3880675137042999,1.3618295192718506
1772788835813148400,24.1001484375,9.995733261108398,0.4024403989315033,1.3714114427566528
1772788835833246500,24.12024658203125,9.986150741577148,0.39285847544670105,1.3756035566329956
1772788835853344500,24.140344482421874,9.986150741577148,0.4168132543563843,1.3522475957870483
1772788835873442300,24.1604423828125,9.986150741577148,0.4072313606739044,1.3756035566329956
1772788835893540400,24.180540283203126,9.986150741577148,0.3976494371891022,1.3708126544952393
1772788835913638400,24.200638427734376,9.986150741577148,0.4072313606739044,1.3756035566329956
1772788835933736400,24.220736328125,9.986150741577148,0.4168132543563843,1.380394458770752
1772788835953834500,24.24083447265625,9.98136043548584,0.3880675137042999,1.372010350227356
1772788835973932500,24.2609326171875,9.990942001342773,0.4072313606739044,1.36721932888031
1772788836014128600,24.301128662109374,9.995733261108398,0.39285847544670105,1.372010350227356
1772788836034226700,24.321226806640624,9.990942001342773,0.4072313606739044,1.372010350227356
1772788836074422800,24.3614228515625,9.98136043548584,0.4162144064903259,1.3815922737121582
1772788836094520800,24.381520751953126,10.005314826965332,0.4162144064903259,1.3863831758499146
1772788836114619000,24.401618896484376,9.98136043548584,0.4114234447479248,1.3863831758499146
1772788836154814700,24.441814697265624,9.990942001342773,0.4216042160987854,1.3714114427566528
1772788836195011600,24.482011474609376,9.986150741577148,0.41202232241630554,1.3660216331481934
1772788836215110400,24.5021103515625,9.97177791595459,0.4216042160987854,1.361230731010437
1772788836235209000,24.522208984375,9.98136043548584,0.4216042160987854,1.361230731010437
1772788836255307800,24.542307861328126,9.995733261108398,0.4216042160987854,1.3756035566329956
1772788836275406300,24.56240625,9.98136043548584,0.40303927659988403,1.3708126544952393
1772788836315603700,24.602603759765625,9.99992561340332,0.3934573531150818,1.361230731010437
1772788836355801000,24.642801025390625,9.966987609863281,0.4024403989315033,1.3905752897262573
1772788836375899600,24.662899658203123,9.986150741577148,0.4072313606739044,1.385784387588501
1772788836416097000,24.703096923828124,10.000524520874023,0.4168132543563843,1.380993366241455
1772788836436195600,24.723195556640626,9.986150741577148,0.4263951778411865,1.3905752897262573
1772788836456294100,24.743294189453124,9.97177791595459,0.41202232241630554,1.3714114427566528
1772788836476393000,24.76339306640625,9.995733261108398,0.41202232241630554,1.3714114427566528
1772788836496491500,24.783491455078124,9.97177791595459,0.4168132543563843,1.3762024641036987
1772788836516590000,24.803590087890626,9.962196350097656,0.4168132543563843,1.3714114427566528
1772788836536689000,24.82368896484375,9.990942001342773,0.4024403989315033,1.380993366241455
1772788836556787500,24.843787353515626,9.986150741577148,0.39285847544670105,1.3762024641036987
1772788836576886000,24.863885986328125,10.000524520874023,0.4024403989315033,1.385784387588501
1772788836596984800,24.88398486328125,9.986150741577148,0.4168132543563843,1.3666205406188965
1772788836617083400,24.90408349609375,9.96279525756836,0.4072313606739044,1.380993366241455
1772788836637182200,24.92418212890625,9.986150741577148,0.3880675137042999,1.3714114427566528
1772788836657280800,24.94428076171875,9.986150741577148,0.4024403989315033,1.3714114427566528
1772788836677379000,24.964379150390624,9.967586517333984,0.4216042160987854,1.3762024641036987
1772788836697477400,24.984477294921874,9.976569175720215,0.4216042160987854,1.3570386171340942
1772788836717575400,25.004575439453124,9.96279525756836,0.41202232241630554,1.3762024641036987
1772788836737673700,25.024673828125,9.962196350097656,0.41202232241630554,1.385784387588501
1772788836757772000,25.04477197265625,9.976569175720215,0.3880675137042999,1.385784387588501
1772788836777870300,25.064870361328126,10.000524520874023,0.4072313606739044,1.3714114427566528
1772788836797968400,25.084968505859376,9.98136043548584,0.41202232241630554,1.385784387588501
1772788836818066700,25.105066650390626,9.990942001342773,0.41202232241630554,1.380993366241455
1772788836838165000,25.1251650390625,9.97177791595459,0.4263951778411865,1.3762024641036987
1772788836858263000,25.145262939453126,9.995733261108398,0.4168132543563843,1.3762024641036987
1772788836898459600,25.185459716796874,9.990942001342773,0.4024403989315033,1.3618295192718506
1772788836918558000,25.205557861328124,10.000524520874023,0.4024403989315033,1.385784387588501
1772788836938656000,25.225656005859374,9.990942001342773,0.4024403989315033,1.3666205406188965
1772788836958754300,25.24575439453125,9.97177791595459,0.4072313606739044,1.380993366241455
1772788836978852600,25.2658525390625,9.97177791595459,0.41202232241630554,1.3762024641036987
1772788836998950700,25.28595068359375,9.98136043548584,0.41202232241630554,1.385784387588501
1772788837019049000,25.306049072265626,9.98136043548584,0.4072313606739044,1.3762024641036987
1772788837039147300,25.326147216796876,10.000524520874023,0.4024403989315033,1.380993366241455
1772788837059245600,25.34624560546875,9.990942001342773,0.41202232241630554,1.380993366241455
1772788837099442000,25.38644189453125,9.966987609863281,0.39285847544670105,1.380993366241455
1772788837119540200,25.406540283203125,9.986150741577148,0.3880675137042999,1.3570386171340942
1772788837139638300,25.42663818359375,9.995733261108398,0.4263951778411865,1.3666205406188965
1772788837159736600,25.446736572265625,9.98136043548584,0.4024403989315033,1.4001572132110596
1772788837179835000,25.4668349609375,9.990942001342773,0.4072313606739044,1.3714114427566528
1772788837199933000,25.486932861328125,9.98136043548584,0.43118613958358765,1.3666205406188965
1772788837220031000,25.507031005859375,9.97177791595459,0.4168132543563843,1.385784387588501
1772788837240129300,25.52712939453125,9.98136043548584,0.4024403989315033,1.3666205406188965
1772788837260227300,25.547227294921875,9.98136043548584,0.4168132543563843,1.3762024641036987
1772788837280325600,25.56732568359375,10.010106086730957,0.3976494371891022,1.3762024641036987
1772788837300423700,25.587423583984375,9.98136043548584,0.4024403989315033,1.385784387588501
1772788837320521700,25.607521728515625,9.98136043548584,0.4024403989315033,1.3762024641036987
1772788837360718000,25.647718017578125,9.990942001342773,0.3976494371891022,1.3905752897262573
1772788837380816400,25.66781640625,9.98136043548584,0.4024403989315033,1.3762024641036987
1772788837400914400,25.68791455078125,9.966987609863281,0.4168132543563843,1.3762024641036987
1772788837421012700,25.7080126953125,9.986150741577148,0.4072313606739044,1.3714114427566528
1772788837441110800,25.72811083984375,10.004715919494629,0.41202232241630554,1.3666205406188965
1772788837461208800,25.748208740234375,9.98136043548584,0.4216042160987854,1.3666205406188965
1772788837481307100,25.76830712890625,9.966987609863281,0.4072313606739044,1.380993366241455
1772788837501405200,25.7884052734375,9.976569175720215,0.41202232241630554,1.380993366241455
1772788837521503200,25.808503173828125,9.97177791595459,0.4263951778411865,1.3666205406188965
1772788837541601500,25.8286015625,9.986150741577148,0.4216042160987854,1.380993366241455
1772788837581798000,25.8687978515625,9.986150741577148,0.4024403989315033,1.3714114427566528
1772788837601896000,25.88889599609375,9.966987609863281,0.4024403989315033,1.3714114427566528
1772788837621994200,25.908994140625,10.000524520874023,0.4216042160987854,1.3762024641036987
1772788837642092300,25.92909228515625,10.004715919494629,0.3976494371891022,1.380993366241455
1772788837662190300,25.9491904296875,9.995733261108398,0.3976494371891022,1.3762024641036987
1772788837682288600,25.96928857421875,10.000524520874023,0.4168132543563843,1.3666205406188965
1772788837702386700,25.98938671875,9.986150741577148,0.4072313606739044,1.3666205406188965
1772788837722484700,26.009484619140625,10.004715919494629,0.41202232241630554,1.3618295192718506
1772788837742582800,26.029582763671876,10.000524520874023,0.4072313606739044,1.3714114427566528
1772788837762680800,26.049680908203126,9.995733261108398,0.3976494371891022,1.3762024641036987
1772788837782779000,26.06977880859375,9.98136043548584,0.4024403989315033,1.380993366241455
1772788837802877000,26.089876953125,9.990942001342773,0.4024403989315033,1.3762024641036987
1772788837822975000,26.10997509765625,10.000524520874023,0.41202232241630554,1.3618295192718506
1772788837843073000,26.130072998046874,9.976569175720215,0.4263951778411865,1.3762024641036987
1772788837863171000,26.150171142578124,10.005314826965332,0.41202232241630554,1.380993366241455
1772788837903367200,26.1903671875,10.005314826965332,0.4216042160987854,1.3762024641036987
1772788837923465200,26.21046533203125,9.995733261108398,0.4024403989315033,1.385784387588501
1772788837943563300,26.230563232421876,10.000524520874023,0.39285847544670105,1.3905752897262573
1772788837983759400,26.27075927734375,9.98136043548584,0.4024403989315033,1.3714114427566528
1772788838003857400,26.290857421875,9.966987609863281,0.39285847544670105,1.3714114427566528
1772788838023955500,26.31095556640625,9.995733261108398,0.39285847544670105,1.3762024641036987
1772788838044053500,26.331053466796874,9.990942001342773,0.4168132543563843,1.380394458770752
1772788838064151800,26.35115185546875,9.995733261108398,0.4216042160987854,1.3708126544952393
1772788838084249900,26.371249755859374,9.986150741577148,0.4168132543563843,1.380394458770752
1772788838104348000,26.391347900390624,9.995733261108398,0.4072313606739044,1.380394458770752
1772788838124446000,26.411446044921874,9.990942001342773,0.4072313606739044,1.3708126544952393
1772788838144544000,26.4315439453125,9.986150741577148,0.4263951778411865,1.3708126544952393
1772788838184739600,26.471739501953124,9.990942001342773,0.4072313606739044,1.3756035566329956
1772788838204837400,26.49183740234375,9.966987609863281,0.41202232241630554,1.3516488075256348
1772788838224935000,26.511934814453124,9.976569175720215,0.3982483148574829,1.3516488075256348
1772788838245032400,26.532032470703125,9.97177791595459,0.41202232241630554,1.3708126544952393
1772788838265130200,26.552130126953124,9.990942001342773,0.40783020853996277,1.3708126544952393
1772788838285227800,26.572227783203125,9.995134353637695,0.40783020853996277,1.3851854801177979
1772788838305325300,26.5923251953125,9.995134353637695,0.40783020853996277,1.3756035566329956
1772788838325423000,26.612423095703125,9.966987609863281,0.4126211702823639,1.3708126544952393
1772788838345520600,26.632520751953123,9.990942001342773,0.4024403989315033,1.3762024641036987
1772788838385716000,26.672716064453127,9.976569175720215,0.4072313606739044,1.3714114427566528
1772788838405813500,26.6928134765625,9.9484224319458,0.4024403989315033,1.3666205406188965
1772788838425911000,26.7129111328125,9.976569175720215,0.39285847544670105,1.3570386171340942
1772788838466106400,26.7531064453125,9.990942001342773,0.4024403989315033,1.3666205406188965
1772788838506301700,26.7933017578125,9.995733261108398,0.3976494371891022,1.36721932888031
1772788838526399200,26.813399169921876,10.010106086730957,0.4024403989315033,1.385784387588501
1772788838546496800,26.833496826171874,9.972376823425293,0.4066324830055237,1.3911741971969604
1772788838566594600,26.853594482421876,9.990942001342773,0.4066324830055237,1.372010350227356
1772788838586692000,26.873692138671874,10.005314826965332,0.4114234447479248,1.3630273342132568
1772788838606789600,26.89378955078125,9.981959342956543,0.4066324830055237,1.372609257698059
1772788838626887400,26.913887451171874,9.995733261108398,0.40184152126312256,1.3869820833206177
1772788838646985000,26.93398486328125,9.986749649047852,0.3922595977783203,1.372609257698059
1772788838667082800,26.954082763671874,9.967586517333984,0.4162144064903259,1.3774001598358154
1772788838687181800,26.974181884765624,9.977168083190918,0.4114234447479248,1.372609257698059
1772788838707281000,26.994281005859374,9.972376823425293,0.4114234447479248,1.372609257698059
1772788838747479000,27.03447900390625,9.990942001342773,0.4072313606739044,1.3660216331481934
1772788838787677200,27.07467724609375,9.995134353637695,0.40303927659988403,1.3660216331481934
1772788838807776300,27.0947763671875,10.004715919494629,0.40303927659988403,1.3899763822555542
1772788838827875300,27.114875244140624,10.118501663208008,0.3551296889781952,1.418722152709961
1772788838847974400,27.134974365234374,9.768162727355957,0.44615787267684937,1.2654114961624146
1772788838868073500,27.155073486328124,10.084964752197266,0.3790844678878784,1.4085414409637451
1772788838888172500,27.175172607421874,9.966987609863281,0.42220309376716614,1.3462589979171753
1772788838908271600,27.195271728515625,10.014298439025879,0.4317850172519684,1.4037504196166992
1772788838928370700,27.21537060546875,10.02328109741211,0.4365759789943695,1.3510499000549316
1772788838948469800,27.2354697265625,9.938840866088867,0.3880675137042999,1.3762024641036987
1772788838988668000,27.27566796875,9.958003997802734,0.4216042160987854,1.3768012523651123
1772788839028866000,27.315865966796874,9.953213691711426,0.39285847544670105,1.3624284267425537
1772788839048965000,27.335965087890624,9.995733261108398,0.4024403989315033,1.372010350227356
1772788839069064200,27.356064208984375,9.990942001342773,0.4072313606739044,1.36721932888031
1772788839089163300,27.376163330078125,10.005314826965332,0.3880675137042999,1.3768012523651123
1772788839109262300,27.396262451171875,9.967586517333984,0.4257963001728058,1.372010350227356
1772788839129361400,27.416361328125,9.967586517333984,0.42100536823272705,1.3624284267425537
1772788839149460500,27.43646044921875,10.000524520874023,0.3832765817642212,1.380993366241455
1772788839169559300,27.456559326171874,9.98136043548584,0.3880675137042999,1.380993366241455
1772788839189657600,27.47665771484375,9.98136043548584,0.3880675137042999,1.3714114427566528
1772788839229853700,27.516853759765624,9.995733261108398,0.4263951778411865,1.3714114427566528
1772788839249951700,27.53695166015625,9.990942001342773,0.41202232241630554,1.3576374053955078
1772788839270050000,27.557050048828124,9.995733261108398,0.4024403989315033,1.3576374053955078
1772788839290148000,27.577148193359374,9.958003997802734,0.4024403989315033,1.3714114427566528
1772788839310246100,27.59724609375,9.98136043548584,0.3832765817642212,1.36721932888031
1772788839330344200,27.61734423828125,10.005314826965332,0.3976494371891022,1.3576374053955078
1772788839350442500,27.6374423828125,9.986150741577148,0.4162144064903259,1.372010350227356
1772788839370540500,27.65754052734375,9.967586517333984,0.4024403989315033,1.36721932888031
1772788839390638600,27.677638671875,9.977168083190918,0.4066324830055237,1.36721932888031
1772788839410736600,27.697736572265626,10.000524520874023,0.4114234447479248,1.3768012523651123
1772788839430835000,27.7178349609375,9.972376823425293,0.3922595977783203,1.3768012523651123
1772788839471031000,27.758031005859376,9.96279525756836,0.4114234447479248,1.3624284267425537
1772788839491129300,27.77812939453125,9.990942001342773,0.4162144064903259,1.36721932888031
1772788839511227400,27.798227294921876,9.990942001342773,0.3874686658382416,1.36721932888031
1772788839531325400,27.818325439453126,9.972376823425293,0.4162144064903259,1.3774001598358154
1772788839551423700,27.838423828125,9.97177791595459,0.4024403989315033,1.372010350227356
1772788839571521800,27.858521728515626,9.976569175720215,0.41202232241630554,1.3576374053955078
1772788839591619800,27.878619873046876,9.97177791595459,0.4216042160987854,1.380993366241455
1772788839611718000,27.8987177734375,9.98136043548584,0.4024403989315033,1.3714114427566528
1772788839631816200,27.918816162109376,10.005314826965332,0.39285847544670105,1.3714114427566528
1772788839672012300,27.95901220703125,9.995733261108398,0.4024403989315033,1.3714114427566528
1772788839692110300,27.9791103515625,10.000524520874023,0.41202232241630554,1.3714114427566528
1772788839712208400,27.99920849609375,10.000524520874023,0.4216042160987854,1.3666205406188965
1772788839752404500,28.039404541015625,9.995733261108398,0.39285847544670105,1.372010350227356
1772788839772502500,28.05950244140625,10.000524520874023,0.41202232241630554,1.3624284267425537
1772788839792600300,28.079600341796876,9.976569175720215,0.4216042160987854,1.3576374053955078
1772788839812698400,28.099698486328126,9.990942001342773,0.3880675137042999,1.3905752897262573
1772788839832796400,28.11979638671875,9.986150741577148,0.37848562002182007,1.372010350227356
1772788839852894500,28.13989453125,9.967586517333984,0.41202232241630554,1.3624284267425537
1772788839872992500,28.159992431640624,9.976569175720215,0.3976494371891022,1.385784387588501
1772788839893090600,28.180090576171875,9.986150741577148,0.4072313606739044,1.372010350227356
1772788839913188600,28.200188720703125,9.986150741577148,0.4216042160987854,1.36721932888031
1772788839933286700,28.22028662109375,9.986150741577148,0.39285847544670105,1.3624284267425537
1772788839953384700,28.240384765625,9.98136043548584,0.41202232241630554,1.3624284267425537
1772788839973482800,28.260482666015626,10.000524520874023,0.41202232241630554,1.3768012523651123
1772788839993580800,28.280580810546876,9.976569175720215,0.4263951778411865,1.372010350227356
1772788840033776600,28.320776611328125,10.000524520874023,0.39285847544670105,1.3576374053955078
1772788840073972700,28.36097265625,9.995733261108398,0.4024403989315033,1.3624284267425537
1772788840114168800,28.4011689453125,9.98136043548584,0.4072313606739044,1.36721932888031
1772788840154365000,28.441364990234376,9.97177791595459,0.3976494371891022,1.3768012523651123
1772788840174463200,28.461463134765626,9.98136043548584,0.4024403989315033,1.3768012523651123
1772788840194562300,28.481562255859377,10.005314826965332,0.4072313606739044,1.36721932888031
1772788840234760200,28.52176025390625,10.005314826965332,0.4072313606739044,1.36721932888031
1772788840274958300,28.561958251953126,9.97177791595459,0.4072313606739044,1.3624284267425537
1772788840295057400,28.582057373046876,9.990942001342773,0.4072313606739044,1.3666205406188965
1772788840315156200,28.60215625,10.005314826965332,0.3976494371891022,1.3666205406188965
1772788840355354400,28.642354248046875,9.995733261108398,0.4162144064903259,1.372609257698059
1772788840375453200,28.662453125,10.000524520874023,0.4066324830055237,1.3821910619735718
1772788840395552300,28.68255224609375,9.995733261108398,0.39705055952072144,1.3821910619735718
1772788840435750400,28.72275048828125,9.981959342956543,0.39705055952072144,1.3774001598358154
1772788840455849200,28.74284912109375,10.005314826965332,0.4066324830055237,1.3774001598358154
1772788840475948300,28.7629482421875,9.977168083190918,0.3922595977783203,1.358236312866211
1772788840496047400,28.78304736328125,9.986749649047852,0.40184152126312256,1.3821910619735718
1772788840516146200,28.803146240234376,10.000524520874023,0.4114234447479248,1.372609257698059
1772788840556344300,28.84334423828125,9.981959342956543,0.4066324830055237,1.3678182363510132
1772788840576443100,28.863443115234375,9.967586517333984,0.4066324830055237,1.3774001598358154
1772788840616641300,28.903641357421876,10.000524520874023,0.39705055952072144,1.372609257698059
