time,seconds_elapsed,z,y,x
1772717703297751600,0.08075146484375,-1.7101434469223022,-0.3053940534591675,0.3049392104148865
1772717703317624600,0.10062451171875,-1.6433918476104736,-0.3520458936691284,0.5261300206184387
1772717703337496800,0.120496826171875,-1.446214199066162,-0.37565329670906067,0.4068698585033417
1772717703357369600,0.14036962890625,-1.3174660205841064,-0.4063861668109894,0.2516656219959259
1772717703377241600,0.16024169921875,-1.3266750574111938,-0.6432841420173645,0.4473572373390198
1772717703397115000,0.180114990234375,-1.5603729486465454,-0.9498271942138672,0.901274561882019
1772717703416986600,0.199986572265625,-1.8842742443084717,-1.4600780010223389,1.1313270330429077
1772717703436859600,0.219859619140625,-2.018592357635498,-1.7956644296646118,1.2869306802749634
1772717703456731600,0.239731689453125,-1.9641560316085815,-1.869704008102417,1.4241394996643066
1772717703476604700,0.259604736328125,-1.979648470878601,-1.9045119285583496,1.2228447198867798
1772717703496476700,0.2794765625,-1.906446933746338,-1.5305132865905762,0.628080427646637
1772717703516349400,0.299349365234375,-1.5943456888198853,-0.6165511608123779,-0.044342443346977234
1772717703536221700,0.3192216796875,-1.0994575023651123,0.36644986271858215,-0.8747063875198364
1772717703556094700,0.3390947265625,-0.5892807841300964,0.27866536378860474,-1.6550792455673218
1772717703575966700,0.358966796875,-0.13148435950279236,0.06090586632490158,-1.635246992111206
1772717703595839700,0.37883984375,0.012068094685673714,0.30631303787231445,-0.7363483905792236
1772717703615711700,0.398711669921875,-0.23364801704883575,0.2164832055568695,0.2888275384902954
1772717703635584500,0.41858447265625,-0.5947105288505554,-0.4557115137577057,0.8751115798950195
1772717703655456500,0.43845654296875,-0.5881271958351135,-1.3316073417663574,1.0697721242904663
1772717703675329800,0.458329833984375,-0.4628869593143463,-1.6227790117263794,1.0724822282791138
1772717703695201500,0.478201416015625,-0.2983096241950989,-1.6207674741744995,0.8606619834899902
1772717703715074600,0.498074462890625,-0.21444259583950043,-1.5545562505722046,0.5404412746429443
1772717703734946800,0.51794677734375,-0.1609664261341095,-1.3855684995651245,0.14157792925834656
1772717703754819600,0.537819580078125,-0.11957992613315582,-1.1662009954452515,-0.041501861065626144
1772717703774691600,0.557691650390625,-0.15535582602024078,-1.0881061553955078,-0.04564434289932251
1772717703794564600,0.577564697265625,-0.08296796679496765,-1.3256381750106812,0.08688855916261673
1772717703814436600,0.5974365234375,0.24026547372341156,-1.6973565816879272,0.16936646401882172
1772717703834309600,0.6173095703125,0.5410182476043701,-2.3386435508728027,0.08959263563156128
1772717703854181600,0.637181640625,0.7797135710716248,-2.962864875793457,0.054101500660181046
1772717703874054700,0.6570546875,0.9858859181404114,-3.625159978866577,-0.018511900678277016
1772717703893926700,0.6769267578125,0.9781236052513123,-3.93920636177063,-0.3957905173301697
1772717703913799400,0.69679931640625,0.896314263343811,-3.2655084133148193,-1.2207348346710205
1772717703933671700,0.716671630859375,0.9699832201004028,-1.989448070526123,-2.2764387130737305
1772717703953544700,0.736544677734375,1.244450330734253,-0.8104654550552368,-3.3068389892578125
1772717703973416400,0.75641650390625,1.51084566116333,-0.3535255193710327,-3.862504482269287
1772717703993290000,0.7762900390625,1.677317500114441,-0.7982925772666931,-3.781139850616455
1772717704013162000,0.796161865234375,1.8316582441329956,-2.6715121269226074,-2.952033042907715
1772717704033035000,0.816034912109375,1.9667893648147583,-5.026505947113037,-1.3631700277328491
1772717704052907000,0.835906982421875,2.1412789821624756,-5.900803089141846,0.05592654272913933
1772717704072780000,0.855780029296875,2.527899980545044,-5.356470584869385,0.5210633873939514
1772717704092652000,0.875652099609375,2.9541618824005127,-4.462541580200195,0.435596227645874
1772717704112525000,0.895525146484375,3.4821949005126953,-3.862560749053955,0.08270733058452606
1772717704132397000,0.91539697265625,4.0044026374816895,-3.271974563598633,-0.44061756134033203
1772717704152270000,0.93527001953125,4.190302848815918,-2.9234659671783447,-0.734529435634613
1772717704172142000,0.95514208984375,4.311872482299805,-3.0696394443511963,-0.5523959994316101
1772717704192014800,0.975014892578125,4.4219560623168945,-3.1058857440948486,-0.1696193814277649
1772717704211887000,0.99488720703125,4.488844871520996,-2.5858356952667236,-0.034637197852134705
1772717704231760100,1.014760009765625,4.3741350173950195,-1.5190749168395996,-0.37093061208724976
1772717704251631900,1.0346318359375,3.944784641265869,-0.7319132089614868,-0.5060640573501587
1772717704271505200,1.054505126953125,3.2736117839813232,-0.27480506896972656,-0.18407407402992249
1772717704291377200,1.074377197265625,2.59651255607605,0.04845606908202171,0.1190413236618042
1772717704311250000,1.09425,2.1355397701263428,0.19745872914791107,0.0903148502111435
1772717704331122000,1.114121826171875,2.0083541870117188,0.25213828682899475,-0.08947981894016266
1772717704350995000,1.133994873046875,2.0372769832611084,0.16209691762924194,-0.17348235845565796
1772717704370867000,1.153866943359375,1.9468624591827393,0.008668114431202412,-0.19586001336574554
1772717704390740000,1.173739990234375,1.6116188764572144,0.010394170880317688,-0.19002144038677216
1772717704410612200,1.1936123046875,1.077384352684021,0.2754664123058319,-0.23537248373031616
1772717704430485000,1.213485107421875,0.6147324442863464,0.6044442057609558,-0.3937658369541168
1772717704450357000,1.23335693359375,0.3678324818611145,0.7839300036430359,-0.5139527320861816
1772717704470230000,1.25322998046875,0.2575097382068634,0.6521533131599426,-0.43647247552871704
1772717704490102000,1.27310205078125,0.17584431171417236,0.31245163083076477,-0.228491872549057
1772717704509975000,1.29297509765625,-0.007044011726975441,0.01895277202129364,-0.05045582354068756
1772717704529846800,1.3128466796875,-0.3207590878009796,-0.142146497964859,0.028356973081827164
1772717704549720000,1.332719970703125,-0.6975485682487488,-0.20508359372615814,0.00744166923686862
1772717704569592000,1.352592041015625,-1.0594203472137451,-0.12334681302309036,-0.10698267817497253
1772717704589464800,1.37246484375,-1.2912485599517822,0.07266420125961304,-0.27146515250205994
1772717704609337000,1.392337158203125,-1.3652814626693726,0.16512249410152435,-0.36075615882873535
1772717704629210000,1.412210205078125,-1.398626685142517,0.0776553750038147,-0.24030883610248566
1772717704649081900,1.432081787109375,-1.499261736869812,-0.08318907022476196,0.0582980215549469
1772717704668955100,1.451955078125,-1.6698421239852905,-0.22506049275398254,0.3152839243412018
1772717704688827100,1.4718271484375,-1.861308217048645,-0.3055945932865143,0.3855224847793579
1772717704708700000,1.491699951171875,-2.0695581436157227,-0.261947900056839,0.35577231645584106
1772717704728572200,1.511572265625,-2.243407964706421,-0.13828803598880768,0.33540335297584534
1772717704748445000,1.53144482421875,-2.3693182468414307,-0.03101377934217453,0.2612854242324829
1772717704768317000,1.55131689453125,-2.431225538253784,0.002025805413722992,0.16222251951694489
1772717704788190200,1.571190185546875,-2.4578304290771484,0.04965880513191223,0.03959480673074722
1772717704808062000,1.59106201171875,-2.460272789001465,0.1446325033903122,-0.07475829124450684
1772717704827935000,1.61093505859375,-2.47082781791687,0.3478831648826599,-0.15429742634296417
1772717704847807000,1.630806884765625,-2.5189976692199707,0.6213235855102539,-0.18982167541980743
1772717704867680000,1.650679931640625,-2.6195297241210938,0.9169203042984009,-0.18101413547992706
1772717704887552000,1.670552001953125,-2.7429494857788086,1.1051554679870605,-0.15821732580661774
1772717704907425000,1.690425048828125,-2.829615831375122,1.01502525806427,-0.1929793655872345
1772717704927297000,1.710297119140625,-2.902819871902466,0.7016511559486389,-0.19114503264427185
1772717704947170000,1.730170166015625,-2.7721567153930664,0.43623313307762146,-0.12327007204294205
1772717704967042000,1.7500419921875,-2.479383707046509,0.2417871505022049,-0.12026162445545197
1772717704986914300,1.769914306640625,-2.0663797855377197,0.07311282306909561,-0.13590386509895325
1772717705006786600,1.78978662109375,-1.5436629056930542,-0.13913306593894958,-0.07543613761663437
1772717705026659600,1.80965966796875,-1.0661592483520508,-0.3838917911052704,0.04148123785853386
1772717705046531300,1.82953125,-0.6809859275817871,-0.5650607943534851,0.1413010209798813
1772717705066404600,1.849404541015625,-0.35263878107070923,-0.6007049083709717,0.21721358597278595
1772717705086276600,1.869276611328125,-0.012509049847722054,-0.5127449035644531,0.2337789535522461
1772717705106149400,1.8891494140625,0.3326639235019684,-0.31563952565193176,0.08465607464313507
1772717705126021600,1.909021728515625,0.7084201574325562,-0.07890652865171432,-0.1383020132780075
1772717705145894400,1.928894287109375,1.1177709102630615,0.11486975848674774,-0.3723466694355011
1772717705165766400,1.948766357421875,1.5424778461456299,0.24122421443462372,-0.5620218515396118
1772717705185639700,1.9686396484375,1.9993926286697388,0.3423042893409729,-0.6522328853607178
1772717705205511700,1.98851171875,2.484593152999878,0.39570152759552,-0.732669472694397
1772717705225384400,2.008384521484375,2.9325342178344727,0.4015387296676636,-0.7879629731178284
1772717705245256400,2.02825634765625,3.220717191696167,0.31281086802482605,-0.7800914645195007
1772717705265129500,2.04812939453125,3.260868549346924,0.11167781054973602,-0.7464750409126282
1772717705285001500,2.06800146484375,3.206794261932373,-0.012405835092067719,-0.8041507005691528
1772717705304874500,2.08787451171875,3.196887731552124,-0.04558558017015457,-1.0082513093948364
1772717705324746500,2.10774658203125,3.2461721897125244,-0.011410239152610302,-1.2325836420059204
1772717705344619500,2.12761962890625,3.3850276470184326,0.04562320187687874,-1.3896899223327637
1772717705364491500,2.147491455078125,3.552716016769409,0.04260854795575142,-1.4704225063323975
1772717705384364500,2.167364501953125,3.6623828411102295,-0.007169823162257671,-1.4826421737670898
1772717705404236500,2.187236572265625,3.6741628646850586,-0.02819480001926422,-1.3438408374786377
1772717705424109600,2.207109619140625,3.5564932823181152,-0.027381204068660736,-0.8935320377349854
1772717705443981300,2.226981201171875,3.313602924346924,0.05886400118470192,-0.3891032934188843
1772717705463854600,2.2468544921875,2.9854280948638916,0.22532963752746582,-0.06563983857631683
1772717705483726600,2.2667265625,2.498035430908203,0.23793409764766693,0.18195979297161102
1772717705503599400,2.286599365234375,1.931795597076416,0.2506117820739746,0.3136517107486725
1772717705523471600,2.3064716796875,1.3636116981506348,0.22824327647686005,0.37398120760917664
1772717705543344400,2.326344482421875,0.8680906295776367,0.2142493724822998,0.36424723267555237
1772717705563216400,2.34621630859375,0.5146263241767883,0.1424856334924698,0.22682052850723267
1772717705583089700,2.366089599609375,0.2902228534221649,0.017269115895032883,0.07801664620637894
1772717705602961700,2.385961669921875,0.02419375628232956,-0.06685537099838257,0.051241979002952576
1772717705622834400,2.40583447265625,-0.37025076150894165,-0.145008385181427,0.13476397097110748
1772717705642706700,2.425706787109375,-0.8460140228271484,-0.2570044994354248,0.21643711626529694
1772717705662579500,2.445579345703125,-1.2431972026824951,-0.48387807607650757,0.25688430666923523
1772717705682451500,2.465451416015625,-1.5462490320205688,-0.7036784291267395,0.3464512825012207
1772717705702324700,2.48532470703125,-1.8695698976516724,-0.6809117197990417,0.45010626316070557
1772717705722196500,2.505196533203125,-2.263268232345581,-0.5454986691474915,0.48678818345069885
1772717705742069500,2.525069580078125,-2.8122828006744385,-0.4043106436729431,0.4250863790512085
1772717705761941500,2.54494140625,-3.5538909435272217,-0.20387981832027435,0.332363098859787
1772717705781814500,2.564814453125,-4.214492321014404,0.15083245933055878,0.10376907140016556
1772717705801686500,2.5846865234375,-4.541175842285156,0.4539134204387665,-0.1394943743944168
1772717705821559600,2.6045595703125,-4.703375339508057,0.548187792301178,-0.21423962712287903
1772717705841431600,2.624431640625,-4.749966144561768,0.4284307658672333,-0.10188981890678406
1772717705861304600,2.6443046875,-4.659867286682129,0.2913520336151123,0.19706597924232483
1772717705881176600,2.664176513671875,-4.451972007751465,0.20901617407798767,0.4924926459789276
1772717705901049600,2.684049560546875,-4.115672588348389,0.21488595008850098,0.5584954023361206
1772717705920921600,2.703921630859375,-3.6660468578338623,0.3128418028354645,0.4156525433063507
1772717705940794400,2.72379443359375,-3.1399927139282227,0.4184178411960602,0.242305189371109
1772717705960666400,2.743666259765625,-2.531313896179199,0.2428293079137802,0.3174026906490326
1772717705980539600,2.76353955078125,-1.926878809928894,0.18358337879180908,0.27294617891311646
1772717706000412000,2.783411865234375,-1.336783766746521,0.40283524990081787,0.15145398676395416
1772717706020285200,2.80328515625,-0.9043649435043335,0.37019625306129456,0.2602069079875946
1772717706040157200,2.8231572265625,-0.579914927482605,0.45277348160743713,0.34391388297080994
1772717706060030000,2.843030029296875,-0.31829971075057983,0.45122823119163513,0.39439234137535095
1772717706079902000,2.86290185546875,-0.1339230090379715,0.32096511125564575,0.29570403695106506
1772717706099775000,2.88277490234375,0.08725284785032272,0.26825278997421265,0.038666144013404846
1772717706119647000,2.90264697265625,0.2876710593700409,0.2899867296218872,-0.2865462005138397
1772717706139520000,2.92252001953125,0.30830663442611694,0.1275791972875595,-0.47288787364959717
1772717706159392000,2.94239208984375,0.5112325549125671,0.6373506188392639,-0.904697835445404
1772717706179265000,2.96226513671875,0.9048591256141663,0.7150489687919617,-1.1634348630905151
1772717706199137000,2.982136962890625,1.1852809190750122,0.46186670660972595,-1.3657004833221436
1772717706219010000,3.002010009765625,1.5464411973953247,0.023448515683412552,-1.5004534721374512
1772717706238882000,3.021882080078125,2.229823112487793,-0.5397976040840149,-1.6263598203659058
1772717706258755000,3.041755126953125,3.3867056369781494,-1.2304850816726685,-1.6585333347320557
1772717706278626800,3.061626708984375,4.288293361663818,-1.5621569156646729,-1.4237614870071411
1772717706298500000,3.0815,4.116704940795898,-1.0070878267288208,-1.101778507232666
1772717706318372000,3.1013720703125,3.2454469203948975,-0.32362622022628784,-0.9741478562355042
1772717706338244900,3.121244873046875,2.604515314102173,-0.05501949042081833,-0.984941303730011
1772717706358117000,3.1411171875,2.4322919845581055,-0.2473425269126892,-0.8975822925567627
1772717706377990000,3.160989990234375,2.406447649002075,-0.5681949853897095,-0.5382736325263977
1772717706397862000,3.18086181640625,2.3031978607177734,-0.5561646223068237,-0.05523388832807541
1772717706417735200,3.200735107421875,2.1989262104034424,-0.431990385055542,0.3038299083709717
1772717706437607200,3.220607177734375,2.368265390396118,-0.3531217575073242,0.32203003764152527
1772717706457480000,3.24047998046875,2.676921844482422,-0.34626200795173645,0.26565223932266235
1772717706477352000,3.26035205078125,2.7275798320770264,-0.5371649265289307,0.35926032066345215
1772717706497225000,3.280224853515625,2.469758987426758,-0.823768675327301,0.46088603138923645
1772717706517097000,3.300096923828125,2.1737003326416016,-0.7935498952865601,0.33851954340934753
1772717706536970000,3.319969970703125,1.7238978147506714,-0.5060814023017883,0.17319437861442566
1772717706556842000,3.339842041015625,1.3196442127227783,-0.2528681755065918,0.24966709315776825
1772717706576715000,3.359715087890625,0.935444176197052,-0.37723082304000854,0.6658436059951782
1772717706596587000,3.3795869140625,0.45830994844436646,-0.6985867619514465,1.2034436464309692
1772717706616460000,3.3994599609375,-0.17816026508808136,-1.0516971349716187,1.8567365407943726
1772717706636332000,3.41933203125,-0.8524535298347473,-1.6226773262023926,2.4186208248138428
1772717706656205000,3.439205078125,-1.635046124458313,-1.9652243852615356,2.4173505306243896
1772717706676077000,3.4590771484375,-2.642738103866577,-1.4759424924850464,1.9856135845184326
1772717706695950000,3.4789501953125,-3.3194456100463867,-1.3391108512878418,1.5412867069244385
1772717706715822000,3.498822021484375,-3.484105110168457,-2.013146162033081,1.3776040077209473
1772717706735695000,3.518695068359375,-3.7712786197662354,-2.5201687812805176,1.311006784439087
1772717706755567000,3.538567138671875,-4.665451526641846,-2.3056201934814453,1.1448315382003784
1772717706775440000,3.55843994140625,-5.612673759460449,-1.601022481918335,0.5921164155006409
1772717706795311900,3.578311767578125,-6.258208274841309,-0.44130727648735046,-0.10063306987285614
1772717706815185200,3.59818505859375,-6.868762969970703,0.5680372714996338,-0.8166765570640564
1772717706835057000,3.618056884765625,-7.328249454498291,0.89466792345047,-1.0335187911987305
1772717706854930000,3.637929931640625,-7.156322002410889,0.6379488706588745,-0.4002304971218109
1772717706874802200,3.65780224609375,-6.534269332885742,0.093427874147892,0.6414228677749634
1772717706894675000,3.677675048828125,-5.813129901885986,-0.2646213173866272,1.5299285650253296
1772717706914547000,3.697546875,-5.089511871337891,-0.8002656698226929,1.6797151565551758
1772717706934420200,3.717420166015625,-4.089763641357422,-1.0004936456680298,1.1586503982543945
1772717706954292000,3.7372919921875,-3.213890790939331,-0.8904561400413513,0.736278235912323
1772717706974164000,3.7571640625,-2.52123761177063,-0.5588091611862183,0.7642899751663208
1772717706994037200,3.777037353515625,-2.110367774963379,-0.5599372982978821,1.2419874668121338
1772717707013910000,3.796909912109375,-1.9123613834381104,-0.844818115234375,1.2696528434753418
1772717707033782000,3.816781982421875,-1.7439823150634766,-0.8806273937225342,0.42142167687416077
1772717707053655000,3.836655029296875,-1.3561887741088867,-0.8169037699699402,-0.42715752124786377
1772717707073527000,3.856527099609375,-0.8728682398796082,-0.4892600178718567,-0.7529392242431641
1772717707093400000,3.876400146484375,-0.39539986848831177,0.068692646920681,-0.6511881947517395
1772717707113272000,3.89627197265625,0.11742594093084335,0.31257903575897217,-0.6989779472351074
1772717707133145000,3.91614501953125,0.513424277305603,0.3195905089378357,-0.9291154742240906
1772717707153017000,3.93601708984375,0.7384883165359497,0.2954004406929016,-0.976953387260437
1772717707172889900,3.955889892578125,1.0378822088241577,0.33066341280937195,-0.6941798329353333
1772717707192762000,3.97576220703125,1.4377299547195435,0.4828697741031647,-0.10926277935504913
1772717707212635100,3.99563525390625,1.8120449781417847,0.6097838282585144,0.3576658070087433
1772717707232507000,4.0155068359375,2.211444616317749,0.6361547112464905,0.3131886422634125
1772717707252380200,4.035380126953125,2.543649435043335,0.6141740679740906,-0.0011879373341798782
1772717707272252200,4.055252197265625,2.705329179763794,0.3933337926864624,-0.0666617825627327
1772717707292124200,4.075124267578125,2.775482416152954,0.1723707914352417,0.2467036098241806
1772717707311997000,4.094996826171875,2.7731523513793945,0.2617061138153076,0.4380929470062256
1772717707331870000,4.114869873046875,2.720425844192505,0.38645288348197937,0.08690201491117477
1772717707351742000,4.134741943359375,2.859970808029175,0.20949572324752808,-0.28284770250320435
1772717707371615200,4.154615234375,2.9963982105255127,-0.10451367497444153,-0.21153639256954193
1772717707391487200,4.1744873046875,3.1627891063690186,-0.221696138381958,0.0912204161286354
1772717707411359000,4.19435888671875,3.275973081588745,-0.03495275229215622,0.060489967465400696
1772717707431232000,4.21423193359375,3.352886199951172,0.41351380944252014,-0.4531180262565613
1772717707451104300,4.234104248046875,3.5822231769561768,0.7388688325881958,-0.8619676828384399
1772717707470977000,4.25397705078125,4.014618396759033,0.5485342741012573,-0.5798878073692322
1772717707490849000,4.27384912109375,4.318062782287598,0.3473815321922302,-0.31405362486839294
1772717707510722000,4.29372216796875,4.35093879699707,0.574787974357605,-0.7613855004310608
1772717707530594000,4.313593994140625,4.318160533905029,0.8593460321426392,-1.4112354516983032
1772717707550467000,4.333467041015625,4.581642150878906,1.0765053033828735,-1.5372624397277832
1772717707570339000,4.353339111328125,5.165503025054932,0.7877056002616882,-1.3194701671600342
1772717707590212000,4.373212158203125,5.747189044952393,-0.2285841852426529,-1.3697773218154907
1772717707610084000,4.393083984375,5.564116954803467,-1.034142017364502,-0.9197036623954773
1772717707629956900,4.412956787109375,4.63461971282959,-1.0440406799316406,0.03916579484939575
1772717707649829000,4.4328291015625,3.4865641593933105,-0.2974749207496643,0.5900525450706482
1772717707669702100,4.4527021484375,2.692762613296509,0.4420904219150543,0.5544643998146057
1772717707689575000,4.472574951171875,2.3450839519500732,0.4282708764076233,0.5666837692260742
1772717707709447200,4.492447265625,2.0644326210021973,-0.23349227011203766,0.9077215194702148
1772717707729319200,4.512319091796875,1.491701364517212,-0.6352367997169495,1.1066009998321533
1772717707749192000,4.53219189453125,0.7321475744247437,-0.4926559627056122,0.8338485956192017
1772717707769064000,4.55206396484375,0.05120645463466644,-0.25488051772117615,0.41769400238990784
1772717707788937200,4.571937255859375,-0.47501641511917114,-0.2728235721588135,0.2861133813858032
1772717707808809000,4.59180908203125,-0.9137533903121948,-0.44569265842437744,0.3548903465270996
1772717707828682000,4.611681884765625,-1.315954327583313,-0.5648226141929626,0.5242051482200623
1772717707848554200,4.63155419921875,-1.7732877731323242,-0.40102267265319824,0.6782284379005432
1772717707868427000,4.651427001953125,-2.2923672199249268,-0.16823217272758484,0.6551231145858765
1772717707888299000,4.671299072265625,-2.6929938793182373,-0.07260110974311829,0.5569621920585632
1772717707908172000,4.691172119140625,-2.8906049728393555,-0.2740163803100586,0.5637058615684509
1772717707928044000,4.7110439453125,-2.924553632736206,-0.5873834490776062,0.6568704843521118
1772717707947917000,4.7309169921875,-2.907135009765625,-0.5875667929649353,0.6502059698104858
1772717707967789000,4.7507890625,-2.9365625381469727,-0.3111761510372162,0.5479905605316162
1772717707987662000,4.770662109375,-2.987950086593628,-0.13335326313972473,0.4207458198070526
1772717708007534000,4.7905341796875,-3.0452606678009033,-0.3402370810508728,0.4417482614517212
1772717708027406800,4.81040673828125,-3.0624074935913086,-0.6148510575294495,0.5184361338615417
1772717708047279000,4.830279052734375,-3.0839993953704834,-0.6459179520606995,0.47030216455459595
1772717708067152100,4.850152099609375,-3.1422226428985596,-0.3541513681411743,0.33404773473739624
1772717708087023900,4.87002392578125,-3.175076723098755,0.020557327196002007,0.21700464189052582
1772717708106897200,4.889897216796875,-3.07661509513855,0.21502724289894104,0.15517409145832062
1772717708126769200,4.90976904296875,-2.857954740524292,0.09953652322292328,0.19077721238136292
1772717708146642000,4.929641845703125,-2.6209585666656494,-0.18699778616428375,0.3294237554073334
1772717708166514000,4.949513916015625,-2.4003231525421143,-0.3709826171398163,0.4498538374900818
1772717708186387000,4.969386962890625,-2.1629397869110107,-0.32405486702919006,0.3742510676383972
1772717708206259000,4.989259033203125,-1.8832296133041382,-0.11712625622749329,0.1942335069179535
1772717708226132000,5.009132080078125,-1.565423846244812,0.1516035944223404,0.05984506383538246
1772717708246004200,5.029004150390625,-1.1690691709518433,0.2529182434082031,0.07642862945795059
1772717708265877000,5.048876953125,-0.7481371760368347,0.10877902060747147,0.22390294075012207
1772717708285749000,5.0687490234375,-0.36397382616996765,-0.1543395221233368,0.3783527612686157
1772717708305622000,5.0886220703125,0.009607391431927681,-0.27511051297187805,0.367093026638031
1772717708325494000,5.108493896484375,0.38683319091796875,-0.14407548308372498,0.21237914264202118
1772717708345367000,5.128366943359375,0.7737060189247131,0.11110514402389526,0.06322135776281357
1772717708365238800,5.14823876953125,1.2008512020111084,0.288119375705719,-0.01605932042002678
1772717708385112000,5.168112060546875,1.6132349967956543,0.31603556871414185,0.04009455814957619
1772717708404984000,5.187984130859375,1.923582673072815,0.22162190079689026,0.11273689568042755
1772717708424856800,5.20785693359375,2.109379291534424,0.07551013678312302,0.18306921422481537
1772717708444729000,5.22772900390625,2.1146578788757324,-0.12215320765972137,0.220867320895195
1772717708464602000,5.24760205078125,2.072753429412842,-0.09245151281356812,0.11437200009822845
1772717708484473900,5.267473876953125,2.1647095680236816,0.07926352322101593,-0.0751103088259697
1772717708504347100,5.28734716796875,2.442824602127075,0.11968941241502762,-0.17044712603092194
1772717708524219100,5.30721923828125,2.792638063430786,-0.1176353171467781,-0.025552649050951004
1772717708544092000,5.327091796875,3.007395029067993,-0.4801371991634369,0.23820869624614716
1772717708563964200,5.346964111328125,3.0686135292053223,-0.5001016855239868,0.23859144747257233
1772717708583837000,5.3668369140625,3.0609049797058105,-0.07785385847091675,-0.1081828847527504
1772717708603709000,5.386708984375,3.0594186782836914,0.389631450176239,-0.5060644745826721
1772717708623582200,5.406582275390625,3.075364828109741,0.6330957412719727,-0.6775488257408142
1772717708643454000,5.426453857421875,3.0675697326660156,0.5552955269813538,-0.5893614292144775
1772717708663327000,5.446326904296875,2.837938070297241,0.323567271232605,-0.4245671033859253
1772717708683199000,5.466198974609375,2.3819875717163086,0.22034716606140137,-0.26918065547943115
1772717708703072000,5.486072021484375,1.9329581260681152,0.22373126447200775,-0.1648336946964264
1772717708722944000,5.505944091796875,1.5675075054168701,0.2886744439601898,-0.13499003648757935
1772717708742817000,5.525817138671875,1.2294480800628662,0.3668460249900818,-0.1322779804468155
1772717708762689000,5.54568896484375,0.8559967279434204,0.4155150055885315,-0.10239338874816895
1772717708782562000,5.56556201171875,0.36788398027420044,0.4864208400249481,-0.0061483983881771564
1772717708802434000,5.58543408203125,-0.20388446748256683,0.5268714427947998,0.022532187402248383
1772717708822307000,5.60530712890625,-0.7080175280570984,0.5082957744598389,-0.027916844934225082
1772717708842179000,5.625178955078125,-1.1230931282043457,0.4987173080444336,-0.024527665227651596
1772717708862051800,5.6450517578125,-1.540204405784607,0.4854726195335388,0.13217513263225555
1772717708881923800,5.664923828125,-1.9134846925735474,0.5750580430030823,0.30576133728027344
1772717708901797000,5.684797119140625,-2.2538414001464844,0.7245489954948425,0.476108580827713
1772717708921669000,5.704669189453125,-2.6272010803222656,0.906578004360199,0.6623222231864929
1772717708941542000,5.7245419921875,-3.056338310241699,1.0014625787734985,0.8287254571914673
1772717708961414100,5.7444140625,-3.4033548831939697,0.9255388379096985,0.9286914467811584
1772717708981287000,5.764286865234375,-3.54469895362854,0.6596781611442566,0.988102376461029
1772717709001159200,5.7841591796875,-3.4602413177490234,0.2121085375547409,1.0714191198349
1772717709021032400,5.804032470703125,-3.281696081161499,-0.32297661900520325,1.2281123399734497
1772717709040904200,5.823904296875,-3.3056540489196777,-0.6536074280738831,1.2984048128128052
1772717709060777200,5.843777099609375,-3.486567974090576,-0.5146491527557373,1.2799421548843384
1772717709080649500,5.8636494140625,-3.6097567081451416,0.04175058379769325,1.1680145263671875
1772717709100522200,5.883522216796875,-3.6699957847595215,0.9036218523979187,0.9877385497093201
1772717709120394200,5.903394287109375,-3.680243968963623,1.8448638916015625,0.8819258809089661
1772717709140267300,5.923267333984375,-3.5626513957977295,2.7391018867492676,0.8175669312477112
1772717709160139300,5.94313916015625,-3.2199513912200928,3.472919225692749,0.7437386512756348
1772717709180012300,5.96301220703125,-2.725775957107544,4.011404037475586,0.5766726732254028
1772717709199884300,5.98288427734375,-2.340363025665283,4.492030620574951,0.28074324131011963
1772717709219757300,6.00275732421875,-1.8856842517852783,4.912354946136475,-0.026324566453695297
1772717709239629300,6.02262939453125,-1.4788981676101685,5.2432861328125,-0.3360525667667389
1772717709259502300,6.04250244140625,-1.1802806854248047,5.391087055206299,-0.43044501543045044
1772717709279374300,6.062374267578125,-0.7178723216056824,5.062982559204102,-0.1899060606956482
1772717709299247400,6.082247314453125,-0.2235955446958542,4.174553871154785,0.24063640832901
1772717709319119000,6.102119140625,0.007365495432168245,3.5516011714935303,0.2858143448829651
1772717709338992400,6.121992431640625,0.061277903616428375,3.6827611923217773,-0.1693035513162613
1772717709358864400,6.141864501953125,0.13874207437038422,3.739304780960083,-1.0945453643798828
1772717709378737200,6.161737060546875,0.161800816655159,2.9540693759918213,-1.7103266716003418
1772717709398609400,6.181609375,0.2620767056941986,2.132073402404785,-1.6885557174682617
1772717709418482200,6.201482177734375,0.4136340916156769,2.042236328125,-1.5744731426239014
1772717709438354200,6.221354248046875,0.4062937796115875,1.7348225116729736,-1.884137511253357
1772717709458227500,6.2412275390625,0.27932360768318176,1.4934097528457642,-2.2012250423431396
1772717709478099500,6.261099365234375,-0.034897200763225555,1.260874629020691,-2.151792049407959
1772717709497972200,6.28097216796875,-0.3565656840801239,0.7720738649368286,-1.7917253971099854
1772717709517844200,6.30084423828125,-0.4971526861190796,0.5170081853866577,-1.2941641807556152
1772717709537717200,6.32071728515625,0.007181089371442795,0.4455586373806,-0.8775117993354797
1772717709557589200,6.34058935546875,1.1282099485397339,0.2040824145078659,-0.5415038466453552
1772717709577462300,6.360462158203125,1.6033507585525513,-0.2243136316537857,-0.16854321956634521
1772717709597334300,6.380334228515625,1.2990312576293945,-0.2304818332195282,0.17843273282051086
1772717709617207300,6.400207275390625,1.0812535285949707,0.003983579576015472,0.4802730977535248
1772717709637079300,6.420079345703125,1.1468838453292847,-0.2921185791492462,0.622882604598999
1772717709656952300,6.439952392578125,1.2053167819976807,-0.4687266945838928,0.7835480570793152
1772717709676824300,6.45982421875,1.14262056350708,-0.41568097472190857,0.8199059367179871
1772717709696697300,6.479697265625,0.9517682790756226,-0.31490129232406616,0.617914617061615
1772717709716569300,6.4995693359375,0.6809337139129639,-0.18446016311645508,0.3018864691257477
1772717709736442400,6.5194423828125,0.4647476375102997,-0.15137434005737305,0.11957212537527084
1772717709756314400,6.539314453125,0.24768444895744324,-0.3034920394420624,0.24794110655784607
1772717709776187400,6.5591875,0.03298032283782959,-0.30138495564460754,0.636502206325531
1772717709796059400,6.579059326171875,0.007225424982607365,-0.13657478988170624,0.9371436238288879
1772717709815932200,6.59893212890625,0.1334437131881714,-0.10498140752315521,1.0057141780853271
1772717709835804200,6.61880419921875,0.2455558180809021,-0.12344259768724442,0.9835271239280701
1772717709855677400,6.638677490234375,0.35990074276924133,-0.12497320771217346,0.8865596055984497
1772717709875549400,6.658549560546875,0.34472769498825073,-0.1972406953573227,0.7061966061592102
1772717709895422200,6.678422119140625,0.19330671429634094,-0.25393104553222656,0.5643051862716675
1772717709915294500,6.69829443359375,0.046867016702890396,-0.2736702859401703,0.5831957459449768
1772717709935167200,6.718167236328125,-0.027588967233896255,-0.2694624960422516,0.7215684652328491
1772717709955039200,6.738039306640625,-0.011365825310349464,-0.25740230083465576,0.7865471243858337
1772717709974912500,6.75791259765625,0.03600943833589554,-0.15050998330116272,0.7934485673904419
1772717709994784500,6.777784423828125,0.012861646711826324,0.007458054460585117,0.8894251585006714
1772717710014657500,6.797657470703125,-0.048920102417469025,0.11342018842697144,0.9979905486106873
1772717710034529500,6.817529541015625,0.17147685587406158,0.3186156451702118,1.1113038063049316
1772717710054402600,6.837402587890625,0.3350324034690857,0.49740070104599,1.206612229347229
1772717710074274600,6.857274658203125,0.75135737657547,0.5570143461227417,1.6281877756118774
1772717710094147300,6.877147216796875,1.3831015825271606,0.3485962748527527,2.2000012397766113
1772717710114019600,6.89701953125,1.5697816610336304,-0.18679486215114594,2.3773176670074463
1772717710133892600,6.916892578125,1.1338424682617188,-0.8110842704772949,2.1402242183685303
1772717710153764600,6.9367646484375,0.3560957610607147,-1.228441596031189,1.695878267288208
1772717710173637600,6.9566376953125,-0.3172931373119354,-1.2486029863357544,1.3076130151748657
1772717710193509600,6.976509521484375,-0.39720606803894043,-1.6609444618225098,1.0771656036376953
1772717710213382400,6.99638232421875,-0.050965722650289536,-2.4879562854766846,1.1375728845596313
1772717710233254400,7.01625439453125,0.16208267211914062,-3.402155637741089,1.2678292989730835
1772717710253127700,7.036127685546875,0.35163941979408264,-4.288145542144775,1.3598377704620361
1772717710272999400,7.05599951171875,0.694635272026062,-4.714406490325928,1.3637090921401978
1772717710292872400,7.07587255859375,0.9728776812553406,-5.203417778015137,1.3386539220809937
1772717710312744700,7.09574462890625,1.3892098665237427,-5.33505392074585,1.1768745183944702
1772717710332617500,7.115617431640625,2.0704030990600586,-4.913354396820068,0.8397479057312012
1772717710352489500,7.135489501953125,2.7019386291503906,-4.183474063873291,0.41475948691368103
1772717710372361500,7.155361572265625,3.3202831745147705,-3.2707326412200928,0.026021068915724754
1772717710392234500,7.175234375,3.851470470428467,-2.315119504928589,-0.3247760832309723
1772717710412106500,7.1951064453125,4.0566582679748535,-1.404140830039978,-0.7258477807044983
1772717710431979500,7.2149794921875,3.9369380474090576,-0.8220639228820801,-1.1397294998168945
1772717710451851500,7.2348515625,3.5717365741729736,-0.8091415762901306,-1.3761765956878662
1772717710471724500,7.254724609375,2.6551713943481445,-1.1181206703186035,-1.2763850688934326
1772717710491596500,7.274596435546875,1.6335134506225586,-1.1782805919647217,-1.1693055629730225
1772717710511469600,7.294469482421875,1.0557668209075928,-0.5169961452484131,-1.4614061117172241
1772717710531341600,7.314341552734375,1.3457661867141724,0.13821741938591003,-2.1660313606262207
1772717710551214300,7.33421435546875,2.043266534805298,0.23977665603160858,-3.1164541244506836
1772717710571086300,7.35408642578125,2.8670878410339355,0.43885907530784607,-4.427085876464844
1772717710590959600,7.373959716796875,3.9788296222686768,-0.3190857470035553,-5.386721611022949
1772717710610831600,7.39383154296875,5.068498134613037,-1.5935667753219604,-4.8621649742126465
1772717710630704400,7.413704345703125,5.604995250701904,-1.87621009349823,-3.471513509750366
1772717710650576600,7.43357666015625,5.420291900634766,-1.345908761024475,-2.0915229320526123
1772717710670449400,7.453449462890625,4.927621364593506,-0.9205341339111328,-1.1882277727127075
1772717710690321400,7.4733212890625,4.2930827140808105,-1.1852426528930664,-0.3005056083202362
1772717710710194700,7.493194580078125,3.6497538089752197,-1.045015811920166,0.20281550288200378
1772717710730066400,7.51306640625,3.1204166412353516,-0.21254636347293854,-0.10125350952148438
1772717710749939500,7.532939453125,2.5070760250091553,0.7285847663879395,-0.5731375217437744
1772717710769811700,7.552811767578125,1.8432235717773438,1.3301194906234741,-0.6433777809143066
1772717710789684500,7.5726845703125,1.3417760133743286,1.3144488334655762,-0.40251824259757996
1772717710809556500,7.592556396484375,0.9711727499961853,0.7031700611114502,-0.0006460919976234436
1772717710829429500,7.612429443359375,0.42003288865089417,-0.03931744024157524,0.5272573828697205
1772717710849301500,7.632301513671875,-0.22589172422885895,-0.33928847312927246,0.8394029140472412
1772717710869174500,7.652174560546875,-0.614935040473938,-0.23628538846969604,0.8252498507499695
1772717710889046500,7.672046630859375,-0.8515824675559998,-0.19430837035179138,0.8278826475143433
1772717710908919600,7.69191943359375,-1.1056544780731201,-0.43699684739112854,1.0332114696502686
1772717710928791600,7.71179150390625,-1.4978687763214111,-0.7609984874725342,1.3674626350402832
1772717710948664300,7.731664306640625,-1.9323058128356934,-0.9400542974472046,1.5835273265838623
1772717710968536600,7.75153662109375,-2.3445496559143066,-0.9149382710456848,1.6631560325622559
1772717710988409600,7.77140966796875,-2.7015011310577393,-0.8024209141731262,1.7132457494735718
1772717711008281300,7.79128125,-3.0248117446899414,-0.6036427617073059,1.804915189743042
1772717711028154400,7.811154296875,-3.2980105876922607,-0.35153016448020935,1.9112924337387085
1772717711048026400,7.8310263671875,-3.326655149459839,-0.007642025128006935,1.9102587699890137
1772717711067899100,7.850899169921875,-3.276047468185425,0.09843482077121735,1.9255963563919067
1772717711087771400,7.870771484375,-3.0549817085266113,-0.17030087113380432,1.9516549110412598
1772717711107644400,7.89064453125,-2.717757225036621,-0.6272432208061218,2.030900478363037
1772717711127516200,7.91051611328125,-2.3930039405822754,-0.9903004765510559,2.1542441844940186
1772717711147389400,7.930389404296875,-2.216097354888916,-0.7993261814117432,2.2045462131500244
1772717711167261400,7.950261474609375,-2.207683801651001,-0.31120601296424866,2.1750552654266357
1772717711187134200,7.97013427734375,-2.2902257442474365,0.06049804016947746,2.0584421157836914
1772717711207006200,7.990006103515625,-2.4106056690216064,0.16579802334308624,1.9565860033035278
1772717711226879200,8.009879150390624,-2.3712990283966064,0.41136956214904785,1.7402411699295044
1772717711246751200,8.029751220703124,-2.221839427947998,0.9388057589530945,1.480223298072815
1772717711266624300,8.049624267578125,-2.048825979232788,1.7219762802124023,1.1456007957458496
1772717711286496500,8.06949658203125,-1.7675316333770752,2.4494011402130127,0.8368762731552124
1772717711306369300,8.089369384765625,-1.618092656135559,2.889496326446533,0.8243765830993652
1772717711326241300,8.1092412109375,-1.6251566410064697,3.2098913192749023,0.8470930457115173
1772717711346114300,8.1291142578125,-1.5219298601150513,3.7226953506469727,0.5782605409622192
1772717711365986300,8.148986328125,-1.3826433420181274,4.312535285949707,0.20684832334518433
1772717711385859300,8.168859375,-1.1722440719604492,4.539097785949707,0.062103256583213806
1772717711405731300,8.1887314453125,-0.9431329965591431,4.298266887664795,0.2816479802131653
1772717711425604400,8.208604248046875,-0.7981366515159607,3.911841869354248,0.7722898721694946
1772717711445476400,8.228476318359375,-0.6390972137451172,3.397953510284424,1.2019827365875244
1772717711465349000,8.24834912109375,-0.4594385325908661,2.8410377502441406,1.4219471216201782
1772717711485221400,8.268221435546875,-0.2976611852645874,2.5148768424987793,1.3879286050796509
1772717711505094400,8.288094482421876,-0.1201261356472969,2.498974561691284,1.0870188474655151
1772717711524966100,8.307966064453124,0.03679068014025688,2.612124443054199,0.6497784852981567
1772717711544839400,8.32783935546875,0.07095696032047272,2.6202051639556885,0.3450354039669037
1772717711564711400,8.34771142578125,0.033555299043655396,2.4670581817626953,0.22895145416259766
1772717711584584200,8.367584228515625,0.020646078512072563,2.2142691612243652,0.11246488243341446
1772717711604456400,8.38745654296875,0.018038680776953697,1.9796624183654785,-0.11255347728729248
1772717711624329200,8.4073291015625,0.07358384877443314,1.8215700387954712,-0.2821710407733917
1772717711644201200,8.427201171875,0.12763117253780365,1.7056752443313599,-0.492849737405777
1772717711664074500,8.447074462890624,0.10358832031488419,1.5824358463287354,-0.7312648296356201
1772717711683946500,8.466946533203124,0.16512061655521393,1.6100568771362305,-1.0439834594726562
1772717711703819300,8.4868193359375,0.15068258345127106,1.6254011392593384,-1.398728847503662
1772717711723691300,8.506691162109375,0.06846065074205399,1.5783495903015137,-1.6527260541915894
1772717711743564300,8.526564208984375,-0.15035350620746613,1.25792396068573,-1.4874264001846313
1772717711763436300,8.546436279296875,-0.289441853761673,0.4839610159397125,-0.8463778495788574
1772717711783309300,8.566309326171876,-0.3337971568107605,-0.12449190020561218,-0.15863853693008423
1772717711803181300,8.586181396484376,-0.32430827617645264,0.3766523599624634,0.21099288761615753
1772717711823054300,8.606054443359374,-0.006568198557943106,1.2990213632583618,0.016431212425231934
1772717711842926300,8.62592626953125,-0.15519027411937714,1.4485856294631958,-0.315157026052475
1772717711862799400,8.64579931640625,-0.31628453731536865,0.3444633483886719,-0.4173071086406708
1772717711882671400,8.66567138671875,-0.3355274200439453,0.3639671206474304,-0.32902202010154724
1772717711902544400,8.68554443359375,-0.2860206365585327,0.496066689491272,-0.6320421099662781
1772717711922416000,8.705416015625,-0.3318096101284027,0.28706738352775574,-0.6213650107383728
1772717711942289400,8.725289306640626,-0.5217560529708862,-0.17281493544578552,-0.4959273040294647
1772717711962161400,8.745161376953124,-0.6058340668678284,-0.09321550279855728,-0.5350282192230225
1772717711982034200,8.7650341796875,-0.5936324596405029,0.3001779615879059,-0.7042996287345886
1772717712001905700,8.78490576171875,-0.6027203798294067,0.8994113206863403,-0.9046049118041992
1772717712021779000,8.804779052734375,-0.7438379526138306,1.1961573362350464,-1.0678784847259521
1772717712041650700,8.824650634765625,-0.8666428923606873,0.6946577429771423,-1.0001778602600098
1772717712061523700,8.844523681640625,-0.8286606073379517,-0.17978763580322266,-0.731531023979187
1772717712081396000,8.86439599609375,-0.6286300420761108,-0.4468076229095459,-0.04645256698131561
1772717712101268700,8.884268798828124,-0.584120512008667,-0.40991976857185364,0.9464066028594971
1772717712121140700,8.904140625,-0.568229615688324,-0.5226227045059204,1.66927170753479
1772717712141013800,8.924013671875,-0.372224360704422,-1.0239064693450928,1.6855627298355103
1772717712160885800,8.9438857421875,-0.24638354778289795,-1.1442439556121826,1.4302984476089478
1772717712180758800,8.9637587890625,-0.032822586596012115,-0.5755693316459656,1.1153303384780884
1772717712200630800,8.983630859375,0.21488593518733978,0.14861194789409637,0.5646131634712219
1772717712220503800,9.00350390625,0.31881576776504517,0.476514607667923,0.016224415972828865
1772717712240375800,9.023375732421876,0.29233282804489136,0.34555304050445557,-0.281284362077713
1772717712260248600,9.04324853515625,0.3235809803009033,0.03165335953235626,-0.13114646077156067
1772717712280120800,9.063120849609374,0.4002821743488312,-0.09783539175987244,0.2079668790102005
1772717712299993900,9.082993896484375,0.4467419683933258,-0.02624877542257309,0.42349475622177124
1772717712319865600,9.102865478515625,0.4689842164516449,0.03935619071125984,0.435698926448822
1772717712339739000,9.12273876953125,0.5187907218933105,0.18192309141159058,0.3015262484550476
1772717712359611000,9.14261083984375,0.5394740104675293,0.03951252996921539,0.0664181038737297
1772717712379483600,9.162483642578126,0.5057310461997986,-0.48037901520729065,0.12710405886173248
1772717712399355600,9.182355712890624,0.10499276220798492,-0.7009766101837158,-0.18667937815189362
1772717712419228700,9.202228759765624,-0.36517488956451416,-0.45564892888069153,-0.48877090215682983
1772717712439100700,9.2221005859375,-0.47161510586738586,-0.00641860393807292,-0.466519832611084
