time,seconds_elapsed,z,y,x
1772717677526861300,0.061861328125,-0.007113036699593067,-0.04993906244635582,-0.035897281020879745
1772717677546734300,0.081734375,0.01076609455049038,-0.016712933778762817,0.05235881358385086
1772717677566606300,0.1016064453125,0.03504054248332977,0.039869651198387146,0.0349087156355381
1772717677586479000,0.12147900390625,0.03351268544793129,0.08872800320386887,-0.040528517216444016
1772717677606351400,0.141351318359375,0.005567871034145355,0.17730873823165894,-0.05924654379487038
1772717677626224400,0.161224365234375,-0.00609304616227746,0.23682932555675507,0.04547720402479172
1772717677646096100,0.18109619140625,-0.03039359115064144,0.15252456068992615,0.1567011922597885
1772717677665969400,0.200969482421875,-0.130547896027565,0.08263735473155975,0.1511937826871872
1772717677685841400,0.22084130859375,-0.21125897765159607,0.05284483730792999,0.01782054267823696
1772717677705714200,0.240714111328125,-0.23553289473056793,0.016088688746094704,-0.11097152531147003
1772717677725586200,0.260586181640625,-0.3374811112880707,-0.03491564095020294,-0.16076970100402832
1772717677745459200,0.280459228515625,-0.39607223868370056,-0.27425631880760193,-0.185690239071846
1772717677765331200,0.300331298828125,-0.46646037697792053,-0.5875183939933777,-0.08266611397266388
1772717677785204200,0.320204345703125,-0.5175882577896118,-0.9175809621810913,0.11602167785167694
1772717677805076500,0.340076416015625,-0.46161529421806335,-1.0899529457092285,0.3293653726577759
1772717677824949200,0.35994921875,-0.38539907336235046,-1.1655350923538208,0.27461159229278564
1772717677844821200,0.3798212890625,-0.47468769550323486,-1.469103217124939,0.10444944351911545
1772717677864694300,0.3996943359375,-0.5874954462051392,-0.8137014508247375,0.19693490862846375
1772717677884566300,0.419566162109375,-0.5277394652366638,-0.39939984679222107,0.07506758719682693
1772717677904439300,0.439439208984375,-0.39498966932296753,0.019575033336877823,-0.19924412667751312
1772717677924311000,0.45931103515625,-0.1576298475265503,0.6640445590019226,-0.545060932636261
1772717677944184300,0.479184326171875,0.0636889636516571,1.180983543395996,-0.8168008327484131
1772717677964055800,0.499055908203125,-0.059902217239141464,0.8915421962738037,-0.7163501381874084
1772717677983928800,0.5189287109375,-0.137984499335289,0.5498991012573242,-0.5763802528381348
1772717678003800800,0.53880078125,-0.09452197700738907,0.3084646165370941,-0.35047972202301025
1772717678023673900,0.558673828125,-0.07252053916454315,-1.0056424140930176,0.10946018248796463
1772717678043545600,0.578545654296875,0.016870858147740364,-1.8545825481414795,0.968702495098114
1772717678063419000,0.5984189453125,0.1542588174343109,-2.6406049728393555,1.7360659837722778
1772717678083291000,0.618290771484375,0.08082587271928787,-3.6858160495758057,1.859571933746338
1772717678103164000,0.638163818359375,0.27949637174606323,-5.234810829162598,1.3781895637512207
1772717678123036000,0.658035888671875,0.19291406869888306,-5.7460432052612305,0.7675118446350098
1772717678142909000,0.677908935546875,-0.39717158675193787,-4.766270160675049,-0.04764501750469208
1772717678162780700,0.69778076171875,-0.8049390912055969,-3.332153081893921,-0.5191488862037659
1772717678182654000,0.717654052734375,0.21182356774806976,-2.6807613372802734,-0.6978981494903564
1772717678202526000,0.73752587890625,1.925618052482605,-2.028765916824341,-1.3579338788986206
1772717678222398700,0.757398681640625,2.6751277446746826,-2.3709070682525635,-1.8843986988067627
1772717678242272000,0.77727197265625,2.6621034145355225,-2.6477973461151123,-1.6978352069854736
1772717678262143700,0.797143798828125,2.2222213745117188,-3.5917537212371826,-0.6878916025161743
1772717678282016800,0.817016845703125,2.049556016921997,-4.677608966827393,0.4686116874217987
1772717678301889000,0.836888916015625,2.15104603767395,-5.0196099281311035,0.8196948766708374
1772717678321761800,0.85676171875,2.1972432136535645,-4.963316440582275,0.9562867879867554
1772717678341633800,0.8766337890625,2.3630805015563965,-4.956188678741455,1.2524484395980835
1772717678361506800,0.8965068359375,2.994429349899292,-4.69849157333374,1.4949545860290527
1772717678381378800,0.91637890625,4.090062618255615,-3.778219223022461,0.9519602656364441
1772717678401251800,0.936251953125,4.854683876037598,-2.477212429046631,0.1916586458683014
1772717678421123800,0.956123779296875,5.1419596672058105,-1.9786056280136108,-0.03508315235376358
1772717678440996900,0.975996826171875,5.463562488555908,-1.8202511072158813,0.21915072202682495
1772717678460868900,0.995868896484375,5.872049808502197,-1.5100786685943604,0.3238968551158905
1772717678480741600,1.01574169921875,6.315766334533691,-0.9695307016372681,0.14138828217983246
1772717678500614000,1.03561376953125,6.670368194580078,-0.3819692134857178,-0.1989077776670456
1772717678520487000,1.05548681640625,6.711342811584473,0.11222907155752182,-0.33939671516418457
1772717678540358700,1.075358642578125,6.3996992111206055,0.31933271884918213,-0.2188471257686615
1772717678560232000,1.09523193359375,5.7724995613098145,0.22759054601192474,0.008039550855755806
1772717678580104000,1.11510400390625,5.084721088409424,0.0036005936563014984,0.1845027357339859
1772717678599976700,1.134976806640625,4.466253280639648,-0.4401446282863617,0.11479715257883072
1772717678619848700,1.1548486328125,3.6172266006469727,-0.46531787514686584,-0.17399123311042786
1772717678639722000,1.174721923828125,2.175428867340088,-0.008208128623664379,-0.4783697724342346
1772717678659593700,1.19459375,0.7420754432678223,0.476285845041275,-0.5212008357048035
1772717678679466800,1.214466796875,-0.06527860462665558,1.0710448026657104,-0.3224933445453644
1772717678699339000,1.234339111328125,-0.1468759924173355,1.7361743450164795,-0.3200879991054535
1772717678719211800,1.254211669921875,0.26072320342063904,2.17224383354187,-0.5016500353813171
1772717678739083800,1.274083740234375,0.7150813937187195,2.084162950515747,-0.5997864603996277
1772717678758956800,1.293956787109375,0.8527830839157104,1.6169542074203491,-0.5201361179351807
1772717678778828800,1.313828857421875,0.7645367980003357,1.0093636512756348,-0.31893908977508545
1772717678798701800,1.333701904296875,0.698232114315033,0.35933658480644226,0.00697774812579155
1772717678818573800,1.35357373046875,0.7335629463195801,-0.2749471366405487,0.30365362763404846
1772717678838446800,1.37344677734375,0.7820726633071899,-0.6894399523735046,0.5024687051773071
1772717678858318800,1.39331884765625,0.6894993185997009,-0.9927479028701782,0.7010473012924194
1772717678878191900,1.41319189453125,0.4185780882835388,-1.120699405670166,0.8475880026817322
1772717678898064000,1.43306396484375,-0.049303099513053894,-1.0039550065994263,0.8559916615486145
1772717678917937000,1.45293701171875,-0.5686517357826233,-0.6998497247695923,0.6938725113868713
1772717678937808600,1.47280859375,-0.9832931160926819,-0.375870019197464,0.5146108865737915
1772717678957683000,1.492682861328125,-1.2929446697235107,-0.16762948036193848,0.425737202167511
1772717678977554700,1.5125546875,-1.5811147689819336,-0.021887987852096558,0.33787551522254944
1772717678997428000,1.532427978515625,-1.8097132444381714,0.043288350105285645,0.26642104983329773
1772717679017300000,1.552300048828125,-1.9005382061004639,-0.02900262363255024,0.3305760622024536
1772717679037172700,1.5721728515625,-1.8923308849334717,-0.24540309607982635,0.42986881732940674
1772717679057045000,1.592044921875,-1.966949224472046,-0.5094707012176514,0.4812113642692566
1772717679076917800,1.611917724609375,-2.2235496044158936,-0.6634141802787781,0.46324434876441956
1772717679096789800,1.631789794921875,-2.634552478790283,-0.7392823100090027,0.5113112330436707
1772717679116663000,1.6516630859375,-3.0529887676239014,-0.8732313513755798,0.6862428188323975
1772717679136535800,1.671535888671875,-3.398026466369629,-0.897506594657898,0.8910646438598633
1772717679156407800,1.69140771484375,-3.81390118598938,-1.0308949947357178,1.166693091392517
1772717679176281000,1.711281005859375,-4.108170032501221,-1.2799692153930664,1.3784101009368896
1772717679196152800,1.73115283203125,-4.00218391418457,-1.3684394359588623,1.28282630443573
1772717679216025900,1.75102587890625,-3.618938684463501,-1.0658646821975708,0.6882356405258179
1772717679235897900,1.77089794921875,-3.185945749282837,-0.361031174659729,-0.30830058455467224
1772717679255771000,1.79077099609375,-3.036564826965332,0.15668974816799164,-0.8845934271812439
1772717679275643000,1.810642822265625,-3.1195578575134277,0.2427777647972107,-0.917980968952179
1772717679295515600,1.830515625,-3.18072247505188,0.15122440457344055,-0.6861341595649719
1772717679315388000,1.850387939453125,-3.1116206645965576,0.09939636290073395,-0.42352649569511414
1772717679335261000,1.870260986328125,-2.907284736633301,0.014421815983951092,-0.2463008463382721
1772717679355133000,1.8901328125,-2.6278269290924072,-0.13726358115673065,-0.12017913907766342
1772717679375006000,1.910005859375,-2.338762044906616,-0.3114401698112488,0.03936844319105148
1772717679394878000,1.9298779296875,-2.0816428661346436,-0.4586203098297119,0.18594910204410553
1772717679414750700,1.949750732421875,-1.7905824184417725,-0.5126473307609558,0.2586571276187897
1772717679434622700,1.969622802734375,-1.4797154664993286,-0.46461454033851624,0.2772417366504669
1772717679454496000,1.98949609375,-1.1468870639801025,-0.32430723309516907,0.21365396678447723
1772717679474367700,2.00936767578125,-0.8137618899345398,-0.1402101069688797,0.0067817396484315395
1772717679494241000,2.029240966796875,-0.4981381595134735,0.02840953692793846,-0.29854273796081543
1772717679514113000,2.049113037109375,-0.22207114100456238,0.19984494149684906,-0.6007491946220398
1772717679533985800,2.06898583984375,0.051540955901145935,0.36855167150497437,-0.7864594459533691
1772717679553857800,2.08885791015625,0.3457843065261841,0.4911065995693207,-0.8778034448623657
1772717679573731000,2.10873095703125,0.6814336776733398,0.5373318791389465,-0.8899186849594116
1772717679593602800,2.128602783203125,1.0293400287628174,0.48598960041999817,-0.7715763449668884
1772717679613475800,2.148475830078125,1.3609507083892822,0.425808310508728,-0.5482330322265625
1772717679633348000,2.16834814453125,1.6652370691299438,0.35630086064338684,-0.34836968779563904
1772717679653220900,2.188220947265625,2.0061559677124023,0.27362221479415894,-0.27804574370384216
1772717679673092900,2.2080927734375,2.4278109073638916,0.20215363800525665,-0.316201388835907
1772717679692966000,2.2279658203125,2.8980276584625244,0.11940202862024307,-0.3765917420387268
1772717679712838000,2.247837890625,3.367219924926758,0.028972528874874115,-0.403997540473938
1772717679732711000,2.2677109375,3.7164132595062256,-0.13642868399620056,-0.2996085584163666
1772717679752583000,2.2875830078125,4.010810375213623,-0.3963433504104614,-0.18233466148376465
1772717679772456000,2.3074560546875,4.298246383666992,-0.5915895104408264,-0.16486431658267975
1772717679792328000,2.327327880859375,4.459975242614746,-0.6210888624191284,-0.2612667679786682
1772717679812200700,2.34720068359375,4.518009185791016,-0.5794681906700134,-0.4782712459564209
1772717679832073000,2.367072998046875,4.5378828048706055,-0.2246434986591339,-0.8447139263153076
1772717679851946000,2.386946044921875,4.361337661743164,0.3018655776977539,-1.1993873119354248
1772717679871817700,2.406817626953125,3.822629451751709,0.8165960311889648,-1.5538897514343262
1772717679891691000,2.42669091796875,3.022799491882324,1.3979792594909668,-1.6923770904541016
1772717679911563000,2.44656298828125,2.2027664184570312,1.6118084192276,-1.404999852180481
1772717679931435800,2.466435791015625,1.4931936264038086,1.4077399969100952,-0.8964410424232483
1772717679951307800,2.486307861328125,1.0867164134979248,1.103657603263855,-0.5600752830505371
1772717679971180800,2.506180908203125,1.0129705667495728,0.9542561769485474,-0.5803638100624084
1772717679991052800,2.526052734375,1.1327515840530396,0.9249169230461121,-0.8690259456634521
1772717680010925800,2.54592578125,1.2490159273147583,0.8732990026473999,-1.216929316520691
1772717680030798000,2.565798095703125,1.2508313655853271,0.8591431975364685,-1.3909263610839844
1772717680050670800,2.5856708984375,1.1457310914993286,0.9189892411231995,-1.3407362699508667
1772717680070542800,2.60554296875,0.9569637775421143,1.005107045173645,-1.130413293838501
1772717680090415900,2.625415771484375,0.6698955297470093,1.0232099294662476,-0.891524612903595
1772717680110288000,2.645287841796875,0.23714624345302582,0.9363149404525757,-0.5485730767250061
1772717680130161000,2.665160888671875,-0.3138766884803772,0.7752222418785095,-0.003085538512095809
1772717680150034000,2.685033935546875,-0.7758792042732239,0.5890595316886902,0.4800960421562195
1772717680169906000,2.704906005859375,-1.068302035331726,0.45734891295433044,0.7890581488609314
1772717680189778000,2.72477783203125,-1.1999958753585815,0.36146020889282227,0.9675948619842529
1772717680209650700,2.744650634765625,-1.3134832382202148,0.25132784247398376,1.0439716577529907
1772717680229524000,2.76452392578125,-1.5436736345291138,0.13114815950393677,0.9739046692848206
1772717680249396000,2.78439599609375,-1.775969386100769,0.14266712963581085,0.7320771217346191
1772717680269268700,2.804268798828125,-1.896549105644226,0.21766655147075653,0.3792184293270111
1772717680289141000,2.82414111328125,-1.9854813814163208,0.47194942831993103,-0.20278958976268768
1772717680309013800,2.844013671875,-2.2139127254486084,1.0072424411773682,-1.04371178150177
1772717680328885800,2.8638857421875,-2.5972673892974854,1.0843310356140137,-1.5774548053741455
1772717680348759000,2.883759033203125,-2.8611867427825928,0.5279330611228943,-1.028938889503479
1772717680368630800,2.903630859375,-2.887615442276001,-0.2216074913740158,0.022167086601257324
1772717680388503800,2.92350390625,-2.8968820571899414,-0.5610880851745605,0.6514264941215515
1772717680408375800,2.943375732421875,-3.060290575027466,-0.40191200375556946,0.7254578471183777
1772717680428248800,2.963248779296875,-3.401700258255005,-0.03534041345119476,0.40590009093284607
1772717680448120800,2.983120849609375,-3.795344352722168,0.17232196033000946,0.0368453674018383
1772717680467993900,3.002993896484375,-4.017758369445801,0.32813048362731934,-0.0964844599366188
1772717680487865900,3.022865966796875,-4.1432576179504395,0.42721444368362427,-0.07187392562627792
1772717680507739000,3.04273876953125,-4.195277214050293,0.47310149669647217,-0.051793422549963
1772717680527611000,3.06261083984375,-4.107311725616455,0.4953117370605469,-0.10612137615680695
1772717680547484000,3.08248388671875,-3.8692145347595215,0.5376597046852112,-0.18947991728782654
1772717680567356000,3.10235595703125,-3.481077194213867,0.5728355646133423,-0.25965234637260437
1772717680587228700,3.122228759765625,-2.91204571723938,0.4588584005832672,-0.3282897174358368
1772717680607100700,3.1421005859375,-2.2787671089172363,0.23935319483280182,-0.37886956334114075
1772717680626974000,3.161973876953125,-1.7156661748886108,0.025500299409031868,-0.24560976028442383
1772717680646845700,3.181845703125,-1.296325922012329,-0.14248338341712952,0.12377201020717621
1772717680666718700,3.20171875,-1.0470627546310425,-0.23062069714069366,0.5097854733467102
1772717680686591000,3.221591064453125,-0.917756199836731,-0.2814878821372986,0.7208308577537537
1772717680706463700,3.241463623046875,-0.7803828716278076,-0.31138691306114197,0.7293351292610168
1772717680726335700,3.261335693359375,-0.5496676564216614,-0.32479777932167053,0.6076247096061707
1772717680746209000,3.281208984375,-0.19987715780735016,-0.2726895809173584,0.4531070291996002
1772717680766080800,3.301080810546875,0.2554898262023926,-0.25293877720832825,0.2924736738204956
1772717680785953800,3.320953857421875,0.7934126853942871,-0.22563126683235168,0.14560140669345856
1772717680805826000,3.340825927734375,1.3211559057235718,-0.1900213360786438,0.10305368155241013
1772717680825698800,3.36069873046875,1.7527583837509155,-0.14523576200008392,0.20663253962993622
1772717680845570800,3.38057080078125,2.034508228302002,-0.1242162212729454,0.37302365899086
1772717680865443800,3.40044384765625,2.1981992721557617,-0.07977046072483063,0.38623663783073425
1772717680885315800,3.42031591796875,2.2904911041259766,0.030646592378616333,0.25292760133743286
1772717680905188900,3.44018896484375,2.3700742721557617,0.16665369272232056,0.04782184958457947
1772717680925060900,3.460060791015625,2.446561336517334,0.27562013268470764,-0.11202693730592728
1772717680944934000,3.479933837890625,2.5083281993865967,0.417338103055954,-0.21737253665924072
1772717680964805400,3.499805419921875,2.607128143310547,0.5333635210990906,-0.2632497549057007
1772717680984678400,3.519678466796875,2.8369462490081787,0.5692155361175537,-0.35478419065475464
1772717681004550400,3.53955029296875,3.227400541305542,0.5538309812545776,-0.5183318257331848
1772717681024423400,3.55942333984375,3.6654374599456787,0.6579675078392029,-0.7963885068893433
1772717681044295400,3.57929541015625,3.8570423126220703,1.041635274887085,-1.2663333415985107
1772717681064168400,3.59916845703125,3.939913034439087,1.6448087692260742,-1.8355525732040405
1772717681084040400,3.61904052734375,4.1667633056640625,2.0422980785369873,-2.212223529815674
1772717681103913500,3.63891357421875,4.2568559646606445,1.686660885810852,-2.273374080657959
1772717681123785500,3.658785400390625,3.9206860065460205,0.9431291818618774,-2.104564666748047
1772717681143658500,3.678658447265625,2.971416711807251,0.7184281945228577,-1.4655042886734009
1772717681163530200,3.6985302734375,1.649544358253479,0.7682988047599792,-0.9293090105056763
1772717681183403500,3.718403564453125,1.0832215547561646,0.87404865026474,-0.6131014823913574
1772717681203275500,3.738275634765625,1.0629972219467163,0.9651980400085449,-0.4471431374549866
1772717681223148300,3.758148193359375,1.1540182828903198,1.0172021389007568,-0.4165298342704773
1772717681243020500,3.7780205078125,1.158729910850525,0.7850748300552368,-0.36647891998291016
1772717681262893300,3.797893310546875,0.9915614724159241,0.417666494846344,-0.20906613767147064
1772717681282765300,3.817765380859375,0.758984386920929,-0.059487562626600266,-0.18423669040203094
1772717681302638600,3.837638671875,0.6582540273666382,-0.39143460988998413,-0.3984491229057312
1772717681322510600,3.857510498046875,0.6772264242172241,-0.6101038455963135,-0.5653901696205139
1772717681342383400,3.87738330078125,0.6030187606811523,-0.7721009850502014,-0.43346062302589417
1772717681362255600,3.897255615234375,0.34170860052108765,-0.842519223690033,-0.17844271659851074
1772717681382128400,3.91712841796875,-0.13883644342422485,-0.9327734708786011,-0.14840571582317352
1772717681402001400,3.93700146484375,-0.704367458820343,-1.025289535522461,-0.3369276821613312
1772717681421873700,3.956873779296875,-1.3641384840011597,-1.0050631761550903,-0.6239435076713562
1772717681441745400,3.976745361328125,-1.8604880571365356,-0.7316912412643433,-0.8352711796760559
1772717681461618400,3.996618408203125,-2.1519856452941895,-0.2797453701496124,-0.7182292342185974
1772717681481491500,4.016491455078125,-2.2050328254699707,-0.060143496841192245,-0.29919683933258057
1772717681501363500,4.036363525390625,-2.0420548915863037,-0.1514398604631424,0.24048450589179993
1772717681521236500,4.056236572265625,-1.8638079166412354,-0.3978954255580902,0.7868980765342712
1772717681541108500,4.0761083984375,-1.7571762800216675,-0.5926827788352966,1.2299470901489258
1772717681560981500,4.0959814453125,-1.622696042060852,-0.7624097466468811,1.3922384977340698
1772717681580853500,4.115853515625,-1.4537194967269897,-1.0501943826675415,1.4798831939697266
1772717681600726300,4.135726318359375,-1.400866150856018,-1.5847084522247314,1.7090250253677368
1772717681620598500,4.1555986328125,-1.5826373100280762,-2.4106717109680176,2.073451280593872
1772717681640471600,4.175471435546875,-1.9669204950332642,-3.156876564025879,2.4619808197021484
1772717681660343300,4.19534326171875,-2.4559524059295654,-3.5284879207611084,2.7438478469848633
1772717681680216600,4.215216552734375,-3.078700304031372,-3.3900861740112305,3.3515853881835938
1772717681700088600,4.235088623046875,-4.0903096199035645,-2.751192569732666,3.8255455493927
1772717681719961300,4.25496142578125,-4.915755271911621,-1.571838140487671,3.402264356613159
1772717681739833300,4.274833251953125,-5.203500747680664,-0.22730852663516998,2.541581869125366
1772717681759706600,4.29470654296875,-5.31378698348999,0.548050582408905,2.01070237159729
1772717681779578400,4.314578369140625,-5.340461254119873,0.8543492555618286,1.7790400981903076
1772717681799451400,4.334451416015625,-5.286481857299805,1.0439351797103882,1.7789002656936646
1772717681819323600,4.35432373046875,-5.125195503234863,1.079359531402588,1.9651644229888916
1772717681839196400,4.374196533203125,-4.801467418670654,1.0530306100845337,2.1114439964294434
1772717681859068400,4.394068359375,-4.292603015899658,1.1758726835250854,1.9991854429244995
1772717681878941400,4.41394140625,-3.722236394882202,1.335407018661499,1.7887533903121948
1772717681898813400,4.4338134765625,-3.178072452545166,1.5179847478866577,1.670082449913025
1772717681918686500,4.4536865234375,-2.642315149307251,1.6556869745254517,1.6138180494308472
1772717681938558500,4.473558349609375,-2.051161050796509,1.721937656402588,1.611642837524414
1772717681958431500,4.493431396484375,-1.5207594633102417,1.6411210298538208,1.7447657585144043
1772717681978303700,4.5133037109375,-1.1939078569412231,1.6327872276306152,1.9660099744796753
1772717681998176800,4.5331767578125,-0.9519876837730408,1.6635127067565918,2.057518243789673
1772717682018048800,4.553048828125,-0.648175060749054,1.6935749053955078,2.002790689468384
1772717682037921800,4.572921875,-0.3454093337059021,1.6340924501419067,1.9009443521499634
1772717682057793800,4.592793701171875,0.13113512098789215,1.5676279067993164,1.6989116668701172
1772717682077666800,4.612666748046875,0.7547252178192139,1.4600865840911865,1.5405694246292114
1772717682097538800,4.632538818359375,1.2974544763565063,1.1498064994812012,1.5525472164154053
1772717682117411800,4.652411865234375,1.7509971857070923,0.7121194005012512,1.5965831279754639
1772717682137283800,4.672283935546875,2.1033341884613037,0.1565946638584137,1.6452921628952026
1772717682157156600,4.692156494140625,2.3969151973724365,-0.3411485254764557,1.7322994470596313
1772717682177028600,4.712028564453125,2.8423075675964355,-0.6362185478210449,1.8568706512451172
1772717682196902000,4.73190185546875,3.3543341159820557,-0.9914586544036865,2.3125674724578857
1772717682216773600,4.751773681640625,3.251513957977295,-1.4393587112426758,3.243359088897705
1772717682236646700,4.771646728515625,2.584540843963623,-1.697654128074646,4.0814208984375
1772717682256519000,4.791518798828125,2.02264666557312,-1.4081735610961914,4.2425055503845215
1772717682276391700,4.8113916015625,1.882673740386963,-0.4272021949291229,3.393223762512207
1772717682296263700,4.831263671875,2.2424309253692627,0.6322171092033386,1.928234577178955
1772717682316137000,4.851136962890625,2.662515878677368,1.3065465688705444,0.8011710047721863
1772717682336008700,4.8710087890625,2.5385570526123047,1.2725036144256592,0.5464721322059631
1772717682355881700,4.8908818359375,2.1232802867889404,0.9566226601600647,0.7802161574363708
1772717682375753700,4.910753662109375,1.6926615238189697,0.6279882788658142,1.0829243659973145
1772717682395626800,4.930626708984375,1.5346965789794922,0.4466179609298706,1.0761820077896118
1772717682415498800,4.950498779296875,1.5380301475524902,0.3368437886238098,0.9038792848587036
1772717682435371500,4.97037158203125,1.5824697017669678,0.2051483541727066,0.8202091455459595
1772717682455243800,4.990243896484375,1.621819019317627,0.04434269666671753,0.9467012882232666
1772717682475116800,5.01011669921875,1.4930964708328247,-0.0654410570859909,1.3577346801757812
1772717682494988800,5.02998876953125,1.0936425924301147,-0.15540796518325806,1.7892045974731445
1772717682514861800,5.04986181640625,0.6179686784744263,-0.08983641117811203,1.9845178127288818
1772717682534733800,5.06973388671875,-0.13681164383888245,0.10019877552986145,1.886303424835205
1772717682554606600,5.089606689453125,-0.9521679878234863,0.3122212886810303,1.5112112760543823
1772717682574478800,5.109478759765625,-1.4875820875167847,0.41102269291877747,1.2858010530471802
1772717682594351900,5.129351806640625,-1.8276259899139404,-0.05807581916451454,1.3586435317993164
1772717682614223600,5.1492236328125,-2.0487208366394043,-0.579883337020874,1.3448063135147095
1772717682634097000,5.169096923828125,-2.11824369430542,-0.7029206156730652,1.055844783782959
1772717682653969000,5.188968994140625,-2.142002820968628,-0.5016849637031555,0.6437584757804871
1772717682673841700,5.208841552734375,-2.251797676086426,-0.23542609810829163,0.2610110938549042
1772717682693713700,5.228713623046875,-2.41996169090271,-0.055142614990472794,0.10817520320415497
1772717682713586700,5.248586669921875,-2.6220312118530273,-0.043173834681510925,0.28515878319740295
1772717682733458700,5.268458740234375,-2.7145867347717285,0.01683969981968403,0.6255014538764954
1772717682753331700,5.288331787109375,-2.671320676803589,0.13241051137447357,0.9883952140808105
1772717682773204000,5.308203857421875,-2.6449241638183594,0.11100774258375168,1.41020667552948
1772717682793076700,5.32807666015625,-2.8395893573760986,-0.046369362622499466,1.791364073753357
1772717682812948700,5.34794873046875,-3.119575023651123,0.09386284649372101,1.993312954902649
1772717682832821800,5.36782177734375,-3.357055425643921,0.5560659170150757,1.8875758647918701
1772717682852693800,5.38769384765625,-3.531426429748535,1.089534878730774,1.6423890590667725
1772717682872566800,5.40756689453125,-3.7432923316955566,1.5071158409118652,1.3630620241165161
1772717682892439800,5.427439697265625,-3.795677661895752,1.70783269405365,1.0924835205078125
1772717682912311800,5.447311767578125,-3.537555694580078,1.6601136922836304,0.9539291262626648
1772717682932183800,5.467183837890625,-3.17887544631958,1.5156669616699219,0.9752628803253174
1772717682952056600,5.487056640625,-2.833379030227661,1.3893111944198608,1.0080115795135498
1772717682971927800,5.506927734375,-2.439601421356201,1.37285578250885,1.043886661529541
1772717682991800800,5.52680078125,-2.0203933715820312,1.2860748767852783,1.0754212141036987
1772717683011672800,5.5466728515625,-1.5800625085830688,1.0257534980773926,1.0692623853683472
1772717683031545900,5.5665458984375,-1.0470478534698486,0.8332328200340271,0.998520016670227
1772717683051419000,5.5864189453125,-0.4812600910663605,0.8754867911338806,0.8050903677940369
1772717683071290600,5.60629052734375,0.05637805536389351,1.0629909038543701,0.4640832543373108
1772717683091164000,5.626163818359375,0.6717714667320251,1.2731150388717651,0.08913227170705795
1772717683111036000,5.646035888671875,1.1648799180984497,1.5928608179092407,-0.33627867698669434
1772717683130908700,5.66590869140625,1.4328629970550537,2.07658314704895,-0.9581555724143982
1772717683150781000,5.685781005859375,1.6132627725601196,2.855645179748535,-1.6753690242767334
1772717683170653700,5.70565380859375,1.4095968008041382,3.9342057704925537,-2.2354202270507812
1772717683190525700,5.725525634765625,1.1305776834487915,4.818996429443359,-2.6866307258605957
1772717683210399000,5.74539892578125,0.7750962376594543,5.146767616271973,-2.8445217609405518
1772717683230271000,5.76527099609375,0.44825899600982666,5.15894889831543,-2.5721981525421143
1772717683250143700,5.785143798828125,0.3339260518550873,4.8883867263793945,-2.2399022579193115
1772717683270016000,5.80501611328125,0.36362215876579285,4.5441975593566895,-2.0912234783172607
1772717683289888800,5.824888671875,0.5421857833862305,4.4085869789123535,-2.168184518814087
1772717683309760800,5.8447607421875,0.7842604517936707,4.183741092681885,-2.213671922683716
1772717683329634000,5.864634033203125,0.793804943561554,5.503960132598877,-1.9719650745391846
1772717683349505800,5.884505859375,0.8095884323120117,2.0144946575164795,-2.7486050128936768
1772717683369378800,5.90437890625,0.6392979621887207,0.31823471188545227,-2.6182820796966553
1772717683389250800,5.924250732421875,0.5810953378677368,-0.48699840903282166,-2.7836837768554688
1772717683409123800,5.944123779296875,0.462542861700058,-0.6907073259353638,-3.0415241718292236
1772717683428995800,5.963995849609375,0.12747353315353394,-0.34463462233543396,-3.055938959121704
1772717683448868900,5.983868896484375,-0.1591331958770752,-0.006449909880757332,-2.7591090202331543
1772717683468740900,6.003740966796875,-0.3803691864013672,0.5532437562942505,-2.1847798824310303
1772717683488614000,6.02361376953125,-0.5640713572502136,0.669704020023346,-1.248762845993042
1772717683508486000,6.04348583984375,-0.46580204367637634,0.6606349349021912,-0.14888614416122437
1772717683528359000,6.06335888671875,-0.3392246663570404,0.5022343397140503,0.8080462217330933
1772717683548231000,6.08323095703125,-0.25619208812713623,0.17064045369625092,1.2278836965560913
1772717683568103700,6.103103759765625,-0.09671695530414581,0.23785251379013062,1.712827205657959
1772717683587975700,6.1229755859375,0.2733846604824066,0.682988166809082,2.193570613861084
1772717683607849000,6.142848876953125,0.7393145561218262,0.8616266250610352,2.2580416202545166
1772717683627721000,6.162720947265625,0.7417577505111694,0.8459770679473877,1.8856490850448608
1772717683647593700,6.18259375,0.6640163064002991,0.7351650595664978,1.4606117010116577
1772717683667466000,6.202466064453125,0.730440616607666,0.5589210987091064,1.025855541229248
1772717683687338800,6.2223388671875,0.8230350017547607,0.7127811908721924,0.7158694267272949
1772717683707210800,6.242210693359375,0.9069754481315613,0.9725214242935181,0.5802415609359741
1772717683727084000,6.262083984375,0.8358858227729797,1.0542997121810913,0.702410876750946
1772717683746955800,6.281955810546875,0.6156847476959229,0.960719883441925,0.7995808124542236
1772717683766828800,6.301828857421875,0.4779444634914398,0.982157826423645,0.7020875811576843
1772717683786700800,6.32170068359375,0.4570503830909729,0.9994840621948242,0.48356106877326965
1772717683806573800,6.34157373046875,0.4279279112815857,0.8361747860908508,0.3082880675792694
1772717683826445800,6.36144580078125,0.3609158396720886,0.5699662566184998,0.23107396066188812
1772717683846318800,6.38131884765625,0.2848477065563202,0.28284981846809387,0.1899702101945877
1772717683866190800,6.40119091796875,0.2711031436920166,0.28716492652893066,0.24895761907100677
1772717683886063900,6.42106396484375,0.25719398260116577,0.3579930365085602,0.3379215896129608
1772717683905936000,6.440935791015625,0.22924436628818512,0.43715283274650574,0.370894193649292
1772717683925809000,6.460808837890625,0.2285708636045456,0.3862268030643463,0.2613016366958618
1772717683945681000,6.480680908203125,0.215597003698349,0.20148517191410065,0.11670850962400436
1772717683965554400,6.500554443359375,0.19374123215675354,0.1282397210597992,0.15883411467075348
1772717683985426400,6.520426513671875,0.1678292155265808,0.14548343420028687,0.25353506207466125
1772717684005299500,6.540299560546875,0.18364892899990082,0.1803378164768219,0.2869100570678711
1772717684025171200,6.560171142578125,0.18087869882583618,0.15380074083805084,0.24314473569393158
1772717684045044500,6.58004443359375,0.1645497977733612,0.1013101115822792,0.16871178150177002
1772717684064916500,6.59991650390625,0.1128019168972969,0.01449824869632721,0.08566989749670029
1772717684084789200,6.619789306640625,0.07372615486383438,0.016020778566598892,0.053105827420949936
1772717684104661500,6.63966162109375,0.09578138589859009,0.11514762789011002,0.12290780991315842
1772717684124534300,6.6595341796875,0.10265154391527176,0.22644245624542236,0.2310931384563446
1772717684144406300,6.67940625,0.07429154217243195,0.2037973403930664,0.21348777413368225
1772717684164279600,6.699279541015625,0.024654746055603027,0.08533753454685211,0.15898512303829193
1772717684184151300,6.7191513671875,0.02154896780848503,-0.01998462714254856,0.17737504839897156
1772717684204024300,6.7390244140625,0.035051461309194565,-0.07060226052999496,0.19387972354888916
1772717684223896300,6.758896240234375,0.05499960109591484,-0.015247662551701069,0.176951602101326
1772717684243769300,6.778769287109375,0.08420569449663162,0.008292018435895443,0.14688478410243988
1772717684263641300,6.798641357421875,0.08287357538938522,-0.03194568306207657,0.1595105677843094
1772717684283514600,6.8185146484375,0.02472585253417492,-0.05126505345106125,0.2547670304775238
1772717684303386400,6.838386474609375,-0.011699266731739044,-0.02196868136525154,0.3548494279384613
1772717684323259400,6.85825927734375,0.008138620294630527,-0.059602078050374985,0.3807468116283417
1772717684343131400,6.87813134765625,0.06506368517875671,-0.10739090293645859,0.4333333373069763
1772717684363004400,6.89800439453125,0.13007225096225739,-0.09033868461847305,0.6063503623008728
1772717684382876400,6.91787646484375,0.23681414127349854,-0.08161017298698425,0.8086896538734436
1772717684402749200,6.937749267578125,0.3274630904197693,-0.14310921728610992,1.0182695388793945
1772717684422621400,6.957621337890625,0.4794355630874634,-0.35373011231422424,1.3020050525665283
1772717684442494500,6.977494384765625,0.7384237051010132,-0.45630842447280884,1.4895884990692139
1772717684462366500,6.997366455078125,1.0763280391693115,-0.48084625601768494,1.7194302082061768
1772717684482239500,7.017239501953125,1.3506962060928345,-1.2192121744155884,2.0765058994293213
1772717684502111500,7.037111572265625,1.5876532793045044,-2.927356719970703,2.5242834091186523
1772717684521984300,7.056984375,1.6884987354278564,-4.328815460205078,3.1216509342193604
1772717684541856300,7.076856201171875,1.1576588153839111,-4.060794353485107,3.891831636428833
1772717684561729500,7.0967294921875,0.2989741861820221,-3.7694613933563232,3.37549090385437
1772717684581601300,7.116601318359375,1.4326286315917969,-3.783245086669922,2.778869390487671
1772717684601474300,7.136474365234375,2.521867513656616,-3.2488133907318115,2.4626598358154297
1772717684621346600,7.1563466796875,3.1366283893585205,-3.303089141845703,2.278855323791504
1772717684641219300,7.17621923828125,3.344743013381958,-3.6899983882904053,2.006880760192871
1772717684661091300,7.19609130859375,3.4573469161987305,-3.789607524871826,1.43278968334198
1772717684680964400,7.21596435546875,3.7860255241394043,-3.7316181659698486,0.7400253415107727
1772717684700836400,7.23583642578125,4.323523044586182,-3.464449405670166,0.03406102955341339
1772717684720709400,7.25570947265625,4.959566593170166,-3.0239384174346924,-0.5013025403022766
1772717684740581400,7.275581298828125,5.727594375610352,-2.6067564487457275,-1.0586094856262207
1772717684760454400,7.295454345703125,6.815617084503174,-2.277845621109009,-1.9270961284637451
1772717684780326400,7.315326416015625,8.489524841308594,-2.816310167312622,-2.4640161991119385
1772717684800199200,7.33519921875,11.294468879699707,-5.306159973144531,-1.806899905204773
1772717684820071400,7.355071533203125,14.359103202819824,-6.623760223388672,0.14536865055561066
1772717684839944400,7.3749443359375,13.801828384399414,-4.309415340423584,2.3926193714141846
1772717684859816200,7.394816162109375,8.507169723510742,-0.49708834290504456,3.5053551197052
1772717684879689500,7.414689453125,3.1456048488616943,2.4100229740142822,2.8928380012512207
1772717684899561500,7.4345615234375,1.2735518217086792,3.3277950286865234,1.3410485982894897
1772717684919434200,7.454434326171875,2.038022994995117,2.4640800952911377,0.034332405775785446
1772717684939306500,7.474306396484375,2.6479239463806152,0.9089456796646118,-0.21965672075748444
1772717684959179500,7.494179443359375,1.954602599143982,-0.2430800199508667,0.04854782670736313
1772717684979051500,7.514051513671875,0.7482656836509705,-0.4671615958213806,0.21652911603450775
1772717684998924500,7.533924560546875,-0.09337522089481354,0.3073202669620514,-0.0305698923766613
1772717685018796800,7.553796875,-0.29739946126937866,1.168223261833191,-0.4436035454273224
1772717685038669600,7.573669677734375,-0.23184095323085785,1.1979769468307495,-0.4623521864414215
1772717685058541600,7.59354150390625,-0.3464844524860382,0.39167723059654236,0.008109059184789658
1772717685078414600,7.61341455078125,-0.6769624948501587,-0.5831025838851929,0.44528424739837646
1772717685098286600,7.63328662109375,-1.1032078266143799,-1.0077321529388428,0.4935995936393738
1772717685118159600,7.65315966796875,-1.5801445245742798,-0.7223813533782959,0.27522358298301697
1772717685138031400,7.67303125,-2.057401418685913,-0.12795449793338776,0.06259121000766754
1772717685157904600,7.692904541015625,-2.56062912940979,0.19788937270641327,0.14494679868221283
1772717685177776600,7.712776611328125,-3.1016581058502197,0.12693850696086884,0.5934087634086609
1772717685197649400,7.7326494140625,-3.5951452255249023,-0.1630975753068924,1.0871806144714355
1772717685217521700,7.752521728515625,-3.9903719425201416,-0.42877691984176636,1.3583215475082397
1772717685237394700,7.772394775390625,-4.3669538497924805,-0.5060123205184937,1.3575447797775269
1772717685257266400,7.792266357421875,-4.738304615020752,-0.40799200534820557,1.0946675539016724
1772717685277139700,7.8121396484375,-5.169520378112793,-0.2351808249950409,0.6482980847358704
1772717685297011700,7.83201171875,-5.483591556549072,-0.017419736832380295,0.2613050937652588
1772717685316884500,7.851884521484375,-5.547083854675293,0.0874590054154396,0.039988428354263306
1772717685336756700,7.8717568359375,-5.390044689178467,0.030600786209106445,0.000592287047766149
1772717685356629500,7.89162939453125,-5.12600040435791,-0.052019257098436356,0.1425590068101883
1772717685376501500,7.91150146484375,-4.721121788024902,-0.08392871916294098,0.2641432285308838
1772717685396374800,7.931374755859375,-4.168078422546387,-0.1654781699180603,0.2758078873157501
1772717685416246500,7.95124658203125,-3.582071542739868,-0.34636327624320984,0.26295438408851624
1772717685436119600,7.97111962890625,-3.0911078453063965,-0.5296958088874817,0.23230966925621033
1772717685455991600,7.990991455078125,-2.7163615226745605,-0.5939655900001526,0.21039611101150513
1772717685475864600,8.010864501953124,-2.272839069366455,-0.5566693544387817,0.22315451502799988
1772717685495737600,8.030737548828125,-1.8443634510040283,-0.5388517379760742,0.18740850687026978
1772717685515609600,8.050609619140625,-1.4087756872177124,-0.49043816328048706,0.14509247243404388
1772717685535481600,8.070481689453125,-0.9744042754173279,-0.35905295610427856,0.11420566588640213
1772717685555354600,8.090354736328125,-0.6678193211555481,-0.14720410108566284,0.017735054716467857
1772717685575227400,8.110227294921875,-0.3319934010505676,0.15359647572040558,-0.07283878326416016
1772717685595099600,8.130099609375,0.022219285368919373,0.3094971477985382,-0.2332811951637268
1772717685614971600,8.1499716796875,0.22234944999217987,0.4040888845920563,-0.4131998121738434
1772717685634844400,8.169844482421874,0.583541214466095,0.43543028831481934,-0.5336647033691406
1772717685654716400,8.18971630859375,0.9874633550643921,0.352029949426651,-0.6646866798400879
1772717685674589700,8.209589599609375,1.2334188222885132,0.1873219609260559,-0.7272038459777832
1772717685694462500,8.22946240234375,1.3501068353652954,-0.07475839555263519,-0.7772542238235474
1772717685714334500,8.24933447265625,1.4980320930480957,-0.32812434434890747,-0.8568326830863953
1772717685734207700,8.269207763671876,1.71895170211792,-0.40042784810066223,-0.8410694003105164
1772717685754079500,8.28907958984375,2.1281890869140625,-0.30889979004859924,-0.7259505391120911
1772717685773952500,8.308952392578124,2.666900873184204,-0.5093737840652466,-0.5115160346031189
1772717685793824800,8.32882470703125,3.372175455093384,-0.9908328056335449,-0.01986238732933998
1772717685813697500,8.348697509765625,4.141727924346924,-0.9318991899490356,0.27983537316322327
1772717685833569500,8.368569580078125,4.615077495574951,-0.16472609341144562,-0.05847103148698807
1772717685853442600,8.388442626953125,4.450796604156494,0.8849532604217529,-0.8592042326927185
1772717685873314600,8.408314453125,4.1317243576049805,1.4973220825195312,-1.5989882946014404
1772717685893187600,8.4281875,4.127508640289307,1.819823980331421,-1.5518574714660645
1772717685913059600,8.4480595703125,4.80808162689209,2.6929917335510254,-1.0097631216049194
1772717685932932600,8.4679326171875,5.345738887786865,3.1633658409118652,-1.1788170337677002
1772717685952804600,8.4878046875,4.652066230773926,1.508306860923767,-1.376522421836853
1772717685972677600,8.507677734375,3.739938497543335,-0.9617183208465576,-0.5889924168586731
1772717685992549600,8.527549560546875,3.1318788528442383,-2.535292625427246,0.5541782379150391
1772717686012422700,8.547422607421876,2.307131290435791,-2.324983596801758,0.9724796414375305
1772717686032294700,8.567294677734376,1.3623749017715454,-1.1776703596115112,0.6762708425521851
1772717686052167700,8.587167724609374,0.7629802227020264,0.27294284105300903,0.116643525660038
1772717686072039700,8.607039794921874,0.4444480240345001,1.4472362995147705,-0.3920639157295227
1772717686091912700,8.62691259765625,0.3263475000858307,2.1421546936035156,-0.7151660919189453
1772717686111784700,8.64678466796875,0.30006927251815796,2.4140093326568604,-0.7500542998313904
1772717686131657700,8.66665771484375,0.29827749729156494,2.2392046451568604,-0.4704223573207855
1772717686151529500,8.686529541015625,0.422829270362854,1.752577543258667,-0.10581724345684052
1772717686171402800,8.70640283203125,0.6173058152198792,1.0684481859207153,0.17510630190372467
1772717686191274800,8.726274658203126,0.8123821020126343,0.458612322807312,0.35563185811042786
1772717686211147500,8.7461474609375,0.9890977740287781,-0.005088235717266798,0.44943079352378845
1772717686231019800,8.766019775390625,1.1138455867767334,-0.3242987096309662,0.48197248578071594
1772717686250892500,8.785892578125,1.169704794883728,-0.4111281633377075,0.4439271092414856
1772717686270764500,8.8057646484375,1.1682096719741821,-0.43395090103149414,0.3307483494281769
1772717686290637800,8.825637939453125,1.092461109161377,-0.4779292941093445,0.23961950838565826
1772717686310509600,8.845509521484376,0.933060348033905,-0.5867884159088135,0.22472791373729706
1772717686330382600,8.865382568359376,0.6778213381767273,-0.671553909778595,0.29935741424560547
1772717686350254600,8.885254638671874,0.37432006001472473,-0.7410874366760254,0.37628787755966187
1772717686370127600,8.905127685546875,-0.0013523531379178166,-0.7441969513893127,0.296628475189209
1772717686389999600,8.92499951171875,-0.3662903606891632,-0.8230714797973633,0.17075283825397491
1772717686409872600,8.94487255859375,-0.6125504970550537,-0.8656713962554932,0.07261747866868973
1772717686429744600,8.96474462890625,-0.6745131611824036,-0.8340173363685608,-0.04820321500301361
1772717686449617700,8.98461767578125,-0.6909105181694031,-0.8800684809684753,-0.11051905155181885
1772717686469489700,9.00448974609375,-0.7705433368682861,-0.9870761632919312,-0.03950959071516991
1772717686489362700,9.02436279296875,-0.9504235982894897,-1.0525166988372803,0.0830293744802475
1772717686509234700,9.044234619140624,-1.2194929122924805,-1.1530507802963257,0.07348860055208206
1772717686529107500,9.064107421875,-1.4873967170715332,-1.2098727226257324,-0.14934581518173218
1772717686548979500,9.0839794921875,-1.7238614559173584,-1.1397429704666138,-0.3599773645401001
1772717686568852700,9.103852783203125,-1.9623489379882812,-1.0050996541976929,-0.39228442311286926
1772717686588724700,9.123724853515625,-2.290062665939331,-0.9720551371574402,-0.23181672394275665
1772717686608597500,9.143597412109376,-2.6297824382781982,-1.005326747894287,0.034083668142557144
1772717686628469800,9.1634697265625,-2.919923782348633,-1.0276155471801758,0.35873526334762573
1772717686648342500,9.183342529296874,-3.0556201934814453,-1.0015547275543213,0.6012778282165527
1772717686668214500,9.203214599609375,-3.0989999771118164,-0.7968358993530273,0.5604382753372192
1772717686688087800,9.223087890625,-3.286256790161133,-0.755761444568634,0.36047935485839844
1772717686707959600,9.24295947265625,-3.5522305965423584,-0.8849404454231262,0.12538987398147583
1772717686727832600,9.26283251953125,-3.6940958499908447,-0.995908796787262,-0.12471690028905869
1772717686747704800,9.282704833984376,-3.686692237854004,-1.0870083570480347,-0.33610931038856506
1772717686767577600,9.30257763671875,-3.5450878143310547,-1.040514588356018,-0.46748942136764526
1772717686787449600,9.32244970703125,-3.331742525100708,-0.8710171580314636,-0.508378267288208
1772717686807322600,9.342322509765625,-3.141641855239868,-0.6261485815048218,-0.43540260195732117
1772717686827194600,9.362194580078125,-2.9491658210754395,-0.36539769172668457,-0.2859257459640503
1772717686847067600,9.382067626953125,-2.717184066772461,-0.15289953351020813,-0.08039124310016632
1772717686866939600,9.401939697265625,-2.462308883666992,-0.08106396347284317,0.12941445410251617
1772717686886812700,9.421812744140626,-2.1307759284973145,-0.06924298405647278,0.33582940697669983
1772717686906684700,9.4416845703125,-1.727544903755188,-0.08975598216056824,0.601243257522583
1772717686926557400,9.461557373046874,-1.3354719877243042,-0.18686708807945251,0.8794814944267273
1772717686946429700,9.4814296875,-0.9009867906570435,-0.40195807814598083,1.013255000114441
1772717686966302200,9.50130224609375,-0.34572917222976685,-0.7816662788391113,0.9562047719955444
1772717686986174200,9.52117431640625,0.26317837834358215,-1.125475525856018,0.6998412013053894
1772717687006047000,9.541046875,0.6925299763679504,-1.1271672248840332,0.464144229888916
1772717687025919200,9.560919189453125,0.9179884195327759,-0.8575466275215149,0.41237929463386536
1772717687045792000,9.5807919921875,1.1041483879089355,-0.4256833791732788,0.4006539285182953
1772717687065664000,9.6006640625,1.3288817405700684,0.04041906073689461,0.3006138801574707
1772717687085537300,9.620537353515624,1.630389928817749,0.46555066108703613,0.12728551030158997
1772717687105409000,9.640408935546875,1.9599355459213257,0.7422818541526794,-0.004602741450071335
1772717687125282000,9.660281982421875,2.143202066421509,0.8530541658401489,-0.07300789654254913
1772717687145154000,9.680154052734375,2.175940752029419,0.9925897121429443,-0.1687900871038437
1772717687165027000,9.700027099609375,2.141512632369995,1.1604743003845215,-0.30377399921417236
1772717687184899000,9.719899169921876,2.2498064041137695,1.1724374294281006,-0.37883201241493225
1772717687204772000,9.739772216796876,2.6121575832366943,1.1642906665802002,-0.3222283720970154
1772717687224644000,9.75964404296875,3.162029266357422,1.4331761598587036,-0.16495220363140106
1772717687244517000,9.77951708984375,3.6814846992492676,1.689351201057434,-0.0720030888915062
1772717687264389000,9.79938916015625,3.989893674850464,1.695928692817688,-0.13082246482372284
1772717687284262100,9.81926220703125,4.213400363922119,1.5499187707901,-0.31603893637657166
1772717687304134100,9.839134033203125,4.21891975402832,1.4161663055419922,-0.45903682708740234
1772717687324007000,9.8590068359375,3.8911101818084717,1.2352452278137207,-0.4891771376132965
1772717687343879000,9.87887890625,3.244985342025757,1.2878234386444092,-0.4554423689842224
1772717687363752200,9.898752197265624,2.1601967811584473,1.4717152118682861,-0.5486857295036316
1772717687383624200,9.918624267578124,0.36363041400909424,1.5574445724487305,-0.7128270268440247
1772717687403497000,9.9384970703125,-1.5950119495391846,1.5108786821365356,-0.9522901773452759
1772717687423369200,9.958369140625,-2.861154079437256,1.9404199123382568,-1.012787103652954
1772717687443242000,9.978241943359375,-3.7916927337646484,2.1987767219543457,-0.6762056350708008
1772717687463114000,9.998114013671875,-4.51716423034668,2.108844518661499,-0.26226064562797546
1772717687482987300,10.0179873046875,-5.107097625732422,2.3644182682037354,-0.09296242892742157
1772717687502859000,10.03785888671875,-5.446634292602539,3.147413969039917,-0.1904839277267456
1772717687522732000,10.05773193359375,-5.372554302215576,4.237943172454834,0.01329716295003891
1772717687542604300,10.077604248046875,-4.730227947235107,5.3414177894592285,-0.10930757969617844
1772717687562477000,10.09747705078125,-4.3185296058654785,6.737196922302246,0.2170678675174713
1772717687582349000,10.11734912109375,-4.172116756439209,7.2974958419799805,0.9746096134185791
1772717687602222000,10.13722216796875,-4.150649547576904,6.499070167541504,1.624297857284546
1772717687622094000,10.157093994140626,-3.862457513809204,5.85552453994751,2.13122820854187
1772717687641967000,10.176967041015626,-3.3206427097320557,5.467011451721191,2.1633856296539307
1772717687661839000,10.196839111328124,-2.6249678134918213,4.528754711151123,1.9067891836166382
1772717687681712000,10.216712158203125,-2.2012228965759277,3.598249912261963,1.9580864906311035
1772717687701584100,10.236584228515625,-1.9154024124145508,3.788804769515991,2.0534703731536865
1772717687721457000,10.256456787109375,-1.6447125673294067,3.4206838607788086,1.8291287422180176
1772717687741329200,10.2763291015625,-1.4703402519226074,2.7393572330474854,1.6092853546142578
1772717687761202200,10.2962021484375,-1.3758057355880737,2.3676273822784424,1.3223795890808105
1772717687781074000,10.316073974609376,-1.2543712854385376,2.2894957065582275,0.8341089487075806
1772717687800947200,10.335947265625,-0.934855043888092,2.2970528602600098,0.26054877042770386
1772717687820819200,10.355819091796874,-0.4422788918018341,2.3827309608459473,0.06387538462877274
1772717687840692000,10.37569189453125,0.09933724254369736,2.2231128215789795,0.1307889074087143
1772717687860564000,10.39556396484375,0.08896582573652267,1.9588193893432617,0.09211447834968567
1772717687880437200,10.415437255859375,0.08926170319318771,1.706451654434204,-0.07372162491083145
1772717687900309000,10.43530908203125,0.27693572640419006,1.4624112844467163,-0.27133429050445557
1772717687920182000,10.45518212890625,0.5704280734062195,1.216929316520691,-0.11422643810510635
1772717687940054300,10.47505419921875,0.7193219065666199,1.1022599935531616,0.23131097853183746
1772717687959927000,10.494927001953124,0.7541323900222778,0.8982024788856506,0.44938793778419495
1772717687979799800,10.5147998046875,0.6197668313980103,0.5199329257011414,0.4158017337322235
1772717687999672800,10.5346728515625,0.5071191191673279,0.2951168715953827,0.22641529142856598
1772717688019544800,10.554544921875,0.4020654261112213,0.41288530826568604,-0.05523902177810669
1772717688039417900,10.57441796875,0.38654905557632446,0.7492196559906006,-0.2741175591945648
1772717688059289900,10.594289794921876,0.26527082920074463,1.0601884126663208,-0.5324729681015015
1772717688079163000,10.614162841796874,0.18688227236270905,1.517874002456665,-0.6831817626953125
1772717688099035000,10.634034912109374,0.29228484630584717,1.6713343858718872,-0.556201696395874
1772717688118908000,10.653907958984375,0.2791275084018707,0.3629145622253418,-0.1659487634897232
1772717688138780000,10.67377978515625,0.2856639623641968,-0.34101352095603943,-0.08339289575815201
1772717688158652700,10.693652587890625,0.325510174036026,-0.5391343235969543,-0.16769498586654663
1772717688178524700,10.713524658203125,0.45811164379119873,-0.6824065446853638,-0.43391841650009155
1772717688198398000,10.73339794921875,0.6303411722183228,-0.4320693910121918,-0.5826652646064758
