time,seconds_elapsed,z,y,x
1772717153121273900,0.05627392578125,-0.06385011225938797,0.06179512292146683,0.2864110469818115
1772717153141304800,0.076304931640625,-0.08481092751026154,0.12546582520008087,0.43072599172592163
1772717153161335800,0.096335693359375,-0.08267068862915039,0.14386360347270966,0.3833199739456177
1772717153181367600,0.116367431640625,-0.05577085539698601,0.0036028409376740456,0.17100630700588226
1772717153201398800,0.136398681640625,-0.08155958354473114,-0.13205713033676147,-0.01999330334365368
1772717153221429800,0.1564296875,-0.10390274226665497,-0.1535234898328781,-0.04904354363679886
1772717153241460700,0.176460693359375,-0.10639389604330063,-0.09603322297334671,0.05342794582247734
1772717153261492700,0.19649267578125,-0.09350457042455673,-0.017748886719346046,0.19133809208869934
1772717153281523700,0.216523681640625,-0.06854984909296036,0.028558094054460526,0.26013094186782837
1772717153301554700,0.2365546875,-0.03454015776515007,0.03490119427442551,0.18535712361335754
1772717153321587000,0.2565869140625,-0.027586229145526886,-0.024909909814596176,0.06522352248430252
1772717153341618000,0.276617919921875,-0.03666548803448677,-0.08730579167604446,-0.0010714400559663773
1772717153361649000,0.29664892578125,-0.06214442476630211,-0.10463420301675797,0.02404177002608776
1772717153381679900,0.316679931640625,-0.0771041288971901,-0.07214042544364929,0.09196203202009201
1772717153401711600,0.336711669921875,-0.06809678673744202,-0.0431203693151474,0.13062357902526855
1772717153421742600,0.35674267578125,-0.07106725126504898,-0.018583687022328377,0.11652308702468872
1772717153441773600,0.376773681640625,-0.07146481424570084,-0.01274034846574068,0.07098893076181412
1772717153461805800,0.396805908203125,-0.0702301412820816,-0.03726133704185486,0.03845560923218727
1772717153481836800,0.4168369140625,-0.06181316077709198,-0.04494190961122513,0.03846253827214241
1772717153501867800,0.43686767578125,-0.04853459447622299,-0.029173381626605988,0.061107344925403595
1772717153521898800,0.456898681640625,-0.04389365389943123,-0.00946016050875187,0.07723411917686462
1772717153541930800,0.4769306640625,-0.040234897285699844,-0.003168894909322262,0.08063982427120209
1772717153561961700,0.496961669921875,-0.03303307667374611,-0.010224739089608192,0.07305295765399933
1772717153581992700,0.51699267578125,-0.031784068793058395,-0.012688464485108852,0.04533711448311806
1772717153602024000,0.53702392578125,-0.0238489992916584,-0.026322152465581894,0.00738478172570467
1772717153622055700,0.5570556640625,-0.0062261223793029785,-0.020209114998579025,-0.009549465030431747
1772717153642086700,0.577086669921875,0.004145550541579723,-0.023502793163061142,-0.004469313193112612
1772717153662117600,0.59711767578125,-0.014885390177369118,-0.034110285341739655,0.016340989619493484
1772717153682149600,0.617149658203125,-0.02373596280813217,-0.021954331547021866,0.03487899899482727
1772717153702180600,0.6371806640625,-0.004989076405763626,-0.006018846295773983,0.04537300020456314
1772717153722211800,0.6572119140625,0.010996499098837376,0.020096011459827423,0.03817843273282051
1772717153742242800,0.677242919921875,0.008241375908255577,0.01925109326839447,0.009825726971030235
1772717153762274800,0.69727490234375,-0.0046130698174238205,-0.025828033685684204,-0.0058249207213521
1772717153782305800,0.717305908203125,-0.015212475322186947,-0.05327209085226059,-0.009452300146222115
1772717153802336500,0.73733642578125,-0.018738485872745514,-0.03564007207751274,0.00526105472818017
1772717153822368300,0.7573681640625,-0.008769974112510681,-0.020628564059734344,0.014308463782072067
1772717153842399500,0.7773994140625,-0.016730686649680138,-0.01721504144370556,-0.006871295161545277
1772717153862430500,0.797430419921875,-0.024661671370267868,0.0008645886555314064,-0.03657444939017296
1772717153882461400,0.81746142578125,-0.017012041062116623,-0.009425412863492966,-0.034533653408288956
1772717153902493400,0.837493408203125,-0.01007408183068037,-0.0032091429457068443,-0.014130687341094017
1772717153922524400,0.8575244140625,-0.004629632458090782,-0.016024241223931313,-0.018047142773866653
1772717153942555400,0.877555419921875,-0.011451518163084984,-0.023147260770201683,-0.050755321979522705
1772717153962586400,0.89758642578125,-0.019717147573828697,0.0008053919300436974,-0.05990365520119667
1772717153982618600,0.91761865234375,-0.034397389739751816,0.017792165279388428,-0.03961963951587677
1772717154002649600,0.937649658203125,-0.045339759439229965,0.049033090472221375,-0.02335795760154724
1772717154022680600,0.9576806640625,-0.04216093569993973,0.080267995595932,-0.0062859682366251945
1772717154042712600,0.977712646484375,-0.0427975058555603,0.07862506806850433,-0.027523942291736603
1772717154062743600,0.99774365234375,-0.05279384180903435,0.06549524515867233,-0.0513172410428524
1772717154082774500,1.0177744140625,-0.028747668489813805,0.04686354100704193,-0.07945122569799423
1772717154102805500,1.037805419921875,-0.01436697319149971,0.020435050129890442,-0.1097300723195076
1772717154122837500,1.05783740234375,-0.03823810815811157,0.012661097571253777,-0.15066228806972504
1772717154142868500,1.077868408203125,-0.07330623269081116,0.0591750368475914,-0.10395708680152893
1772717154162899500,1.0978994140625,0.04444638267159462,0.10886592417955399,-0.2331843227148056
1772717154182930400,1.117930419921875,0.07490400969982147,-0.06582868099212646,-0.5501172542572021
1772717154202962400,1.13796240234375,-0.14335735142230988,-0.1560196727514267,-0.6017089486122131
1772717154222993400,1.157993408203125,-0.3745318353176117,-0.1326841115951538,-0.29713180661201477
1772717154243024600,1.178024658203125,-0.34195366501808167,-0.3285199701786041,0.013501630164682865
1772717154263056600,1.198056640625,-0.30681851506233215,-0.6499248743057251,-0.04884856194257736
1772717154283087600,1.218087646484375,-0.3225904703140259,-0.741862416267395,-0.27209535241127014
1772717154303118600,1.23811865234375,-0.3412076234817505,-0.5164278745651245,-0.34395986795425415
1772717154323149600,1.258149658203125,-0.37579306960105896,-0.33327117562294006,-0.3117501437664032
1772717154343181300,1.278181396484375,-0.42064589262008667,-0.2992927134037018,-0.2504343092441559
1772717154363212500,1.298212646484375,-0.4023788273334503,-0.2801130712032318,-0.11939281970262527
1772717154383243500,1.318243408203125,-0.293194979429245,-0.12676072120666504,0.03209315240383148
1772717154403274500,1.3382744140625,-0.1816386878490448,0.11036140471696854,0.04271453619003296
1772717154423306500,1.358306396484375,-0.22135666012763977,0.1266625076532364,-0.12959501147270203
1772717154443337500,1.37833740234375,-0.35358136892318726,-0.02192142978310585,-0.33674192428588867
1772717154463368400,1.398368408203125,-0.47391825914382935,-0.18313579261302948,-0.5278965830802917
1772717154483400700,1.418400634765625,-0.5772526860237122,-0.43345868587493896,-0.739361047744751
1772717154503431700,1.438431640625,-0.7266315817832947,-0.5216990113258362,-0.9155221581459045
1772717154523462700,1.458462646484375,-0.7870217561721802,-0.30359527468681335,-0.9213430285453796
1772717154543493600,1.47849365234375,-0.8264411687850952,-0.051842235028743744,-0.6751717329025269
1772717154563525400,1.498525390625,-0.8344411253929138,0.1409650444984436,-0.3607967495918274
1772717154583556400,1.518556396484375,-0.8425335884094238,-0.031043868511915207,-0.1949397772550583
1772717154603587300,1.53858740234375,-0.8515638709068298,-0.23510944843292236,-0.24800243973731995
1772717154623618600,1.55861865234375,-0.8984344005584717,-0.3293762803077698,-0.3446286618709564
1772717154643650600,1.578650634765625,-0.8522225022315979,-0.19465869665145874,-0.3233913481235504
1772717154663681500,1.598681640625,-0.7037323117256165,0.0008553201332688332,-0.15172995626926422
1772717154683712500,1.61871240234375,-0.49064716696739197,0.2076355516910553,0.12228398025035858
1772717154703743500,1.638743408203125,-0.31762540340423584,0.2609376609325409,0.39664092659950256
1772717154723775500,1.658775390625,-0.38189008831977844,0.06818623840808868,0.5590901970863342
1772717154743806700,1.678806640625,-0.3147944211959839,0.2907599210739136,0.4982883930206299
1772717154763837700,1.698837646484375,-0.2930460572242737,0.3198203146457672,0.24157769978046417
1772717154783869400,1.718869384765625,-0.19950725138187408,0.40061479806900024,0.06927191466093063
1772717154803900700,1.738900634765625,-0.18116553127765656,0.14031952619552612,0.06755971908569336
1772717154823931600,1.758931640625,-0.16741885244846344,-0.36057186126708984,0.01885976269841194
1772717154843962600,1.778962646484375,-0.08238782733678818,-0.6673519611358643,-0.058668263256549835
1772717154863994600,1.79899462890625,0.057243362069129944,-0.46496695280075073,-0.07639625668525696
1772717154884025600,1.819025634765625,0.27259883284568787,0.022739768028259277,-0.036625176668167114
1772717154904056600,1.839056640625,0.33308136463165283,0.3466837406158447,0.13943053781986237
1772717154924087600,1.859087646484375,0.39408159255981445,0.34653541445732117,0.30577796697616577
1772717154944119800,1.879119873046875,0.6398757696151733,0.31897062063217163,0.2551578879356384
1772717154964150800,1.89915087890625,0.897016704082489,0.4516831934452057,-0.04979638755321503
1772717154984181800,1.919181640625,0.6986297369003296,0.1521500051021576,-0.13514530658721924
1772717155004212700,1.939212646484375,0.24491485953330994,0.1238396018743515,-0.12669238448143005
1772717155024244500,1.959244384765625,-0.1988401859998703,0.3262082040309906,-0.25372931361198425
1772717155044275500,1.979275390625,-0.1837197244167328,0.3280847370624542,-0.34515032172203064
1772717155064306400,1.999306396484375,0.1594070941209793,0.38253989815711975,-0.47798916697502136
1772717155084338700,2.019338623046875,0.3093997836112976,0.3726065754890442,-0.547610878944397
1772717155104369700,2.03936962890625,0.36488205194473267,0.04316118359565735,-0.5007497072219849
1772717155124400600,2.059400634765625,0.45995989441871643,-0.08493924140930176,-0.36558836698532104
1772717155144431600,2.079431640625,0.44651296734809875,-0.3336290121078491,-0.17479749023914337
1772717155164463600,2.099463623046875,0.3935379385948181,-0.5261363387107849,-0.01322212629020214
1772717155184494800,2.119494873046875,0.3577403724193573,-0.3646998405456543,0.11178293824195862
1772717155204525800,2.13952587890625,0.4487832486629486,0.17793799936771393,0.1370822638273239
1772717155224556800,2.159556884765625,0.6000218987464905,0.25953930616378784,0.09145987033843994
1772717155244588500,2.179588623046875,0.5969721078872681,-0.02541728876531124,0.17797191441059113
1772717155264619500,2.19961962890625,0.5407445430755615,-0.26835864782333374,0.3667997717857361
1772717155284650500,2.219650390625,0.5461662411689758,-0.36256739497184753,0.4613491892814636
1772717155304682800,2.239682861328125,0.548971951007843,-0.3429487943649292,0.4753035604953766
1772717155324713700,2.259713623046875,0.4751516878604889,-0.18694806098937988,0.4787370562553406
1772717155344744700,2.27974462890625,0.4352315664291382,0.03540179878473282,0.3270188271999359
1772717155364775700,2.299775634765625,0.3820591866970062,-0.14819231629371643,0.06270428001880646
1772717155384807700,2.3198076171875,0.26511675119400024,-0.5277854800224304,-0.18224522471427917
1772717155404838700,2.339838623046875,0.23401732742786407,-0.7570542097091675,-0.3196462094783783
1772717155424869600,2.35986962890625,0.2870355546474457,-0.5313364863395691,-0.3077287971973419
1772717155444900600,2.379900634765625,0.4106477200984955,-0.2586385905742645,-0.17085270583629608
1772717155464932600,2.3999326171875,0.5296574234962463,-0.07801283895969391,0.033621929585933685
1772717155484963600,2.419963623046875,0.5441184639930725,-0.03819470852613449,0.21199336647987366
1772717155504994600,2.43999462890625,0.46515989303588867,-0.006941431201994419,0.21875885128974915
1772717155525025500,2.460025634765625,0.40814507007598877,0.011587393470108509,0.04050425440073013
1772717155545057500,2.4800576171875,0.36869022250175476,0.0661156177520752,-0.14929836988449097
1772717155565088500,2.500088623046875,0.340450257062912,0.08781895041465759,-0.2653307318687439
1772717155585119700,2.52011962890625,0.3145655691623688,0.0861193835735321,-0.302165687084198
1772717155605151700,2.54015185546875,0.30146461725234985,0.04751168191432953,-0.263998419046402
1772717155625182700,2.5601826171875,0.30482685565948486,0.006077616475522518,-0.17090560495853424
1772717155645213700,2.580213623046875,0.32718315720558167,0.06325948238372803,-0.07211585342884064
1772717155665244700,2.60024462890625,0.32782039046287537,0.045215632766485214,0.005288553424179554
1772717155685276400,2.6202763671875,0.3165990114212036,0.03137701749801636,0.06906460970640182
1772717155705307600,2.6403076171875,0.2861156761646271,0.06431901454925537,0.10843724012374878
1772717155725338600,2.660338623046875,0.2632487714290619,0.034555863589048386,0.05088458210229874
1772717155745369600,2.68036962890625,0.2745153605937958,0.08205875009298325,-0.1014239490032196
1772717155765401600,2.700401611328125,0.2937774956226349,0.09049825370311737,-0.21054382622241974
1772717155785432600,2.7204326171875,0.21726608276367188,0.11845023185014725,-0.17446492612361908
1772717155805463600,2.740463623046875,0.13395005464553833,0.20724646747112274,-0.12273988127708435
1772717155825494500,2.76049462890625,0.14233404397964478,0.11247208714485168,-0.10118161141872406
1772717155845526800,2.78052685546875,0.19218163192272186,0.023647138848900795,-0.08512747287750244
1772717155865557800,2.800557861328125,0.25628331303596497,0.07012233138084412,-0.02438625507056713
1772717155885588700,2.820588623046875,0.24715448915958405,0.10857643932104111,0.10900736600160599
1772717155905620500,2.840620361328125,0.20564772188663483,0.09495358914136887,0.29644808173179626
1772717155925651500,2.8606513671875,0.17655637860298157,0.09055132418870926,0.4512675404548645
1772717155945682400,2.880682373046875,0.12467128038406372,0.08997845649719238,0.4698275625705719
1772717155965713400,2.90071337890625,0.05930708348751068,0.10536398738622665,0.3610546886920929
1772717155985745700,2.92074560546875,-0.037648145109415054,0.11227186024188995,0.20500080287456512
1772717156005776600,2.940776611328125,-0.0966392457485199,0.18935848772525787,0.07898539304733276
1772717156025807600,2.9608076171875,-0.1320924013853073,0.21425659954547882,0.000372088048607111
1772717156045838600,2.980838623046875,-0.11861860752105713,0.22238561511039734,-0.06109180301427841
1772717156065870600,3.00087060546875,-0.01914115436375141,0.19351428747177124,0.02334458753466606
1772717156085901600,3.020901611328125,-0.11218621581792831,0.15779583156108856,0.20353463292121887
1772717156105932800,3.040932861328125,-0.14768201112747192,0.05770348012447357,0.22776956856250763
1772717156125963800,3.0609638671875,-0.14071333408355713,-0.05228830501437187,0.12300527095794678
1772717156145995500,3.08099560546875,-0.19124934077262878,-0.19528403878211975,0.07216817885637283
1772717156166026500,3.101026611328125,-0.15101511776447296,-0.1017548069357872,0.025809582322835922
1772717156186057500,3.121057373046875,-0.04957590252161026,-0.041278667747974396,-0.031708311289548874
1772717156206089500,3.14108935546875,0.009156562387943268,-0.059495002031326294,-0.0704631432890892
1772717156226120700,3.16112060546875,0.006364538334310055,-0.11576459556818008,-0.07008406519889832
1772717156246151700,3.181151611328125,-0.045737359672784805,-0.20550529658794403,-0.02850748412311077
1772717156266182700,3.2011826171875,-0.0823834016919136,-0.24465647339820862,0.025176923722028732
1772717156286214700,3.221214599609375,-0.08565287292003632,-0.130628764629364,0.08734118193387985
1772717156306245600,3.24124560546875,-0.0662841871380806,-0.01159096322953701,0.16640008985996246
1772717156326276600,3.261276611328125,-0.020572438836097717,0.031298015266656876,0.2021549940109253
1772717156346307600,3.2813076171875,0.01718132384121418,0.07632312923669815,0.18673066794872284
1772717156366339600,3.301339599609375,0.008182644844055176,0.08594847470521927,0.1666276901960373
1772717156386370600,3.32137060546875,-0.011832010000944138,0.16117918491363525,0.15825960040092468
1772717156406401500,3.341401611328125,-0.023526431992650032,0.19920070469379425,0.14257510006427765
1772717156426432500,3.3614326171875,0.01603446528315544,0.2509362995624542,0.024468576535582542
1772717156446464500,3.381464599609375,0.009682636708021164,0.10401875525712967,-0.0961318090558052
1772717156466495500,3.40149560546875,-0.03995705395936966,-0.03620219975709915,-0.164967879652977
1772717156486526700,3.421526611328125,-0.0743567943572998,-0.03455828130245209,-0.25694313645362854
1772717156506558700,3.441558837890625,-0.09852710366249084,-0.016867665573954582,-0.3893141746520996
1772717156526589700,3.461589599609375,-0.1295459270477295,0.033642545342445374,-0.44585609436035156
1772717156546620700,3.48162060546875,-0.14770644903182983,0.025373898446559906,-0.3697880208492279
1772717156566651600,3.501651611328125,-0.13205352425575256,-0.05287180468440056,-0.24893605709075928
1772717156586683400,3.521683349609375,-0.1412496566772461,-0.10349481552839279,-0.14574821293354034
1772717156606714600,3.541714599609375,-0.18407517671585083,-0.11584118753671646,-0.06689036637544632
1772717156626745600,3.56174560546875,-0.2617340087890625,-0.12114986777305603,0.048750460147857666
1772717156646776600,3.581776611328125,-0.32249021530151367,-0.11883087456226349,0.15900136530399323
1772717156666808600,3.60180859375,-0.3685224950313568,-0.11377955973148346,0.21251291036605835
1772717156686839600,3.621839599609375,-0.42609208822250366,-0.14471109211444855,0.20479850471019745
1772717156706870500,3.64187060546875,-0.4930408000946045,-0.1380748301744461,0.13926878571510315
1772717156726901500,3.661901611328125,-0.565792441368103,-0.07008547335863113,0.03099680133163929
1772717156746933800,3.681933837890625,-0.6249309182167053,-0.036332353949546814,-0.09103355556726456
1772717156766964700,3.70196484375,-0.6357771158218384,-0.021405141800642014,-0.20669077336788177
1772717156786995500,3.721995361328125,-0.6610664129257202,-0.08758343011140823,-0.18818716704845428
1772717156807027500,3.74202734375,-0.6755059361457825,-0.10291985422372818,-0.05840311944484711
1772717156827058400,3.762058349609375,-0.6914323568344116,-0.015225873328745365,0.10092027485370636
1772717156847089400,3.78208935546875,-0.671664297580719,0.04803403839468956,0.1806432604789734
1772717156867120400,3.802120361328125,-0.6436619758605957,0.008871152997016907,0.15231436491012573
1772717156887152400,3.82215234375,-0.6094649434089661,-0.13878895342350006,0.09105602651834488
1772717156907183400,3.842183349609375,-0.5697722434997559,-0.1968284398317337,0.012377558276057243
1772717156927214300,3.86221435546875,-0.5247600674629211,-0.1611141562461853,-0.041426341980695724
1772717156947245300,3.882245361328125,-0.4693189263343811,-0.17222855985164642,-0.004465336445719004
1772717156967277300,3.90227734375,-0.40611496567726135,-0.16362334787845612,0.03551270067691803
1772717156987308300,3.922308349609375,-0.3599547743797302,-0.1374778002500534,0.04176768288016319
1772717157007339500,3.942339599609375,-0.31574347615242004,-0.1265036016702652,0.015264805406332016
1772717157027370500,3.96237060546875,-0.2724006474018097,-0.12244381010532379,-0.03180545195937157
1772717157047402500,3.982402587890625,-0.21518190205097198,-0.07831787317991257,-0.11730704456567764
1772717157067431400,4.002431396484375,-0.1646866649389267,-0.1146988496184349,-0.15117743611335754
1772717157087462400,4.02246240234375,-0.12885800004005432,-0.14901123940944672,-0.10289301723241806
1772717157107494400,4.042494384765625,-0.11038509756326675,-0.08869859576225281,-0.04053577035665512
1772717157127525400,4.062525390625,-0.09752374142408371,-0.0680641233921051,0.01830410398542881
1772717157147556400,4.082556396484375,-0.08605749160051346,-0.07211396098136902,0.05380969122052193
1772717157167587300,4.10258740234375,-0.08709564805030823,-0.06750800460577011,0.09005051851272583
1772717157187619300,4.122619384765625,-0.08064676821231842,-0.0541955940425396,0.14612296223640442
1772717157207650300,4.142650390625,-0.0618269219994545,-0.027351029217243195,0.19458171725273132
1772717157227681300,4.162681396484375,-0.0561361163854599,-0.0068435585126280785,0.2190154790878296
1772717157247713300,4.18271337890625,-0.0647004097700119,0.024004166945815086,0.23768268525600433
1772717157267744300,4.202744140625,-0.08863137662410736,0.04396149888634682,0.21744336187839508
1772717157287775200,4.222775146484375,-0.09446564316749573,0.021261878311634064,0.11364677548408508
1772717157307806200,4.24280615234375,-0.06144164130091667,0.02347298339009285,-0.045691125094890594
1772717157327838500,4.26283837890625,-0.05011429265141487,-0.03777800500392914,-0.10995469242334366
1772717157347869400,4.282869384765625,-0.04408983886241913,-0.06893222779035568,-0.07877066731452942
1772717157367900400,4.302900390625,-0.01090963277965784,-0.10513228178024292,-0.03024148941040039
1772717157387931400,4.322931396484375,0.02344442903995514,-0.11342732608318329,0.005903089419007301
1772717157407963400,4.34296337890625,0.04420044273138046,-0.11133088171482086,0.05575193837285042
1772717157427994400,4.362994384765625,0.07197463512420654,-0.08017706125974655,0.12032176554203033
1772717157448025300,4.383025390625,0.07685516774654388,-0.08628377318382263,0.16787347197532654
1772717157468056300,4.403056396484375,0.07053567469120026,-0.056600991636514664,0.15902838110923767
1772717157488088300,4.42308837890625,0.06379519402980804,-0.04165232554078102,0.12332682311534882
1772717157508119300,4.443119384765625,0.08713773638010025,-0.015588749200105667,0.0627385675907135
1772717157528150300,4.463150390625,0.10188420861959457,0.027767546474933624,0.009635459631681442
1772717157548182300,4.483182373046875,0.10690132528543472,0.05881757661700249,-0.009760135784745216
1772717157568213500,4.503213623046875,0.11805343627929688,0.0507306233048439,0.016357820481061935
1772717157588244500,4.523244384765625,0.13221873342990875,0.047395411878824234,0.04280557110905647
1772717157608275500,4.543275390625,0.13977277278900146,0.04612424969673157,0.03235900029540062
1772717157628307500,4.563307373046875,0.17243942618370056,0.07510779798030853,-0.010227835737168789
1772717157648338400,4.58333837890625,0.1889842301607132,0.0833868682384491,-0.03931291028857231
1772717157668369400,4.603369384765625,0.19296890497207642,0.08434133231639862,-0.01587202586233616
1772717157688400400,4.623400390625,0.18343345820903778,0.01049480028450489,0.051716603338718414
1772717157708432400,4.643432373046875,0.16526643931865692,-0.017440013587474823,0.08732476085424423
1772717157728463400,4.66346337890625,0.16646027565002441,-0.00872521661221981,0.041003234684467316
1772717157748494300,4.683494384765625,0.1725807934999466,0.005504683591425419,-0.007631105370819569
1772717157768526300,4.7035263671875,0.1597081422805786,0.06049949675798416,0.03270220011472702
1772717157788557300,4.723557373046875,0.16807821393013,0.07667092978954315,0.12296474725008011
1772717157808589000,4.743589111328125,0.16854754090309143,0.07188494503498077,0.16019494831562042
1772717157828620000,4.7636201171875,0.19753998517990112,0.05922284349799156,0.10799548029899597
1772717157848651800,4.78365185546875,0.1927233189344406,-0.00015486404299736023,0.06556243449449539
1772717157868683000,4.80368310546875,0.16048091650009155,-0.020166758447885513,0.048948124051094055
1772717157888714000,4.8237138671875,0.14568431675434113,-0.028281569480895996,0.02845960669219494
1772717157908745000,4.843744873046875,0.1620631068944931,-0.05114993825554848,-0.010138570331037045
1772717157928777000,4.86377685546875,0.18001283705234528,-0.025136947631835938,-0.049539715051651
1772717157948808000,4.883807861328125,0.2093561738729477,0.0319296158850193,-0.08467049151659012
1772717157968839000,4.9038388671875,0.21990735828876495,0.033620044589042664,-0.12899090349674225
1772717157988871200,4.92387109375,0.22398874163627625,0.007631753571331501,-0.1526297628879547
1772717158008902100,4.943902099609375,0.1931927651166916,-0.011950136162340641,-0.14600345492362976
1772717158028933000,4.96393310546875,0.17360061407089233,-0.016807492822408676,-0.13728725910186768
1772717158048964000,4.983964111328125,0.168840229511261,0.012920341454446316,-0.10278753191232681
1772717158068995800,5.003995849609375,0.16208304464817047,0.0031860535964369774,-0.031460583209991455
1772717158089026800,5.02402685546875,0.12951748073101044,-0.020424112677574158,0.027339797466993332
1772717158109057800,5.044057861328125,0.09135456383228302,-0.07189800590276718,0.0572509691119194
1772717158129088800,5.0640888671875,0.07595432549715042,-0.05243784561753273,0.041993871331214905
1772717158149121000,5.08412109375,0.06996864080429077,0.008627709001302719,0.010177472606301308
1772717158169152000,5.104152099609375,0.0671389028429985,0.022218238562345505,-0.0004811347462236881
1772717158189183000,5.124182861328125,0.07971937954425812,0.0213590320199728,0.02715969644486904
1772717158209215000,5.144215087890625,0.14140713214874268,0.010858792811632156,0.06619410216808319
1772717158229246000,5.164245849609375,0.2080894261598587,0.07572314143180847,0.08689701557159424
1772717158249277000,5.18427685546875,0.23327933251857758,0.15374189615249634,0.05849609896540642
1772717158269308200,5.20430810546875,0.21495430171489716,0.20365601778030396,0.04102613776922226
1772717158289340000,5.22433984375,0.17092357575893402,0.3147186040878296,0.06918561458587646
1772717158309371000,5.244370849609375,0.12520679831504822,0.33312416076660156,0.11465291678905487
1772717158329401900,5.26440185546875,0.09262745082378387,0.16282600164413452,0.11133226752281189
1772717158349432800,5.284432861328125,0.0738893449306488,0.020884374156594276,0.02313321828842163
1772717158369464800,5.30446484375,0.10119977593421936,-0.041302334517240524,-0.14185871183872223
1772717158389496000,5.32449609375,-0.01427927240729332,-0.1853906363248825,-0.27165064215660095
1772717158409527000,5.344527099609375,-0.0748606026172638,-0.1853093057870865,-0.31547144055366516
1772717158429559000,5.36455908203125,-0.0404525101184845,-0.2095557004213333,-0.2430824339389801
1772717158449590000,5.384590087890625,-0.05572129413485527,-0.18659301102161407,-0.10369328409433365
1772717158469621000,5.40462109375,-0.060844969004392624,-0.1114005595445633,0.014967798255383968
1772717158489652000,5.42465185546875,-0.02659653313457966,-0.03890841826796532,0.09371358156204224
1772717158509684000,5.44468408203125,-0.015009952709078789,0.0032498855143785477,0.12492944300174713
1772717158529715000,5.46471484375,-0.012659039348363876,0.031715765595436096,0.0967208743095398
1772717158549746000,5.484745849609375,0.0042473990470170975,0.10377922654151917,0.005680133122950792
1772717158569777000,5.50477685546875,0.02697599120438099,0.13633859157562256,-0.07142698764801025
1772717158589809000,5.524808837890625,0.03563588112592697,0.08017869293689728,-0.0944494977593422
1772717158609839900,5.54483984375,0.06271767616271973,0.026855364441871643,-0.08011844754219055
1772717158629870800,5.564870849609375,0.07584192603826523,-0.02458413690328598,-0.028925497084856033
1772717158649902000,5.584902099609375,0.08142280578613281,-0.018075328320264816,0.04373690485954285
1772717158669934000,5.60493408203125,0.08203153312206268,0.014023354277014732,0.07380123436450958
1772717158689965000,5.624965087890625,0.09340568631887436,0.054752130061388016,0.08757377415895462
1772717158709996000,5.64499609375,0.0840228721499443,0.10747825354337692,0.12138325721025467
1772717158730028000,5.665028076171875,0.04074487090110779,0.07993391156196594,0.1894197165966034
1772717158750059000,5.68505908203125,0.0012313202023506165,0.002782737836241722,0.23918497562408447
1772717158770090000,5.705090087890625,-0.016450464725494385,-0.01761666312813759,0.22510601580142975
1772717158790121000,5.725120849609375,-0.04039594158530235,-0.03791593760251999,0.186967134475708
1772717158810153000,5.745153076171875,-0.05156588926911354,0.0019004838541150093,0.15202483534812927
1772717158830184000,5.765183837890625,-0.03080010786652565,-0.05607324093580246,0.09267447888851166
1772717158850215000,5.78521484375,-0.036229126155376434,-0.15864363312721252,0.010890080593526363
1772717158870246000,5.805245849609375,-0.028434280306100845,-0.08845046907663345,-0.03182760998606682
1772717158890278100,5.825278076171875,-0.03520815819501877,-0.010457784868776798,0.03029770962893963
1772717158910309000,5.84530908203125,-0.1304672807455063,0.1059436947107315,0.12953194975852966
1772717158930340000,5.865340087890625,-0.2893899977207184,0.16051913797855377,0.18967628479003906
1772717158950372000,5.8853720703125,-0.3810747265815735,0.14849993586540222,0.11772934347391129
1772717158970403000,5.905403076171875,-0.34985724091529846,-0.08029589056968689,-0.039868757128715515
1772717158990434000,5.92543408203125,-0.29231929779052734,-0.14872653782367706,-0.06289093941450119
1772717159010465000,5.945465087890625,-0.23430189490318298,-0.03468804061412811,0.005234370008111
1772717159030497000,5.9654970703125,-0.25795090198516846,0.05506063252687454,0.08749984204769135
1772717159050528000,5.985528076171875,-0.4927475154399872,0.7314447164535522,0.3508785367012024
1772717159070559000,6.00555908203125,-0.7144302129745483,0.7154228091239929,0.5346344709396362
1772717159090590000,6.02558984375,-0.4341827630996704,0.38125336170196533,0.46723413467407227
1772717159110622000,6.0456220703125,0.04833266884088516,0.3152879476547241,0.055092375725507736
1772717159130653000,6.06565283203125,0.12511156499385834,0.8913148641586304,-0.42157071828842163
1772717159150684000,6.085683837890625,-0.5844745635986328,1.155298113822937,-0.7678974270820618
1772717159170715100,6.105715087890625,-1.589808702468872,0.49844035506248474,-0.9021721482276917
1772717159190747100,6.1257470703125,-2.151563882827759,-0.8141607046127319,-0.6700714230537415
1772717159210778000,6.145778076171875,-1.734652042388916,-2.0260167121887207,-0.6791166663169861
1772717159230809000,6.16580908203125,-0.6754843592643738,-3.9277684688568115,-0.7743523716926575
1772717159250840800,6.1858408203125,0.41215893626213074,-3.4434099197387695,-0.8464637994766235
1772717159270871800,6.205871826171875,0.912233293056488,-0.7142432928085327,-0.9310823678970337
1772717159290903000,6.225903076171875,1.2451728582382202,1.6804354190826416,-0.3937179744243622
1772717159310934000,6.24593408203125,1.2873163223266602,3.9315690994262695,0.5052679181098938
1772717159330966000,6.265966064453125,1.0507129430770874,4.851851463317871,-0.18393991887569427
1772717159350997000,6.2859970703125,1.0036075115203857,2.431203603744507,-1.2513856887817383
1772717159371028000,6.306028076171875,0.8355349898338318,-1.1932011842727661,-1.1696770191192627
1772717159391059000,6.326058837890625,0.3144703507423401,-2.6576786041259766,-0.7258042097091675
1772717159411091200,6.34609130859375,-0.33906570076942444,-1.8150907754898071,-0.6379081010818481
1772717159431122200,6.3661220703125,-0.16350111365318298,-0.5668616890907288,-0.8347282409667969
1772717159451153200,6.386153076171875,-0.1578008085489273,1.384379506111145,-0.6007634401321411
1772717159471185000,6.406184814453125,-1.1761448383331299,5.633649826049805,0.30869290232658386
1772717159491216000,6.4262158203125,-0.6138731837272644,6.015424728393555,0.45234715938568115
1772717159511246800,6.446246826171875,-0.8541711568832397,5.355302333831787,0.2580758035182953
1772717159531277800,6.46627783203125,-1.2229301929473877,5.004106521606445,0.5343465805053711
1772717159551310000,6.48631005859375,-0.9658803343772888,5.469067096710205,0.3231586515903473
1772717159571341000,6.506341064453125,-0.6045248508453369,5.2334370613098145,-0.10008618235588074
1772717159591372000,6.5263720703125,-0.9550855755805969,4.880339622497559,-0.385545015335083
1772717159611403000,6.546403076171875,-1.8624681234359741,5.048299312591553,-0.5675411224365234
1772717159631435000,6.56643505859375,-2.589569330215454,4.420776844024658,-0.8667597770690918
1772717159651466000,6.586466064453125,-3.1933913230895996,3.7477118968963623,-1.1480233669281006
1772717159671497200,6.606497314453125,-3.529416084289551,3.6756911277770996,-1.420295238494873
1772717159691528200,6.626528076171875,-3.6107192039489746,4.225337982177734,-1.3576557636260986
1772717159711560000,6.646559814453125,-3.5439460277557373,4.707911014556885,-1.0972375869750977
1772717159731591000,6.6665908203125,-3.795337677001953,4.611570358276367,-0.813176691532135
1772717159751622000,6.686621826171875,-4.2076897621154785,4.240054130554199,-0.5368604063987732
1772717159771654000,6.70665380859375,-4.643466472625732,3.78650164604187,-0.43537747859954834
1772717159791684600,6.7266845703125,-4.854867458343506,2.741971015930176,-0.5867142677307129
1772717159811715600,6.746715576171875,-4.797138214111328,1.589201807975769,-0.8964604139328003
1772717159831746600,6.76674658203125,-4.676559925079346,0.7418052554130554,-1.034133791923523
1772717159851778600,6.786778564453125,-4.278547286987305,0.7045106291770935,-0.7115074992179871
1772717159871809800,6.806809814453125,-3.5651493072509766,1.1210923194885254,-0.11609268188476562
1772717159891840800,6.8268408203125,-2.752089500427246,1.6592614650726318,0.5072442889213562
1772717159911871700,6.846871826171875,-2.255296230316162,1.925730586051941,1.106460452079773
1772717159931903500,6.866903564453125,-1.9251887798309326,1.15261709690094,1.3056470155715942
1772717159951934500,6.8869345703125,-1.474731683731079,-0.07606711983680725,0.9591379761695862
1772717159971965400,6.90696533203125,-1.030876636505127,-0.9507842659950256,0.3884785771369934
1772717159991996400,6.926996337890625,-0.7344099283218384,-1.0608108043670654,0.05711079388856888
1772717160012028700,6.947028564453125,-0.5287448763847351,-1.001405119895935,-0.05390617251396179
1772717160032059600,6.9670595703125,-0.39652693271636963,-0.8778421878814697,-0.14259082078933716
1772717160052090600,6.987090576171875,-0.2796107828617096,-0.760154664516449,-0.25439128279685974
1772717160072122600,7.00712255859375,-0.31186971068382263,-0.6802210807800293,-0.3042159974575043
1772717160092153600,7.027153564453125,-0.10761228948831558,-0.5810126662254333,-0.3375304937362671
1772717160112184600,7.0471845703125,-0.050220243632793427,-0.5985977053642273,-0.4366101026535034
1772717160132215600,7.067215576171875,-0.053908415138721466,-0.7015100121498108,-0.48194700479507446
1772717160152247600,7.08724755859375,-0.0915401503443718,-0.7563019394874573,-0.4392123222351074
1772717160172278500,7.107278564453125,-0.12820342183113098,-0.7281215190887451,-0.4875783622264862
1772717160192309500,7.1273095703125,-0.09611071646213531,-0.4577500522136688,-0.5487531423568726
1772717160212340500,7.147340576171875,-0.00012221536599099636,-0.22400057315826416,-0.46544376015663147
1772717160232372500,7.16737255859375,0.11362366378307343,0.07432954013347626,-0.3935869634151459
1772717160252403500,7.187403564453125,0.23286311328411102,0.31327328085899353,-0.329026460647583
1772717160272434700,7.2074345703125,0.3268212676048279,0.34775930643081665,-0.23540237545967102
1772717160292465700,7.227465576171875,0.5172094106674194,0.318330317735672,-0.21701717376708984
1772717160312497700,7.24749755859375,0.7406349182128906,0.4500925838947296,-0.12291629612445831
1772717160332528600,7.267528564453125,0.9551475048065186,0.6469444632530212,0.0767420083284378
1772717160352559600,7.2875595703125,1.0589603185653687,0.871829092502594,0.18236467242240906
1772717160372591600,7.307591552734375,0.9726981520652771,0.8467423319816589,0.17242363095283508
1772717160392622600,7.32762255859375,0.7737213969230652,0.7468624114990234,0.03193235397338867
1772717160412653600,7.347653564453125,0.5606496334075928,0.6767756342887878,-0.0726650059223175
1772717160432684500,7.3676845703125,0.4615626633167267,0.7599202394485474,-0.10004175454378128
1772717160452716500,7.387716552734375,0.41042184829711914,0.9074499607086182,0.019760973751544952
1772717160472747500,7.40774755859375,0.3434138000011444,1.0152623653411865,0.0742432251572609
1772717160492778500,7.427778564453125,0.24309208989143372,0.9083346128463745,0.03176291659474373
1772717160512809500,7.4478095703125,0.13581939041614532,0.6489437222480774,-0.048394542187452316
1772717160532841700,7.467841796875,0.09191395342350006,0.44083720445632935,-0.06669620424509048
1772717160552872700,7.487872802734375,0.04208347201347351,0.3080635368824005,-0.0025171125307679176
1772717160572903700,7.507903564453125,-0.005196952261030674,0.21919932961463928,0.06619253754615784
1772717160592934700,7.5279345703125,-0.07350419461727142,0.12401577085256577,0.13079458475112915
1772717160612966700,7.547966552734375,-0.12147130072116852,0.09966785460710526,0.18418549001216888
1772717160632997600,7.56799755859375,-0.16888196766376495,0.04218458756804466,0.23782582581043243
1772717160653028600,7.588028564453125,-0.18980053067207336,-0.058786049485206604,0.1934310793876648
1772717160673060600,7.608060546875,-0.2233535796403885,-0.12580981850624084,0.12302809208631516
1772717160693091600,7.628091552734375,-0.2224016636610031,-0.10734182596206665,0.09769129008054733
1772717160713122600,7.64812255859375,-0.23610655963420868,-0.034841522574424744,0.16150116920471191
1772717160733153500,7.668153564453125,-0.26851797103881836,-0.024737238883972168,0.18722516298294067
1772717160753185500,7.688185546875,-0.29216137528419495,-0.025492627173662186,0.11404725909233093
1772717160773216800,7.708216796875,-0.2752973437309265,-0.003771803341805935,0.055207956582307816
1772717160793247200,7.728247314453125,-0.23074078559875488,0.06773270666599274,0.05837972089648247
1772717160813278200,7.7482783203125,-0.1785319298505783,0.11745297163724899,0.08867894113063812
1772717160833310200,7.768310302734375,-0.1012512743473053,0.13364268839359283,0.12973621487617493
1772717160853341400,7.788341552734375,-0.0031567972619086504,0.2077210396528244,0.17850804328918457
1772717160873372400,7.808372314453125,0.08811039477586746,0.2483464926481247,0.17135459184646606
1772717160893403400,7.8284033203125,0.12917260825634003,0.2700587511062622,0.14236502349376678
1772717160913435100,7.84843505859375,0.11091813445091248,0.2299295961856842,0.09764250367879868
1772717160933466000,7.868466064453125,0.027502546086907387,0.16560043394565582,0.09052014350891113
1772717160953497000,7.8884970703125,-0.03441634029150009,0.10857005417346954,0.09485059976577759
1772717160973529300,7.908529296875,-0.06619241088628769,0.16023077070713043,0.08851296454668045
1772717160993560300,7.928560302734375,-0.06457389891147614,0.20611554384231567,0.10882081091403961
1772717161013591300,7.94859130859375,-0.02367585152387619,0.25177067518234253,0.11770298331975937
1772717161033622300,7.968622314453125,0.018019387498497963,0.22395139932632446,0.11145870387554169
1772717161053654300,7.988654296875,0.040854312479496,0.1338977813720703,0.07239077240228653
1772717161073685200,8.008685302734374,0.08240978419780731,0.02825211174786091,0.02045605145394802
1772717161093716200,8.02871630859375,0.14371176064014435,-0.03256501257419586,-0.017149951308965683
1772717161113747500,8.04874755859375,0.20301233232021332,-0.12089840322732925,-0.04323546215891838
1772717161133779200,8.068779296875,0.23216912150382996,-0.20196817815303802,-0.11574209481477737
1772717161153810200,8.08881005859375,0.255867600440979,-0.2842799127101898,-0.18791094422340393
1772717161173841200,8.108841064453125,0.2760995924472809,-0.2833641767501831,-0.19625267386436462
1772717161193873200,8.128873046875,0.25255873799324036,-0.26965922117233276,-0.1755838841199875
1772717161213904100,8.148904052734375,0.16955991089344025,-0.1943381428718567,-0.134282186627388
1772717161233935400,8.168935302734376,0.07758941501379013,-0.10039477050304413,-0.06161506474018097
1772717161253966300,8.18896630859375,0.05218575522303581,0.026143938302993774,0.013379037380218506
1772717161273998300,8.208998291015625,0.061471812427043915,0.13483089208602905,0.044159479439258575
1772717161294029300,8.229029296875,0.05608654394745827,0.15564598143100739,0.042287521064281464
1772717161314060300,8.249060302734375,0.05947401374578476,0.07655301690101624,0.009427381679415703
1772717161334091300,8.26909130859375,0.02215546742081642,-0.003543551079928875,0.008441578596830368
1772717161354123300,8.289123291015626,-0.0001742641907185316,-0.05528156831860542,-0.0021418966352939606
1772717161374154200,8.309154296875,-0.03387439623475075,-0.051504720002412796,0.024338392540812492
1772717161394185200,8.329185302734375,-0.04307596758008003,-0.010808317922055721,0.0778769701719284
1772717161414216200,8.34921630859375,-0.04140205308794975,-0.005517454817891121,0.12545713782310486
1772717161434248200,8.369248291015625,-0.06967159360647202,-0.06302793323993683,0.11579147726297379
1772717161454279200,8.389279052734375,-0.06584936380386353,-0.16251204907894135,0.08186928927898407
1772717161474310100,8.40931005859375,-0.05007234960794449,-0.27873629331588745,0.055827680975198746
1772717161494342400,8.42934228515625,-0.020935168489813805,-0.3803410828113556,0.05958017706871033
1772717161514373400,8.449373291015625,0.0298252385109663,-0.463974267244339,0.09019629657268524
1772717161534404400,8.469404296875,0.07547006011009216,-0.5012194514274597,0.09937935322523117
1772717161554435300,8.489435302734375,0.11309950798749924,-0.5064572691917419,0.08591245859861374
1772717161574467000,8.509467041015625,0.14615978300571442,-0.47471973299980164,0.07702206820249557
1772717161594498000,8.529498046875,0.15475694835186005,-0.39847710728645325,0.06466851383447647
1772717161614529000,8.549529052734375,0.14401881396770477,-0.2850539982318878,0.0680236667394638
1772717161634560300,8.569560302734375,0.08762411028146744,-0.17945101857185364,0.07362373173236847
1772717161654592300,8.58959228515625,0.03566041216254234,-0.08479395508766174,0.07119350880384445
1772717161674623200,8.609623291015625,0.02100428380072117,-0.0014991071075201035,0.051561303436756134
1772717161694654200,8.629654296875,0.027890363708138466,0.08222376555204391,0.021479295566678047
1772717161714686200,8.649686279296875,0.035157445818185806,0.11725282669067383,0.005277165677398443
1772717161734717200,8.66971728515625,0.03344118595123291,0.09896253049373627,-0.012352170422673225
1772717161754748400,8.68974853515625,0.032471880316734314,0.009993678890168667,-0.058895546942949295
1772717161774779400,8.709779296875,0.05403850972652435,-0.05640808492898941,-0.11068827658891678
1772717161794812000,8.72981201171875,0.09974782913923264,-0.06632018834352493,-0.1330385059118271
1772717161814843000,8.7498427734375,0.1588815152645111,-0.07918205112218857,-0.13953717052936554
1772717161834873900,8.769873779296875,0.127080500125885,-0.10163666307926178,-0.1279318779706955
1772717161854905900,8.78990576171875,0.08975543081760406,-0.05863766372203827,-0.17160356044769287
1772717161874936800,8.809936767578124,0.12959040701389313,0.14478017389774323,-0.17825134098529816
1772717161894967800,8.8299677734375,0.26555290818214417,0.548797070980072,-0.12667348980903625
1772717161914998800,8.849998779296875,0.47765591740608215,0.8677350282669067,-0.0966830924153328
1772717161935031000,8.870031005859374,0.7121457457542419,0.7793117761611938,-0.13059446215629578
1772717161955062000,8.89006201171875,0.9171978831291199,0.2871076166629791,-0.2792399227619171
1772717161975093000,8.910093017578125,1.0524815320968628,-0.27250102162361145,-0.4812842309474945
1772717161995124000,8.9301240234375,1.2084823846817017,-0.7427350878715515,-0.5875427722930908
1772717162015155700,8.95015576171875,1.4278790950775146,-1.1584094762802124,-0.4988003075122833
1772717162035186700,8.970186767578125,1.7624800205230713,-1.6458567380905151,-0.2921845614910126
1772717162055218000,8.990218017578124,2.0708959102630615,-2.266824722290039,-0.09971743822097778
1772717162075250000,9.01025,2.3224563598632812,-2.9024226665496826,-0.0187077596783638
1772717162095281000,9.030281005859376,2.466604471206665,-3.367598295211792,0.043561264872550964
1772717162115311900,9.050311767578124,2.6321334838867188,-3.819328784942627,0.16598783433437347
1772717162135342800,9.0703427734375,2.8232271671295166,-4.171706199645996,0.3753410875797272
1772717162155374800,9.090374755859376,2.950390100479126,-4.095637321472168,0.7043760418891907
1772717162175406000,9.110406005859375,2.9466798305511475,-3.855428457260132,1.0793673992156982
1772717162195437000,9.13043701171875,2.9305450916290283,-3.60849666595459,1.3417261838912964
1772717162215468000,9.150468017578126,2.950117826461792,-3.5127551555633545,1.5887902975082397
1772717162235499800,9.170499755859375,2.858781099319458,-3.5663304328918457,1.9123947620391846
1772717162255530800,9.19053076171875,2.671215772628784,-3.59869647026062,2.0492851734161377
1772717162275561700,9.210561767578126,2.525583505630493,-3.601274013519287,1.9594725370407104
1772717162295594000,9.230593994140625,2.390411376953125,-3.293360471725464,1.897152304649353
1772717162315625000,9.250625,2.4797940254211426,-3.055748462677002,1.9155536890029907
1772717162335656000,9.270656005859376,2.44545841217041,-2.9348080158233643,1.884271264076233
1772717162355687000,9.29068701171875,2.335521697998047,-2.6098132133483887,1.7535955905914307
1772717162375719000,9.310718994140625,2.2774786949157715,-2.33171010017395,1.6194195747375488
1772717162395750000,9.33075,2.0831797122955322,-2.169159412384033,1.5053333044052124
1772717162415780900,9.35078076171875,1.8596543073654175,-1.9313340187072754,1.3232691287994385
1772717162435811800,9.370811767578125,1.6684317588806152,-1.847265601158142,1.1373116970062256
1772717162455843800,9.39084375,1.370713710784912,-1.9777896404266357,0.939496636390686
1772717162475874800,9.410874755859375,0.9814697504043579,-2.3606197834014893,0.9064408540725708
1772717162495905800,9.43090576171875,0.407541960477829,-2.6199681758880615,0.8797721862792969
1772717162515937800,9.450937744140624,0.07211056351661682,-2.3989102840423584,0.8824403285980225
1772717162535968800,9.47096875,-0.036710795015096664,-1.9264960289001465,1.0296839475631714
1772717162555999700,9.490999755859375,0.02243252843618393,-1.8556559085845947,1.3430378437042236
1772717162576031000,9.511031005859374,0.04324986785650253,-1.3287750482559204,1.234212040901184
1772717162596063000,9.53106298828125,0.2367975264787674,-0.9808216691017151,0.7723596096038818
1772717162616094000,9.551093994140626,0.20905691385269165,-0.6503705382347107,0.4338251054286957
1772717162636125000,9.571125,0.1136300340294838,-0.34177491068840027,0.5409525632858276
1772717162656156000,9.591156005859375,0.17260189354419708,-0.01081160269677639,0.8151838779449463
1772717162676187600,9.611187744140626,0.2896164357662201,-0.295044869184494,0.7712311148643494
1772717162696219000,9.631218994140625,0.3211265504360199,-0.9518864154815674,0.44485411047935486
1772717162716249900,9.651249755859375,0.27361732721328735,-1.0346364974975586,0.3198094367980957
1772717162736281900,9.67128173828125,0.06383413821458817,-0.628045380115509,0.32201123237609863
1772717162756312800,9.691312744140625,-0.025345420464873314,-0.31906306743621826,0.24206767976284027
1772717162776343800,9.71134375,0.10926586389541626,-0.37375134229660034,0.07539801299571991
1772717162796374800,9.731374755859376,0.0946417897939682,-0.9819758534431458,-0.4384411871433258
1772717162816407000,9.751406982421875,0.15085722506046295,-1.0376731157302856,-0.41573360562324524
1772717162836438000,9.77143798828125,0.32023411989212036,-0.9145094156265259,-0.18702086806297302
1772717162856469000,9.791468994140626,0.4627721309661865,-0.08653164654970169,-0.051252711564302444
1772717162876500700,9.811500732421875,0.47576767206192017,1.1070729494094849,0.42754068970680237
1772717162896531700,9.83153173828125,0.28778186440467834,1.3298274278640747,0.8099936842918396
1772717162916562700,9.851562744140624,-0.010935597121715546,0.9251999855041504,0.7538459300994873
1772717162936593700,9.87159375,-0.04125526174902916,0.2932690978050232,0.23390336334705353
1772717162956626000,9.8916259765625,0.19432659447193146,-0.03046618029475212,-0.3108671307563782
1772717162976657000,9.911656982421874,0.37376001477241516,-0.0010307934135198593,-0.3038744628429413
1772717162996688000,9.93168798828125,0.17972032725811005,-0.06607510894536972,-0.16838139295578003
1772717163016718800,9.95171875,0.03559335693717003,-0.10557236522436142,-0.08140863478183746
1772717163036750800,9.971750732421874,0.07938963174819946,0.09052815288305283,-0.09166020900011063
1772717163056781800,9.99178173828125,0.08301616460084915,0.1495894342660904,-0.06440310180187225
1772717163076813000,10.01181298828125,0.10355788469314575,0.4061991572380066,0.2852932810783386
1772717163096844800,10.0318447265625,-0.08088785409927368,0.3650684952735901,0.4001903235912323
1772717163116875800,10.051875732421875,-0.14357806742191315,-0.016517192125320435,-0.18157422542572021
1772717163136906800,10.07190673828125,-0.050978437066078186,-0.16692844033241272,-0.6845566034317017
1772717163156937700,10.091937744140624,0.07603275775909424,-0.15074683725833893,-0.6581202149391174
