time,seconds_elapsed,z,y,x
1772717153110006800,0.0450068359375,-0.06312410533428192,0.008655006997287273,0.15028031170368195
1772717153130038800,0.065038818359375,-0.06416087597608566,0.10911796241998672,0.3675263524055481
1772717153150069800,0.08506982421875,-0.09234058111906052,0.16125573217868805,0.4465772211551666
1772717153170100700,0.105100830078125,-0.062117964029312134,0.11358461529016495,0.30494898557662964
1772717153190131700,0.125131591796875,-0.060858290642499924,-0.04939311742782593,0.07941067218780518
1772717153210163700,0.145163818359375,-0.08940045535564423,-0.1383592039346695,-0.05356868728995323
1772717153230194700,0.165194580078125,-0.10157030075788498,-0.12312645465135574,-0.010840397328138351
1772717153250225700,0.1852255859375,-0.10054338723421097,-0.04599332436919212,0.12693770229816437
1772717153270256600,0.205256591796875,-0.08020003139972687,0.024221450090408325,0.24053777754306793
1772717153290288600,0.22528857421875,-0.05254603177309036,0.054129015654325485,0.24767504632472992
1772717153310319600,0.245319580078125,-0.02400599978864193,0.029449235647916794,0.13741831481456757
1772717153330350600,0.2653505859375,-0.027105120941996574,-0.03984887897968292,0.03098507970571518
1772717153350382800,0.2853828125,-0.04592248424887657,-0.08847074210643768,0.004453870467841625
1772717153370413800,0.305413818359375,-0.07084620743989944,-0.0792628675699234,0.05781855806708336
1772717153390444800,0.32544482421875,-0.0687902495265007,-0.04220231622457504,0.1180853620171547
1772717153410475800,0.345475830078125,-0.06430309265851974,-0.015078552067279816,0.13529737293720245
1772717153430507800,0.3655078125,-0.07116711884737015,0.004188087303191423,0.10660846531391144
1772717153450538800,0.385538818359375,-0.06841661036014557,-0.00908697210252285,0.05613890290260315
1772717153470569700,0.40556982421875,-0.06356725841760635,-0.02984471432864666,0.041133053600788116
1772717153490600700,0.4256005859375,-0.049918290227651596,-0.027728300541639328,0.055207595229148865
1772717153510632700,0.4456328125,-0.04283348470926285,-0.005757221486419439,0.07259750366210938
1772717153530663700,0.46566357421875,-0.039026759564876556,0.010975952260196209,0.08660866320133209
1772717153550694700,0.485694580078125,-0.029978672042489052,0.007050985470414162,0.08046501129865646
1772717153570726700,0.5057265625,-0.02787077985703945,0.0037886130157858133,0.06762085855007172
1772717153590758000,0.5257578125,-0.024711737409234047,-0.00535455159842968,0.032288432121276855
1772717153610788900,0.545788818359375,-0.013250824064016342,-0.01209581084549427,0.0018285263795405626
1772717153630819800,0.56581982421875,0.006140450481325388,-0.0035278894938528538,-0.006622216198593378
1772717153650851800,0.585851806640625,0.0002388855500612408,-0.014008759520947933,0.00851572398096323
1772717153670882800,0.6058828125,-0.017491376027464867,-0.016504941508173943,0.030580813065171242
1772717153690913800,0.625913818359375,-0.014031928963959217,0.002877545543015003,0.042639605700969696
1772717153710945800,0.64594580078125,0.007484015077352524,0.019658656790852547,0.051167313009500504
1772717153730976800,0.665976806640625,0.01690947450697422,0.04375067725777626,0.029619943350553513
1772717153751007700,0.6860078125,0.002700711600482464,0.01607563905417919,0.004312456585466862
1772717153771038700,0.706038818359375,-0.004613127559423447,-0.026746924966573715,-0.006130596622824669
1772717153791070500,0.726070556640625,-0.015025555156171322,-0.03419898450374603,0.0006223807577043772
1772717153811101400,0.746101318359375,-0.011020959354937077,-0.014792794361710548,0.019962789490818977
1772717153831132400,0.76613232421875,-0.007358580362051725,-0.0026322684716433287,0.013579191640019417
1772717153851163400,0.786163330078125,-0.020563598722219467,0.006353503558784723,-0.015516641549766064
1772717153871195600,0.806195556640625,-0.016515061259269714,0.014692126773297787,-0.034264761954545975
1772717153891226600,0.8262265625,-0.009997240267693996,0.0032349417451769114,-0.018494322896003723
1772717153911257600,0.846257568359375,-0.0021044297609478235,0.01233150064945221,-0.00820946041494608
1772717153931289300,0.866289306640625,-0.004564658273011446,-0.011174890212714672,-0.026981549337506294
1772717153951320300,0.8863203125,-0.010881143622100353,0.0015909724170342088,-0.05888994783163071
1772717153971351300,0.906351318359375,-0.020718861371278763,0.027067037299275398,-0.04956408962607384
1772717153991382500,0.926382568359375,-0.037705834954977036,0.04324893653392792,-0.030006101354956627
1772717154011414500,0.94641455078125,-0.0416925847530365,0.08125517517328262,-0.007694138679653406
1772717154031445500,0.966445556640625,-0.03466103971004486,0.09726183861494064,-0.005517004523426294
1772717154051476500,0.9864765625,-0.044672396034002304,0.08809869736433029,-0.03433720022439957
1772717154071507500,1.006507568359375,-0.04181748628616333,0.07758001238107681,-0.06082526594400406
1772717154091539500,1.02653955078125,-0.017775002866983414,0.04350965842604637,-0.08660866320133209
1772717154111570700,1.04657080078125,-0.010979946702718735,0.011602593585848808,-0.11926993727684021
1772717154131601700,1.0666015625,-0.05974295735359192,0.03937563672661781,-0.1280735433101654
1772717154151633400,1.08663330078125,-0.036491166800260544,0.12295548617839813,-0.11635936796665192
1772717154171664400,1.106664306640625,0.09194856882095337,0.05071297660470009,-0.36842358112335205
1772717154191695400,1.1266953125,0.004625910893082619,-0.10647078603506088,-0.6176760196685791
1772717154211726300,1.146726318359375,-0.2657341957092285,-0.14696495234966278,-0.49183258414268494
1772717154231758600,1.166758544921875,-0.38223710656166077,-0.15531662106513977,-0.13328668475151062
1772717154251789600,1.18678955078125,-0.3055415451526642,-0.4782901406288147,0.03913035988807678
1772717154271820500,1.206820556640625,-0.3089762330055237,-0.7199240922927856,-0.14744244515895844
1772717154291851500,1.2268515625,-0.3311068117618561,-0.6494011878967285,-0.3185276389122009
1772717154311883500,1.246883544921875,-0.3458511531352997,-0.4043240547180176,-0.32470884919166565
1772717154331914500,1.26691455078125,-0.3950437307357788,-0.2945416271686554,-0.2865292429924011
1772717154351945500,1.286945556640625,-0.4184691607952118,-0.28697317838668823,-0.19453273713588715
1772717154371977500,1.3069775390625,-0.36091238260269165,-0.1998814195394516,-0.04393922910094261
1772717154392008400,1.327008544921875,-0.21744683384895325,-0.051602739840745926,0.08375881612300873
1772717154412039400,1.347039306640625,-0.17786186933517456,0.1784839928150177,-0.016284430399537086
1772717154432070400,1.3670703125,-0.2722299098968506,0.07551979273557663,-0.2218620926141739
1772717154452102400,1.387102294921875,-0.40887007117271423,-0.07832197099924088,-0.4089539349079132
1772717154472133400,1.40713330078125,-0.5084267258644104,-0.2567380368709564,-0.6202765703201294
1772717154492164400,1.427164306640625,-0.6491612195968628,-0.5137842297554016,-0.8187023401260376
1772717154512195600,1.447195556640625,-0.7424139380455017,-0.44837966561317444,-0.9462815523147583
1772717154532227600,1.4672275390625,-0.797010600566864,-0.20647035539150238,-0.8276976943016052
1772717154552258600,1.487258544921875,-0.8434529304504395,0.11218246072530746,-0.5357113480567932
1772717154572289500,1.50728955078125,-0.8296268582344055,0.11538917571306229,-0.24837172031402588
1772717154592321300,1.5273212890625,-0.8387202620506287,-0.1110474243760109,-0.19115930795669556
1772717154612352500,1.5473525390625,-0.8724984526634216,-0.29542338848114014,-0.294348806142807
1772717154632383500,1.567383544921875,-0.8928042650222778,-0.2861209809780121,-0.34277600049972534
1772717154652414500,1.58741455078125,-0.7935943007469177,-0.065433070063591,-0.27091750502586365
1772717154672446500,1.607446533203125,-0.6187095642089844,0.07306914776563644,-0.024770326912403107
1772717154692477400,1.6274775390625,-0.38379132747650146,0.31300532817840576,0.2499363273382187
1772717154712508400,1.64750830078125,-0.33859509229660034,0.18870094418525696,0.4883055090904236
1772717154732539400,1.667539306640625,-0.40044355392456055,0.023606525734066963,0.5685768723487854
1772717154752571600,1.687571533203125,-0.2799791991710663,0.34442341327667236,0.385836124420166
1772717154772602600,1.7076025390625,-0.25804832577705383,0.42069050669670105,0.14548476040363312
1772717154792633600,1.727633544921875,-0.1675671637058258,0.3337380290031433,0.06685972213745117
1772717154812664600,1.74766455078125,-0.18739013373851776,-0.04525243118405342,0.05607418715953827
1772717154832696600,1.767696533203125,-0.1295425444841385,-0.5349872708320618,-0.015982961282134056
1772717154852727600,1.7877275390625,-0.02936587855219841,-0.6269581913948059,-0.07173091173171997
1772717154872758500,1.807758544921875,0.16298864781856537,-0.24128851294517517,-0.06963393837213516
1772717154892790500,1.82779052734375,0.32566943764686584,0.22567173838615417,0.03265328332781792
1772717154912821500,1.847821533203125,0.34100979566574097,0.39299947023391724,0.23407535254955292
1772717154932852500,1.8678525390625,0.4626307487487793,0.3130897283554077,0.3313917815685272
1772717154952883700,1.8878837890625,0.8295419216156006,0.4382692277431488,0.11993519216775894
1772717154972915700,1.907915771484375,0.8497691750526428,0.32948389649391174,-0.11245570331811905
1772717154992946700,1.92794677734375,0.5326399207115173,0.13136973977088928,-0.12167530506849289
1772717155012977700,1.947977783203125,0.010753578506410122,0.20194163918495178,-0.1590879261493683
1772717155033008600,1.968008544921875,-0.23477043211460114,0.3958112597465515,-0.2983054518699646
1772717155053040400,1.988040283203125,-0.05880046635866165,0.3193356394767761,-0.3840198218822479
1772717155073071600,2.008071533203125,0.2742571234703064,0.458612322807312,-0.5214826464653015
1772717155093102600,2.0281025390625,0.32516318559646606,0.2408301830291748,-0.5298894047737122
1772717155113133600,2.048133544921875,0.4129825234413147,-0.01044545043259859,-0.44541874527931213
1772717155133165600,2.06816552734375,0.47120293974876404,-0.15978354215621948,-0.2761133313179016
1772717155153196500,2.088196533203125,0.42401066422462463,-0.41586512327194214,-0.09167798608541489
1772717155173227500,2.1082275390625,0.37342339754104614,-0.5110595226287842,0.04650012403726578
1772717155193259800,2.128259765625,0.38294366002082825,-0.09967999160289764,0.15443724393844604
1772717155213290800,2.148290771484375,0.5279229283332825,0.30184292793273926,0.11521873623132706
1772717155233321700,2.16832177734375,0.6212899088859558,0.16368639469146729,0.1143508106470108
1772717155253352700,2.188352783203125,0.5692291259765625,-0.13580496609210968,0.2638548016548157
1772717155273384400,2.208384521484375,0.5354633927345276,-0.31955990195274353,0.4274437427520752
1772717155293415400,2.22841552734375,0.560832679271698,-0.33966195583343506,0.472515344619751
1772717155313446400,2.2484462890625,0.5199409127235413,-0.29464656114578247,0.49322035908699036
1772717155333477400,2.268477294921875,0.454622358083725,-0.04024116322398186,0.43934568762779236
1772717155353509600,2.288509521484375,0.4277774393558502,0.02095135487616062,0.22003915905952454
1772717155373540600,2.30854052734375,0.33640918135643005,-0.29240548610687256,-0.05007195472717285
1772717155393571600,2.328571533203125,0.240290105342865,-0.6655545830726624,-0.2576847970485687
1772717155413602600,2.3486025390625,0.2561526894569397,-0.678432285785675,-0.3254220485687256
1772717155433634600,2.368634521484375,0.3377056121826172,-0.39009717106819153,-0.257629930973053
1772717155453665800,2.388665771484375,0.47021517157554626,-0.14608396589756012,-0.07742235064506531
1772717155473696800,2.40869677734375,0.5553966760635376,-0.02899463288486004,0.12695474922657013
1772717155493728500,2.428728515625,0.5199539661407471,-0.013431918807327747,0.2494119554758072
1772717155513759500,2.448759521484375,0.43855923414230347,0.015445268712937832,0.16654077172279358
1772717155533790500,2.46879052734375,0.39171743392944336,0.04855954647064209,-0.04301218315958977
1772717155553821400,2.488821533203125,0.36102983355522156,0.09879075735807419,-0.20752176642417908
1772717155573853700,2.508853759765625,0.3290351629257202,0.10894299298524857,-0.2860994040966034
1772717155593884700,2.528884765625,0.31168970465660095,0.09063828736543655,-0.2872735857963562
1772717155613915600,2.54891552734375,0.30328771471977234,0.033300433307886124,-0.22507625818252563
1772717155633946600,2.568946533203125,0.3167861998081207,0.044676657766103745,-0.12086702883243561
1772717155653978600,2.588978515625,0.33661824464797974,0.07968471199274063,-0.03333638608455658
1772717155674009600,2.609009521484375,0.3250521123409271,0.049317747354507446,0.040222786366939545
1772717155694040600,2.62904052734375,0.30819645524024963,0.06179812178015709,0.10125791281461716
1772717155714071600,2.649071533203125,0.28083884716033936,0.06034643203020096,0.10246725380420685
1772717155734103600,2.669103515625,0.2664460837841034,0.06309774518013,-0.0016993631143122911
1772717155754134500,2.689134521484375,0.29752010107040405,0.10998588800430298,-0.1637151688337326
1772717155774165500,2.70916552734375,0.27139660716056824,0.10232876986265182,-0.20323728024959564
1772717155794197500,2.729197509765625,0.17993009090423584,0.18390752375125885,-0.14253264665603638
1772717155814228500,2.749228515625,0.13378310203552246,0.19833040237426758,-0.10261479020118713
1772717155834259500,2.769259521484375,0.16239742934703827,0.07271042466163635,-0.09075014293193817
1772717155854290700,2.789290771484375,0.22661370038986206,0.038425952196121216,-0.05969688668847084
1772717155874322700,2.80932275390625,0.2685454487800598,0.1199791356921196,0.024020647630095482
1772717155894353700,2.829353759765625,0.23323512077331543,0.11194464564323425,0.19157768785953522
1772717155914384600,2.849384521484375,0.19261658191680908,0.10903167724609375,0.3811154067516327
1772717155934415600,2.86941552734375,0.1614067405462265,0.1005023717880249,0.4864308834075928
1772717155954447600,2.889447509765625,0.10129732638597488,0.11229191720485687,0.4444078207015991
1772717155974478800,2.909478759765625,0.018676215782761574,0.12016022950410843,0.30016329884529114
1772717155994509800,2.929509765625,-0.06483785063028336,0.15482233464717865,0.1514427810907364
1772717156014541600,2.94954150390625,-0.11131853610277176,0.2300901859998703,0.04596536234021187
1772717156034572500,2.969572509765625,-0.12689563632011414,0.23041057586669922,-0.028140291571617126
1772717156054603500,2.989603515625,-0.07433175295591354,0.26984745264053345,-0.04024835303425789
1772717156074634500,3.009634521484375,-0.04279832914471626,0.20063190162181854,0.11301097273826599
1772717156094666800,3.029666748046875,-0.13870196044445038,0.12883414328098297,0.24750487506389618
1772717156114697700,3.04969775390625,-0.13592347502708435,0.029935261234641075,0.1877499222755432
1772717156134728700,3.069728759765625,-0.15950949490070343,-0.11239258944988251,0.10014764219522476
1772717156154759700,3.089759765625,-0.18679384887218475,-0.15649239718914032,0.06012884899973869
1772717156174791700,3.109791748046875,-0.1033591479063034,-0.044203415513038635,0.010270214639604092
1772717156194822700,3.12982275390625,-0.011299526318907738,-0.03013899363577366,-0.05317879840731621
1772717156214853600,3.149853515625,0.01864638924598694,-0.07347581535577774,-0.06967921555042267
1772717156234884600,3.169884521484375,-0.009429188445210457,-0.1280546337366104,-0.05073295161128044
1772717156254916600,3.18991650390625,-0.0617230199277401,-0.23518775403499603,0.00433163158595562
1772717156274947600,3.209947509765625,-0.08606058359146118,-0.18495041131973267,0.052016329020261765
1772717156294978600,3.229978515625,-0.07355810701847076,-0.06235019490122795,0.12760482728481293
1772717156315009500,3.250009521484375,-0.0460500493645668,0.02786998078227043,0.19096249341964722
1772717156335041500,3.27004150390625,-0.001210673013702035,0.06130170822143555,0.2010340392589569
1772717156355072500,3.290072509765625,0.016113189980387688,0.11479955166578293,0.18276049196720123
1772717156375103700,3.310103759765625,0.0043715788051486015,0.1077088862657547,0.16316361725330353
1772717156395135700,3.3301357421875,-0.025110146030783653,0.18622340261936188,0.1643359512090683
1772717156415166700,3.350166748046875,0.0006271744496189058,0.25274330377578735,0.10756853967905045
1772717156435197700,3.37019775390625,0.02425633743405342,0.2138984352350235,-0.02773495763540268
1772717156455228700,3.390228759765625,-0.010281666181981564,0.035767316818237305,-0.12498375028371811
1772717156475260700,3.4102607421875,-0.055632900446653366,-0.026704581454396248,-0.19150391221046448
1772717156495291600,3.430291748046875,-0.08024796843528748,-0.018334532156586647,-0.30883586406707764
1772717156515322600,3.450322509765625,-0.10651446133852005,0.023860059678554535,-0.42899131774902344
1772717156535353600,3.470353515625,-0.13992728292942047,0.053150568157434464,-0.41916796565055847
1772717156555385600,3.490385498046875,-0.13865934312343597,0.009303486905992031,-0.31174030900001526
1772717156575416600,3.51041650390625,-0.12914839386940002,-0.06420162320137024,-0.19702544808387756
1772717156595447600,3.530447509765625,-0.15147873759269714,-0.0973726287484169,-0.10756480693817139
1772717156615478500,3.550478515625,-0.21321773529052734,-0.10062434524297714,-0.018339592963457108
1772717156635510800,3.5705107421875,-0.2892422080039978,-0.10985672473907471,0.10226858407258987
1772717156655541800,3.590541748046875,-0.33618947863578796,-0.10020063817501068,0.19630347192287445
1772717156675572700,3.61057275390625,-0.3823036849498749,-0.10748092085123062,0.22361071407794952
1772717156695604500,3.6306044921875,-0.4485780596733093,-0.13940076529979706,0.18694272637367249
1772717156715635500,3.650635498046875,-0.5179083943367004,-0.09153364598751068,0.0998096838593483
1772717156735666400,3.67066650390625,-0.593037486076355,-0.036918338388204575,-0.015066301450133324
1772717156755697700,3.69069775390625,-0.627699077129364,-0.016227172687649727,-0.14834606647491455
1772717156775729700,3.710729736328125,-0.6418617367744446,-0.02551654540002346,-0.2098512351512909
1772717156795760400,3.730760498046875,-0.663862407207489,-0.09777183085680008,-0.1347666084766388
1772717156815791400,3.750791259765625,-0.6796597242355347,-0.05295935645699501,0.01835610345005989
1772717156835822300,3.770822265625,-0.685306966304779,0.03965553268790245,0.1547163426876068
1772717156855854300,3.790854248046875,-0.6564726829528809,0.0589916817843914,0.18349099159240723
1772717156875885300,3.81088525390625,-0.6231709122657776,-0.04283135384321213,0.1326744258403778
1772717156895916500,3.83091650390625,-0.5891665816307068,-0.16737382113933563,0.06698835641145706
1772717156915948300,3.8509482421875,-0.5459703803062439,-0.1603558510541916,-0.0173795223236084
1772717156935979300,3.870979248046875,-0.5002872943878174,-0.15063025057315826,-0.021746307611465454
1772717156956010200,3.89101025390625,-0.4371142089366913,-0.15728256106376648,0.020659206435084343
1772717156976041200,3.911041259765625,-0.3838352859020233,-0.1387280523777008,0.04627135768532753
1772717156996073500,3.931073486328125,-0.3375093340873718,-0.1146853044629097,0.03820997104048729
1772717157016104400,3.9511044921875,-0.2954236567020416,-0.10921410471200943,0.005511944647878408
1772717157036135400,3.971135498046875,-0.24532267451286316,-0.09587246924638748,-0.06422825157642365
1772717157056166400,3.99116650390625,-0.18832357227802277,-0.06054190546274185,-0.14194968342781067
1772717157076195600,4.011195556640625,-0.14335210621356964,-0.12835398316383362,-0.13032977283000946
1772717157096226600,4.0312265625,-0.1175849512219429,-0.11671064049005508,-0.07217379659414291
1772717157116257500,4.051257568359375,-0.1019255667924881,-0.05693412199616432,-0.007762315683066845
1772717157136289300,4.071289306640625,-0.08771786838769913,-0.05553330108523369,0.04511954262852669
1772717157156320300,4.0913203125,-0.08087727427482605,-0.057125870138406754,0.07331016659736633
1772717157176351200,4.111351318359375,-0.078099325299263,-0.05171193182468414,0.11758415400981903
1772717157196382200,4.13138232421875,-0.06718143075704575,-0.028135497123003006,0.17613667249679565
1772717157216414500,4.15141455078125,-0.05295988917350769,0.0009435579413548112,0.20782962441444397
1772717157236445400,4.171445556640625,-0.054843805730342865,0.019164107739925385,0.23406602442264557
1772717157256476400,4.191476318359375,-0.07032795995473862,0.05317693576216698,0.24388669431209564
1772717157276507400,4.21150732421875,-0.09072218090295792,0.04987967386841774,0.1911049783229828
1772717157296539400,4.231539306640625,-0.07479701191186905,0.03954288363456726,0.04291657358407974
1772717157316570400,4.2515703125,-0.04905382916331291,0.015248994342982769,-0.0819779559969902
1772717157336601300,4.271601318359375,-0.044191695749759674,-0.04476214572787285,-0.09831804782152176
1772717157356633300,4.29163330078125,-0.02978798933327198,-0.06852180510759354,-0.05018247663974762
1772717157376664300,4.311664306640625,0.0085426215082407,-0.09785305708646774,-0.009847038425505161
1772717157396695300,4.3316953125,0.03696121275424957,-0.09542132914066315,0.03013899363577366
1772717157416726300,4.351726318359375,0.057799383997917175,-0.08856448531150818,0.08582568913698196
1772717157436758300,4.37175830078125,0.08327784389257431,-0.06642536073923111,0.1486097127199173
1772717157456790500,4.39179052734375,0.07820878177881241,-0.060317136347293854,0.17755721509456635
1772717157476821500,4.411821533203125,0.07040519267320633,-0.03719237446784973,0.15307822823524475
1772717157496852500,4.4318525390625,0.07716216146945953,-0.018642393872141838,0.1043863296508789
1772717157516884200,4.45188427734375,0.10043073445558548,0.02227175049483776,0.03954208269715309
1772717157536915200,4.471915283203125,0.10750595480203629,0.060554422438144684,0.00026738137239590287
1772717157556946200,4.4919462890625,0.1164722815155983,0.07580368220806122,0.005269064102321863
1772717157576977200,4.51197705078125,0.12756940722465515,0.06358803063631058,0.030969368293881416
1772717157597009400,4.532009521484375,0.1322357952594757,0.06169692054390907,0.0498112328350544
1772717157617040400,4.552040283203125,0.15903359651565552,0.07144728302955627,0.02076040580868721
1772717157637071400,4.5720712890625,0.18503962457180023,0.09437310695648193,-0.02461559697985649
1772717157657103400,4.592103271484375,0.19376413524150848,0.10085736960172653,-0.0305190272629261
1772717157677134300,4.61213427734375,0.19469784200191498,0.07319112122058868,0.012551478110253811
1772717157697165300,4.632165283203125,0.1778022199869156,0.0034700988326221704,0.08413778245449066
1772717157717196500,4.652196533203125,0.16702280938625336,0.0013539510546252131,0.07774166762828827
1772717157737228300,4.672228271484375,0.172727569937706,0.004462392535060644,0.015837818384170532
1772717157757259300,4.69225927734375,0.1713280826807022,0.046779222786426544,0.004117779433727264
1772717157777290200,4.712290283203125,0.16487683355808258,0.08879990875720978,0.07592432200908661
1772717157797322000,4.732322021484375,0.16879381239414215,0.08728723227977753,0.15916328132152557
1772717157817354000,4.75235400390625,0.18566307425498962,0.09325990825891495,0.14776521921157837
1772717157837385000,4.772385009765625,0.20371638238430023,0.045938994735479355,0.09116080403327942
1772717157857416000,4.792416015625,0.1795223504304886,0.000362988852430135,0.06436167657375336
1772717157877448200,4.8124482421875,0.15524019300937653,-0.0032205607276409864,0.04873904213309288
1772717157897479200,4.832479248046875,0.154069721698761,-0.02706757001578808,0.017974473536014557
1772717157917510100,4.85251025390625,0.1662776619195938,-0.03376355767250061,-0.018390990793704987
1772717157937541000,4.872541015625,0.19623476266860962,0.016143549233675003,-0.06287829577922821
1772717157957572900,4.89257275390625,0.21731287240982056,0.05883269011974335,-0.1004168838262558
1772717157977603800,4.912603759765625,0.23078633844852448,0.03815564140677452,-0.1428101509809494
1772717157997634800,4.932634765625,0.21683457493782043,0.007667240686714649,-0.14843101799488068
1772717158017666000,4.952666015625,0.18553736805915833,0.004490355961024761,-0.1384710669517517
1772717158037698000,4.972697998046875,0.17323437333106995,0.008402006700634956,-0.12367293983697891
1772717158057729000,4.99272900390625,0.17228788137435913,0.02786864899098873,-0.06936576217412949
1772717158077760000,5.012760009765625,0.1555376648902893,0.013738182373344898,0.0027055053506046534
1772717158097792000,5.0327919921875,0.11240696907043457,-0.028801288455724716,0.052798498421907425
1772717158117823000,5.052822998046875,0.08605978637933731,-0.06004416197538376,0.05952191725373268
1772717158137854200,5.072854248046875,0.07827723026275635,-0.012448946014046669,0.03349857032299042
1772717158157885200,5.09288525390625,0.07016737014055252,0.040463004261255264,0.005449892953038216
1772717158177917000,5.1129169921875,0.07246062159538269,0.03813619911670685,0.014564028941094875
1772717158197948000,5.132947998046875,0.10230719298124313,0.0310447346419096,0.04772358015179634
1772717158217979000,5.152978759765625,0.17781580984592438,0.04842239245772362,0.08465150743722916
1772717158238009900,5.173009765625,0.23207105696201324,0.1279241442680359,0.08019896596670151
1772717158258042000,5.1930419921875,0.2300156205892563,0.1909068375825882,0.04819149896502495
1772717158278073000,5.213072998046875,0.20245963335037231,0.24784095585346222,0.05783027783036232
1772717158298104000,5.23310400390625,0.1510172188282013,0.3666935861110687,0.09785625338554382
1772717158318136000,5.253135986328125,0.10925671458244324,0.2831142544746399,0.1292456090450287
1772717158338167000,5.2731669921875,0.09253206104040146,0.10228775441646576,0.09005079418420792
1772717158358198000,5.293197998046875,0.07902690768241882,0.002266616327688098,-0.04343322664499283
1772717158378229000,5.31322900390625,0.0722491666674614,-0.10442547500133514,-0.1960936039686203
1772717158398261000,5.333260986328125,-0.056000951677560806,-0.17530789971351624,-0.2994367778301239
1772717158418292000,5.3532919921875,-0.056772734969854355,-0.17219360172748566,-0.29119110107421875
1772717158438323000,5.373322998046875,-0.03759877383708954,-0.200785830616951,-0.1735004186630249
1772717158458354000,5.39335400390625,-0.06408577412366867,-0.1440035104751587,-0.041901376098394394
1772717158478386000,5.413385986328125,-0.038666434586048126,-0.06034962832927704,0.05992671847343445
1772717158498417000,5.4334169921875,-0.013539244420826435,-0.0019076223252341151,0.11749893426895142
1772717158518447900,5.45344775390625,-0.009435845538973808,0.0263660941272974,0.12828314304351807
1772717158538479000,5.47347900390625,-0.006205964367836714,0.07390804588794708,0.06758410483598709
1772717158558511000,5.493510986328125,0.01919633150100708,0.1446429342031479,-0.02774055115878582
1772717158578542000,5.5135419921875,0.03303278610110283,0.13758715987205505,-0.081143319606781
1772717158598573000,5.533572998046875,0.0507233664393425,0.07168857008218765,-0.0916295200586319
1772717158618604800,5.553604736328125,0.07458129525184631,0.0118489358574152,-0.0571647509932518
1772717158638635800,5.5736357421875,0.08298835903406143,-0.008567921817302704,0.010116283781826496
1772717158658667000,5.5936669921875,0.08255106955766678,0.00800492987036705,0.0655537098646164
1772717158678698000,5.613697998046875,0.08883000165224075,0.052265867590904236,0.08571810275316238
1772717158698730000,5.63372998046875,0.1006200835108757,0.09888023883104324,0.10048239678144455
1772717158718761000,5.653760986328125,0.0720486268401146,0.1104695200920105,0.15627269446849823
1772717158738792000,5.6737919921875,0.02353089302778244,0.06494490802288055,0.22155262529850006
1772717158758823000,5.693822998046875,-0.002686330582946539,0.00446931691840291,0.24321265518665314
1772717158778855200,5.713855224609375,-0.021517809480428696,-0.01563888043165207,0.21233010292053223
1772717158798886100,5.73388623046875,-0.05013267695903778,0.0002721750643104315,0.1767401546239853
1772717158818917000,5.753917236328125,-0.03458354249596596,0.004564658273011446,0.1368159055709839
1772717158838948900,5.773948974609375,-0.029896646738052368,-0.10284542292356491,0.061345916241407394
1772717158858979800,5.793979736328125,-0.027235882356762886,-0.12815797328948975,-0.014157896861433983
1772717158879010800,5.8140107421875,-0.026272617280483246,-0.044555485248565674,-0.014337926171720028
1772717158899041800,5.834041748046875,-0.06256511062383652,0.05976399779319763,0.08252816647291183
1772717158919074000,5.854073974609375,-0.19893546402454376,0.14567410945892334,0.17119838297367096
1772717158939105000,5.87410498046875,-0.34529000520706177,0.184869185090065,0.18700717389583588
1772717158959136000,5.894135986328125,-0.37659892439842224,0.08914132416248322,0.05053481459617615
1772717158979167000,5.9141669921875,-0.31533104181289673,-0.13965563476085663,-0.06653241813182831
1772717158999199000,5.934198974609375,-0.26867246627807617,-0.06459976732730865,-0.022070948034524918
1772717159019230000,5.95422998046875,-0.21039345860481262,-0.02418576367199421,0.028810875490307808
1772717159039261200,5.97426123046875,-0.3508799970149994,0.3029468357563019,0.19029031693935394
1772717159059293000,5.99429296875,-0.6205357313156128,0.830186128616333,0.4619410037994385
1772717159079324000,6.014323974609375,-0.6474509239196777,0.6269794702529907,0.5576992034912109
1772717159099355000,6.03435498046875,-0.21369443833827972,0.2673720419406891,0.3162522315979004
1772717159119385900,6.0543857421875,0.17874258756637573,0.47649329900741577,-0.1589488983154297
1772717159139417900,6.07441796875,-0.08439690619707108,1.2490816116333008,-0.5806016325950623
1772717159159449000,6.094448974609375,-1.031028151512146,0.8313291668891907,-0.8751283288002014
1772717159179480000,6.11447998046875,-1.9230084419250488,0.011182080954313278,-0.8223138451576233
1772717159199511000,6.134510986328125,-2.0955662727355957,-1.3143242597579956,-0.60207599401474
1772717159219543000,6.15454296875,-1.2920418977737427,-2.67923903465271,-0.8151480555534363
1772717159239574000,6.174573974609375,-0.1478925198316574,-4.134474754333496,-0.7334688901901245
1772717159259605000,6.19460498046875,0.6751861572265625,-2.233671188354492,-0.9413909316062927
1772717159279636000,6.214635986328125,1.067057490348816,0.30296945571899414,-0.7383235692977905
1772717159299668000,6.23466796875,1.3239492177963257,2.760308027267456,0.03966059535741806
1772717159319699000,6.254698974609375,1.194301724433899,4.661077499389648,0.510400116443634
1772717159339730000,6.27472998046875,1.0017515420913696,4.208652019500732,-0.8004133105278015
1772717159359762000,6.294761962890625,0.9742921590805054,0.7582336664199829,-1.273030161857605
1772717159379793000,6.31479296875,0.6661679148674011,-2.111870765686035,-1.0023938417434692
1772717159399824000,6.334823974609375,-0.028813272714614868,-2.5430331230163574,-0.5575335621833801
1772717159419854800,6.354854736328125,-0.32342812418937683,-1.2120168209075928,-0.8180863261222839
1772717159439887000,6.37488720703125,-0.06717078387737274,0.048052746802568436,-0.7373669743537903
1772717159459918000,6.39491796875,-0.6113595366477966,3.366260051727295,-0.22042478621006012
1772717159479949000,6.414948974609375,-1.0308902263641357,6.466465950012207,0.5176932215690613
1772717159499980000,6.43497998046875,-0.5544272661209106,5.758660316467285,0.2982311546802521
1772717159520011800,6.45501171875,-1.0679137706756592,5.06937313079834,0.36591166257858276
1772717159540042800,6.475042724609375,-1.2032054662704468,5.2160539627075195,0.5087540745735168
1772717159560074000,6.495073974609375,-0.7584922313690186,5.4460344314575195,0.15563912689685822
1772717159580105000,6.51510498046875,-0.6533964276313782,5.017955303192139,-0.25476837158203125
1772717159600137000,6.535136962890625,-1.3342986106872559,5.151981830596924,-0.5059366822242737
1772717159620168000,6.55516796875,-2.1827950477600098,4.8552961349487305,-0.6893701553344727
1772717159640199000,6.575198974609375,-2.8951427936553955,4.092423915863037,-0.9793199300765991
1772717159660231000,6.59523095703125,-3.3603224754333496,3.6512563228607178,-1.2805836200714111
1772717159680262100,6.61526220703125,-3.596925973892212,3.865626573562622,-1.4414197206497192
1772717159700293000,6.635293212890625,-3.58832049369812,4.504134178161621,-1.23455011844635
1772717159720324000,6.655323974609375,-3.5942320823669434,4.763611316680908,-0.9790786504745483
1772717159740356000,6.675356201171875,-3.9635822772979736,4.460543632507324,-0.6715216636657715
1772717159760386800,6.69538671875,-4.402344703674316,4.103427410125732,-0.45423755049705505
1772717159780417800,6.715417724609375,-4.768241882324219,3.4225990772247314,-0.4622126519680023
1772717159800448800,6.73544873046875,-4.857356071472168,2.2044410705566406,-0.7159586548805237
1772717159820480500,6.75548046875,-4.763059139251709,1.1725362539291382,-0.9842199087142944
1772717159840511500,6.775511474609375,-4.536709785461426,0.6539821028709412,-0.959897518157959
1772717159860542500,6.79554248046875,-3.9958019256591797,0.8638429045677185,-0.46108001470565796
1772717159880573400,6.815573486328125,-3.212580442428589,1.4133532047271729,0.15428757667541504
1772717159900605700,6.835605712890625,-2.4898812770843506,1.8997406959533691,0.7872676849365234
1772717159920636700,6.85563671875,-2.118363857269287,1.6930210590362549,1.279004454612732
1772717159940667600,6.875667724609375,-1.7342134714126587,0.6477864980697632,1.2131470441818237
1772717159960699600,6.89569970703125,-1.2280709743499756,-0.5773589611053467,0.7193472385406494
1772717159980730600,6.915730712890625,-0.9136328101158142,-1.015633463859558,0.20282422006130219
1772717160000761600,6.93576171875,-0.6286996006965637,-1.037690281867981,0.003948668949306011
1772717160020792800,6.955792724609375,-0.45681148767471313,-0.9205130934715271,-0.08791787177324295
1772717160040824600,6.975824462890625,-0.34325990080833435,-0.8218544125556946,-0.18976327776908875
1772717160060855600,6.99585546875,-0.2737114429473877,-0.6938573122024536,-0.28620538115501404
1772717160080886500,7.015886474609375,-0.2313317507505417,-0.6350176930427551,-0.30307385325431824
1772717160100917500,7.03591748046875,-0.06107427179813385,-0.5613200664520264,-0.3709988296031952
1772717160120949500,7.055949462890625,-0.03699503466486931,-0.6312538385391235,-0.4756104648113251
1772717160140980700,7.075980712890625,-0.06863684952259064,-0.6964104771614075,-0.4565446376800537
1772717160161011700,7.09601171875,-0.11727496236562729,-0.7563129663467407,-0.4426402747631073
1772717160181042700,7.116042724609375,-0.12029311805963516,-0.6035551428794861,-0.5225074291229248
1772717160201074700,7.13607470703125,-0.04615151509642601,-0.3444407284259796,-0.5125383734703064
1772717160221105700,7.156105712890625,0.058221492916345596,-0.07692673802375793,-0.42246949672698975
1772717160241136600,7.17613671875,0.1657407581806183,0.18111786246299744,-0.35884764790534973
1772717160261168600,7.196168701171875,0.2705356180667877,0.39412280917167664,-0.2896323502063751
1772717160281199600,7.21619970703125,0.4007607400417328,0.3328717052936554,-0.2123602032661438
1772717160301230600,7.236230712890625,0.6152693033218384,0.37957900762557983,-0.19367866218090057
1772717160321261600,7.256261474609375,0.8372528553009033,0.5434137582778931,-0.02635091356933117
1772717160341293600,7.27629345703125,1.0292975902557373,0.7879534363746643,0.1367194950580597
1772717160361324500,7.296324462890625,1.0421279668807983,0.8956154584884644,0.2044926881790161
1772717160381355500,7.31635546875,0.9024797677993774,0.8277405500411987,0.11953891068696976
1772717160401386500,7.336386474609375,0.6750493049621582,0.7298941612243652,-0.013933924958109856
1772717160421418800,7.356418701171875,0.5085857510566711,0.697858989238739,-0.09597127139568329
1772717160441449700,7.37644970703125,0.44180136919021606,0.8450028896331787,-0.05071457475423813
1772717160461480700,7.396480712890625,0.3902985155582428,1.0064599514007568,0.06399869173765182
1772717160481511700,7.41651171875,0.3101421594619751,0.9945892095565796,0.06778783351182938
1772717160501543400,7.43654345703125,0.19340647757053375,0.8219252824783325,0.0024839304387569427
1772717160521574400,7.456574462890625,0.11839428544044495,0.5583772659301758,-0.06893006712198257
1772717160541605600,7.476605712890625,0.07868016511201859,0.38401371240615845,-0.03842674940824509
1772717160561637600,7.4966376953125,0.02568885125219822,0.2867753207683563,0.035592347383499146
1772717160581668600,7.516668701171875,-0.03573589399456978,0.19655966758728027,0.10002592951059341
1772717160601699600,7.536699462890625,-0.09522505104541779,0.11496386677026749,0.16243711113929749
1772717160621730600,7.55673046875,-0.13923326134681702,0.09521067142486572,0.21942609548568726
1772717160641762800,7.5767626953125,-0.16996613144874573,0.014475878328084946,0.2348702996969223
1772717160661793800,7.596793701171875,-0.20250144600868225,-0.07832276821136475,0.16144295036792755
1772717160681824800,7.61682470703125,-0.21785056591033936,-0.11571594327688217,0.10941118001937866
1772717160701855700,7.636855712890625,-0.22313827276229858,-0.06365540623664856,0.12213017046451569
1772717160721887500,7.656887451171875,-0.24600337445735931,-0.0148662980645895,0.1938440352678299
1772717160741918500,7.67691845703125,-0.27471011877059937,-0.007413974031805992,0.16195641458034515
1772717160761949400,7.696949462890625,-0.2902882993221283,-0.006619020365178585,0.09053389728069305
1772717160781981700,7.716981689453125,-0.25285008549690247,0.04526282101869583,0.05181419476866722
1772717160802012200,7.73701220703125,-0.2066088318824768,0.10686519742012024,0.07596880197525024
1772717160822043100,7.757043212890625,-0.14990800619125366,0.1322624385356903,0.11101679503917694
1772717160842074000,7.77707421875,-0.053532734513282776,0.18745005130767822,0.15683461725711823
1772717160862106400,7.7971064453125,0.046417031437158585,0.2371760606765747,0.1858614832162857
1772717160882137300,7.817137451171875,0.11976421624422073,0.2718336582183838,0.1646565943956375
1772717160902168300,7.837168212890625,0.12977929413318634,0.26644474267959595,0.1308232545852661
1772717160922199300,7.85719921875,0.08162561804056168,0.2274041324853897,0.09138397872447968
1772717160942231300,7.877231201171875,-0.005015797447413206,0.15232588350772858,0.10001501441001892
1772717160962262300,7.89726220703125,-0.04879443719983101,0.13250930607318878,0.09279119223356247
1772717160982293200,7.917293212890625,-0.06776519864797592,0.18787749111652374,0.10081369429826736
1772717161002324200,7.93732421875,-0.0457184873521328,0.2515068054199219,0.12039565294981003
1772717161022356200,7.957356201171875,0.0020996362436562777,0.26412007212638855,0.12342659384012222
1772717161042387200,7.97738720703125,0.031801603734493256,0.19975651800632477,0.10516982525587082
1772717161062418200,7.997418212890625,0.055699482560157776,0.09946879744529724,0.05711601674556732
1772717161082449200,8.01744921875,0.1097925454378128,0.012747220695018768,0.0014181332662701607
1772717161102480100,8.037480224609375,0.1746082901954651,-0.046540338546037674,-0.021914353594183922
1772717161122511000,8.057510986328126,0.22363735735416412,-0.1362164318561554,-0.06366925686597824
1772717161142542000,8.0775419921875,0.2400895655155182,-0.22917646169662476,-0.1436719447374344
1772717161162574300,8.09757421875,0.2727207541465759,-0.2762470245361328,-0.19166716933250427
1772717161182605300,8.117605224609376,0.27657219767570496,-0.2718173861503601,-0.1783686727285385
1772717161202636300,8.13763623046875,0.22944357991218567,-0.21954859793186188,-0.1594754159450531
1772717161222667300,8.157667236328125,0.12585459649562836,-0.1501053422689438,-0.09557552635669708
1772717161242699300,8.17769921875,0.06150596961379051,-0.026982082054018974,-0.025530127808451653
1772717161262730200,8.197730224609375,0.05850458890199661,0.09940461814403534,0.034694332629442215
1772717161282761200,8.21776123046875,0.06391266733407974,0.1718311458826065,0.052143096923828125
1772717161302793200,8.237793212890624,0.06722617149353027,0.14004018902778625,0.03338911384344101
1772717161322824200,8.25782421875,0.04553525894880295,0.05506644770503044,0.013247895054519176
1772717161342855200,8.277855224609375,0.018604043871164322,-0.014092649333178997,0.007310110609978437
1772717161362886100,8.29788623046875,-0.011839881539344788,-0.04193839430809021,0.009200156666338444
1772717161382918400,8.31791845703125,-0.03837242349982262,-0.017233582213521004,0.04698535054922104
1772717161402949400,8.337949462890625,-0.03891970217227936,0.010790329426527023,0.1089286133646965
1772717161422980400,8.35798046875,-0.04957980290055275,-0.0076062544248998165,0.12910312414169312
1772717161443011300,8.37801123046875,-0.06813431531190872,-0.0862419456243515,0.1089954599738121
1772717161463043300,8.398043212890625,-0.05615035444498062,-0.19849763810634613,0.07405824959278107
1772717161483075000,8.418074951171874,-0.03651699796319008,-0.3104468286037445,0.06007665395736694
1772717161503106300,8.438106201171875,0.00270710326731205,-0.40399301052093506,0.07666255533695221
1772717161523137300,8.45813720703125,0.054614242166280746,-0.47264423966407776,0.10235380381345749
1772717161543169300,8.478169189453125,0.09470680356025696,-0.4990297853946686,0.10354237258434296
1772717161563200300,8.4982001953125,0.1326368749141693,-0.48125290870666504,0.08738577365875244
1772717161583231200,8.518231201171876,0.15858379006385803,-0.42829808592796326,0.07751849293708801
1772717161603263200,8.53826318359375,0.16323499381542206,-0.3370635211467743,0.07225316017866135
1772717161623294500,8.55829443359375,0.12546683847904205,-0.21591924130916595,0.07292374223470688
1772717161643325400,8.578325439453126,0.06498139351606369,-0.12140365689992905,0.08221737295389175
1772717161663356400,8.5983564453125,0.025672607123851776,-0.03110971674323082,0.0706038624048233
1772717161683388200,8.61838818359375,0.031027957797050476,0.041786063462495804,0.042813509702682495
1772717161703419100,8.638419189453124,0.0350666418671608,0.11914050579071045,0.01500957552343607
1772717161723450000,8.6584501953125,0.037942856550216675,0.13816826045513153,0.0013012205017730594
1772717161743482400,8.678482421875,0.035650137811899185,0.08007805794477463,-0.025561286136507988
1772717161763513300,8.698513427734374,0.040828123688697815,-0.009441172704100609,-0.07791610062122345
1772717161783544300,8.71854443359375,0.07367528229951859,-0.047156594693660736,-0.12083560973405838
1772717161803575800,8.738575927734376,0.1306152641773224,-0.05216040462255478,-0.13706330955028534
1772717161823607800,8.75860791015625,0.16109274327754974,-0.08134199678897858,-0.12012321501970291
1772717161843638800,8.778638671875,0.11269459128379822,-0.07877630740404129,-0.1345847100019455
1772717161863669800,8.798669677734376,0.09336909651756287,0.021556157618761063,-0.1796453893184662
1772717161883700700,8.81870068359375,0.18403641879558563,0.31183964014053345,-0.14944808185100555
1772717161903732700,8.838732666015625,0.3588937222957611,0.7319772839546204,-0.10215593129396439
1772717161923763700,8.858763671875,0.5782710909843445,0.914463996887207,-0.09740617871284485
1772717161943795000,8.878794921875,0.8161294460296631,0.6066470742225647,-0.17682430148124695
1772717161963827000,8.898826904296875,0.9846910238265991,0.053593721240758896,-0.35924097895622253
1772717161983858000,8.91885791015625,1.1192147731781006,-0.4813043177127838,-0.5395228862762451
1772717162003889000,8.938888916015625,1.2927998304367065,-0.902144193649292,-0.5659467577934265
1772717162023919900,8.958919921875,1.5668843984603882,-1.341033935546875,-0.4132152795791626
1772717162043951900,8.978951904296874,1.9095344543457031,-1.8976609706878662,-0.19021227955818176
1772717162063982800,8.99898291015625,2.191502571105957,-2.5393099784851074,-0.04892812669277191
1772717162084013800,9.019013916015625,2.394914150238037,-3.1015443801879883,0.008741559460759163
1772717162104044800,9.039044921875,2.539330244064331,-3.5547945499420166,0.09345272183418274
1772717162124076800,9.059076904296875,2.718195915222168,-3.997633218765259,0.2458726167678833
1772717162144107800,9.079107666015625,2.8981339931488037,-4.186544895172119,0.5121058821678162
1772717162164138800,9.099138671875,2.95944881439209,-3.980355739593506,0.8832544088363647
1772717162184169700,9.119169677734375,2.93809175491333,-3.7205960750579834,1.212269902229309
1772717162204202000,9.139201904296876,2.9452078342437744,-3.5251784324645996,1.4479886293411255
1772717162224233000,9.15923291015625,2.937596321105957,-3.515326499938965,1.733532190322876
1772717162244264000,9.179263916015625,2.779125690460205,-3.575598955154419,2.0170035362243652
1772717162264296000,9.1992958984375,2.6199183464050293,-3.605724811553955,2.0300955772399902
1772717162284327000,9.219326904296874,2.455742359161377,-3.4895780086517334,1.9256774187088013
1772717162304358000,9.23935791015625,2.4154703617095947,-3.141359329223633,1.9127366542816162
1772717162324388900,9.259388916015626,2.4986705780029297,-2.989934206008911,1.9170011281967163
1772717162344420900,9.2794208984375,2.3960704803466797,-2.808393716812134,1.8454310894012451
1772717162364451800,9.299451904296875,2.3187546730041504,-2.4512035846710205,1.683980941772461
1772717162384482800,9.31948291015625,2.217244863510132,-2.251018524169922,1.5897949934005737
1772717162404513800,9.339513671875,1.9773776531219482,-2.0641825199127197,1.4250940084457397
1772717162424545800,9.3595458984375,1.7874242067337036,-1.8302382230758667,1.252200722694397
1772717162444577000,9.379576904296876,1.5563180446624756,-1.8787306547164917,1.0428520441055298
1772717162464608000,9.39960791015625,1.2234936952590942,-2.0819737911224365,0.9154695868492126
1772717162484640000,9.419639892578125,0.7553195953369141,-2.518400192260742,0.8996850252151489
1772717162504671000,9.4396708984375,0.2066815346479416,-2.578751564025879,0.8807023167610168
1772717162524702000,9.459701904296875,0.009014001116156578,-2.138986587524414,0.9177373051643372
1772717162544733000,9.47973291015625,-0.0016338493442162871,-1.8775711059570312,1.182911992073059
1772717162564765000,9.499764892578124,0.031128358095884323,-1.6626633405685425,1.3717767000198364
1772717162584796000,9.5197958984375,0.10988388955593109,-1.119638204574585,1.0534999370574951
1772717162604827000,9.539826904296875,0.2712072730064392,-0.8053955435752869,0.5854155421257019
1772717162624859000,9.55985888671875,0.15457066893577576,-0.5163568258285522,0.43451017141342163
1772717162644889900,9.579889892578125,0.12089180201292038,-0.15179166197776794,0.677768886089325
1772717162664920800,9.5999208984375,0.23154588043689728,-0.023548468947410583,0.8591496348381042
1772717162684951800,9.619951904296874,0.32126671075820923,-0.5917165875434875,0.6395770311355591
1772717162704984000,9.639984130859375,0.32678157091140747,-1.0900722742080688,0.3662094175815582
1772717162725015000,9.66001513671875,0.19574765861034393,-0.8331158757209778,0.32131677865982056
1772717162745046000,9.6800458984375,-0.010491256602108479,-0.48769909143447876,0.29681196808815
1772717162765077000,9.700076904296875,0.037213947623968124,-0.14920173585414886,0.23606659471988678
1772717162785108700,9.720108642578126,0.14446450769901276,-0.6901217103004456,-0.1940954327583313
1772717162805139700,9.7401396484375,0.11053449660539627,-1.0340626239776611,-0.4641152024269104
1772717162825170700,9.760170654296875,0.21421322226524353,-0.9561699032783508,-0.30680200457572937
1772717162845203000,9.780202880859376,0.43409791588783264,-0.6770389080047607,-0.1138184443116188
1772717162865234000,9.80023388671875,0.48360103368759155,0.5329113006591797,0.10917815566062927
1772717162885265000,9.820264892578125,0.4351671636104584,1.3167848587036133,0.6604383587837219
1772717162905296000,9.8402958984375,0.1493426114320755,1.1831905841827393,0.8385316729545593
1772717162925328000,9.860327880859375,-0.06763043999671936,0.6586729884147644,0.5809710025787354
1772717162945358800,9.88035888671875,0.034331608563661575,0.0975598469376564,-0.06364449113607407
1772717162965390000,9.90039013671875,0.32217830419540405,-0.010699249804019928,-0.349529504776001
1772717162985421800,9.920421875,0.32260096073150635,0.01182070653885603,-0.2342391312122345
1772717163005452800,9.940452880859375,0.08961617201566696,-0.09121326357126236,-0.11225596815347672
1772717163025483800,9.96048388671875,0.04121561348438263,-0.02882792055606842,-0.08499904721975327
1772717163045514800,9.9805146484375,0.08236757665872574,0.15854090452194214,-0.07388274371623993
1772717163065546800,10.000546630859375,0.11271563172340393,0.16182565689086914,-0.03214062750339508
1772717163085578000,10.020577880859374,0.03556571528315544,0.4969378709793091,0.5077489614486694
1772717163105609000,10.04060888671875,-0.12093067914247513,0.1827826052904129,0.16054067015647888
1772717163125641000,10.060640869140625,-0.11101413518190384,-0.0785299614071846,-0.4466925263404846
1772717163145672000,10.080671875,0.03394145518541336,-0.2048753798007965,-0.7649698257446289
1772717163165703000,10.100702880859375,0.07871212065219879,-0.06389402598142624,-0.44022026658058167
