time,seconds_elapsed,z,y,x
1772791550361057000,0.17105712890625,6.873226642608643,3.4297263622283936,2.3829023838043213
1772791550381158700,0.19115869140625,6.901373863220215,3.8734889030456543,3.0332746505737305
1772791550401260300,0.21126025390625,7.515813827514648,3.988471746444702,2.8086986541748047
1772791550421362000,0.23136181640625,7.468502998352051,3.7543137073516846,1.7858293056488037
1772791550441463800,0.2514638671875,7.515813827514648,4.752629280090332,0.944417417049408
1772791550461565400,0.2715654296875,7.520605087280273,4.719092845916748,0.8629711270332336
1772791550481667000,0.2916669921875,8.527304649353027,4.4849348068237305,2.5984952449798584
1772791550501768700,0.311768798828125,9.855597496032715,2.6320321559906006,5.825204849243164
1772791550521870600,0.33187060546875,10.115507125854492,1.5145412683486938,4.519669055938721
1772791550541972200,0.35197216796875,6.887599468231201,-0.5868922472000122,0.5473668575286865
1772791550562073900,0.372073974609375,2.2409701347351074,-2.029569149017334,3.166822671890259
1772791550582175500,0.392175537109375,2.118201971054077,3.0668113231658936,10.12209415435791
1772791550602277000,0.412277099609375,5.204775810241699,2.293071746826172,8.539880752563477
1772791550622378800,0.432378662109375,3.3848111629486084,-2.8410375118255615,7.243927001953125
1772791550642480600,0.452480712890625,1.130066990852356,-1.985851764678955,8.314705848693848
1772791550662581200,0.472581298828125,4.9304938316345215,-4.278324604034424,7.167271614074707
1772791550682681600,0.492681640625,9.136954307556152,-5.730583667755127,6.335442066192627
1772791550702782200,0.5127822265625,11.476737976074219,-5.759329319000244,4.342403888702393
1772791550722882600,0.532882568359375,11.098252296447754,-5.482052803039551,5.742560863494873
1772791550742983200,0.552983154296875,11.991765975952148,-6.203091621398926,9.614851951599121
1772791550763083500,0.57308349609375,14.203391075134277,-6.031216144561768,9.495078086853027
1772791550783184100,0.59318408203125,13.735673904418945,-5.076018810272217,8.55904483795166
1772791550803284700,0.61328466796875,11.698918342590332,-4.307070255279541,7.517011642456055
1772791550823385000,0.633385009765625,10.105925559997559,-3.801025629043579,6.469588756561279
1772791550843485700,0.653485595703125,9.793913841247559,-3.701014280319214,5.958154201507568
1772791550863586000,0.6735859375,11.325223922729492,-4.049556255340576,5.6191935539245605
1772791550883686700,0.693686767578125,12.303776741027832,-3.733952283859253,4.868211269378662
1772791550903787000,0.713787109375,11.310851097106934,-3.438110589981079,4.423850059509277
1772791550923887600,0.7338876953125,10.54549503326416,-2.76019024848938,3.2476699352264404
1772791550943988200,0.75398828125,11.268331527709961,-2.354156494140625,2.1146087646484375
1772791550964088600,0.774088623046875,12.086386680603027,-1.97207772731781,0.9438185691833496
1772791550984189200,0.794189208984375,12.194782257080078,-1.446270227432251,1.020473837852478
1772791551004289500,0.81428955078125,10.361043930053711,-0.6156379580497742,1.8427218198776245
1772791551024390100,0.83439013671875,7.865553855895996,-0.07605644315481186,1.7133660316467285
1772791551044490500,0.854490478515625,7.662537097930908,0.27787551283836365,-0.06946887820959091
1772791551064591000,0.874591064453125,9.392072677612305,0.3347681164741516,-2.4170379638671875
1772791551084691700,0.894691650390625,9.26451301574707,-1.5852079391479492,-1.814574956893921
1772791551104792000,0.9147919921875,9.87895393371582,-5.902459144592285,5.055058479309082
1772791551124892700,0.934892578125,13.022419929504395,-7.067859649658203,6.904966831207275
1772791551144993000,0.954992919921875,16.746789932250977,-7.478683948516846,6.24980354309082
1772791551165095000,0.975094970703125,16.49167251586914,-8.825541496276855,8.797993659973145
1772791551185196800,0.99519677734375,14.709436416625977,-10.774263381958008,12.588838577270508
1772791551205298700,1.015298583984375,19.535127639770508,-12.527154922485352,11.895347595214844
1772791551225400600,1.035400634765625,26.615562438964844,-16.304824829101562,11.824082374572754
1772791551245502200,1.055502197265625,28.41157341003418,-24.428491592407227,17.067785263061523
1772791551265604000,1.07560400390625,28.8038330078125,-34.62065505981445,21.317363739013672
1772791551285706000,1.0957060546875,29.356590270996094,-41.04472732543945,21.29340934753418
1772791551305808000,1.115807861328125,22.243215560913086,-46.64176559448242,20.284912109375
1772791551325909800,1.13590966796875,8.650073051452637,-47.97903823852539,16.446157455444336
1772791551346011400,1.156011474609375,-3.9178051948547363,-40.151214599609375,9.67713451385498
1772791551366113300,1.17611328125,-14.117154121398926,-27.02219581604004,-0.4761013686656952
1772791551386215200,1.196215087890625,-20.086687088012695,-14.714226722717285,-9.989145278930664
1772791551406317000,1.216317138671875,-20.03937530517578,-7.421192646026611,-12.852940559387207
1772791551426418700,1.236418701171875,-19.45368194580078,-4.263951778411865,-12.71400260925293
1772791551446520600,1.2565205078125,-18.93865394592285,-2.3775124549865723,-14.6214017868042
1772791551466622500,1.27662255859375,-17.49657440185547,-3.323127508163452,-14.650147438049316
1772791551486724400,1.296724365234375,-14.174046516418457,-6.093498706817627,-9.61664867401123
1772791551506826200,1.316826171875,-12.042669296264648,-8.218887329101562,-4.563985347747803
1772791551526928000,1.336927978515625,-11.853426933288574,-11.184489250183105,-0.5006549954414368
1772791551547029800,1.35702978515625,-8.634502410888672,-13.581764221191406,1.2444510459899902
1772791551567131600,1.377131591796875,-3.3973875045776367,-13.77340316772461,1.947524070739746
1772791551587233500,1.397233642578125,-2.5044727325439453,-13.615900039672852,2.9470374584198
1772791551607335400,1.41733544921875,-6.077329158782959,-14.280046463012695,5.795860290527344
1772791551627437000,1.43743701171875,-10.151439666748047,-15.60774040222168,13.167346954345703
1772791551647538700,1.45753857421875,-12.207358360290527,-23.110977172851562,16.771942138671875
1772791551667639600,1.4776396484375,-3.085376262664795,-36.1633415222168,9.783134460449219
1772791551687740400,1.497740478515625,21.080810546875,-42.31972122192383,2.8512182235717773
1772791551707841300,1.51784130859375,43.83426284790039,-33.04981994628906,12.512782096862793
1772791551727942000,1.53794189453125,43.30486297607422,-27.40906524658203,23.373882293701172
1772791551748042800,1.558042724609375,33.7948112487793,-39.081634521484375,17.809185028076172
1772791551768143600,1.5781435546875,18.301456451416016,-51.19796371459961,16.0257511138916
1772791551788244500,1.598244384765625,12.686454772949219,-45.86802291870117,15.9011869430542
1772791551808345000,1.618344970703125,18.646404266357422,-35.48482131958008,14.48605728149414
1772791551828446000,1.638446044921875,14.15608024597168,-33.98046112060547,13.05655574798584
1772791551848546800,1.658546875,11.769584655761719,-26.123891830444336,8.290751457214355
1772791551868647400,1.6786474609375,8.182355880737305,-20.12082290649414,9.877756118774414
1772791551888748300,1.698748291015625,-0.13175131380558014,-18.96979522705078,6.918740749359131
1772791551908849200,1.71884912109375,-4.777781963348389,-22.068944931030273,-2.8140883445739746
1772791551928950000,1.738949951171875,-9.740614891052246,-26.420331954956055,-13.412283897399902
1772791551949050600,1.759050537109375,-20.18130874633789,-24.179960250854492,-21.261669158935547
1772791551969151500,1.7791513671875,-25.905303955078125,-12.388216972351074,-30.650148391723633
1772791551989252400,1.79925244140625,-26.396976470947266,-4.665194511413574,-35.32073211669922
1772791552009353200,1.819353271484375,-20.578357696533203,-8.35722541809082,-9.086050033569336
1772791552029454000,1.8394541015625,-13.83388900756836,-9.861586570739746,5.083205699920654
1772791552049554700,1.8595546875,-5.794063568115234,-6.6857805252075195,0.89531010389328
1772791552069655600,1.879655517578125,-1.6822247505187988,-4.016019821166992,2.4350039958953857
1772791552089756400,1.89975634765625,-3.317138910293579,-5.185612201690674,15.15499496459961
1772791552109857000,1.91985693359375,-1.8002021312713623,-3.8297712802886963,16.283266067504883
1772791552129958000,1.9399580078125,-2.352958917617798,-0.21858741343021393,8.649474143981934
1772791552150059000,1.96005908203125,-10.477823257446289,1.3384736776351929,8.00389289855957
1772791552170161200,1.9801611328125,-17.510948181152344,-2.3775124549865723,18.816484451293945
1772791552190263300,2.00026318359375,-26.439495086669922,-9.16390323638916,25.255529403686523
1772791552210365400,2.020365478515625,-39.971553802490234,-35.618370056152344,19.68185043334961
1772791552230467600,2.040467529296875,-13.389527320861816,-82.87696838378906,5.106561183929443
1772791552250569500,2.060569580078125,42.2831916809082,-96.7132568359375,8.299734115600586
1772791552270671600,2.080671630859375,87.17505645751953,-67.90463256835938,28.300783157348633
1772791552290773800,2.100773681640625,64.7054672241211,-63.66343688964844,50.97877883911133
1772791552310876000,2.1208759765625,22.5833740234375,-69.9773178100586,27.21982192993164
1772791552330978000,2.14097802734375,10.162219047546387,-50.07029342651367,-2.810495138168335
1772791552351080200,2.161080078125,15.139424324035645,-35.809410095214844,-9.311823844909668
1772791552371182300,2.181182373046875,7.955384254455566,-42.434104919433594,-9.406445503234863
1772791552391284500,2.201284423828125,3.1201107501983643,-45.47157287597656,-17.77205467224121
1772791552411386400,2.221386474609375,-8.700977325439453,-45.84407043457031,-28.184001922607422
1772791552431488500,2.241488525390625,-15.232848167419434,-39.797882080078125,-30.927425384521484
1772791552451590700,2.261590576171875,-15.856870651245117,-32.896507263183594,-29.67997932434082
1772791552471692800,2.28169287109375,-20.568777084350586,-24.24224281311035,-29.125425338745117
1772791552491795000,2.301794921875,-18.285884857177734,-19.303964614868164,-19.961523056030273
1772791552511897000,2.32189697265625,-11.116218566894531,-16.37609100341797,-8.53149700164795
1772791552531999200,2.341999267578125,-5.7281880378723145,-16.839614868164062,-4.8652167320251465
1772791552552101400,2.362101318359375,-5.779690742492676,-20.726877212524414,1.201332449913025
1772791552572203300,2.382203369140625,-14.736385345458984,-16.50544548034668,18.387094497680664
1772791552592305400,2.402305419921875,-26.221506118774414,-3.882471799850464,29.578170776367188
1772791552612407600,2.422407470703125,-27.474342346191406,-1.8523037433624268,21.087995529174805
1772791552632509700,2.442509765625,-10.180185317993164,-6.4659953117370605,9.161507606506348
1772791552652611600,2.462611572265625,-5.902459144592285,-8.28596019744873,2.3781113624572754
1772791552672712700,2.482712646484375,-12.548115730285645,-15.784406661987305,3.854923963546753
1772791552692814000,2.50281396484375,-13.795560836791992,-32.47669982910156,5.901261329650879
1772791552712915500,2.52291552734375,-0.6419882774353027,-50.37212371826172,5.074222564697266
1772791552733016600,2.5430166015625,27.29168701171875,-55.05767822265625,6.848074436187744
1772791552753118000,2.563117919921875,52.5070915222168,-44.37863540649414,19.841150283813477
1772791552773219300,2.58321923828125,44.73136901855469,-38.01564407348633,35.743534088134766
1772791552793320700,2.60332080078125,17.74810028076172,-46.28303909301758,38.62110137939453
1772791552813421800,2.623421875,5.3550920486450195,-48.42280197143555,27.22940444946289
1772791552833523200,2.643523193359375,3.733952283859253,-37.762325286865234,15.789796829223633
1772791552853624600,2.66362451171875,3.733952283859253,-29.199087142944336,12.18040943145752
1772791552873726000,2.683725830078125,4.206460475921631,-27.441404342651367,9.517834663391113
1772791552893827000,2.7038271484375,1.8529026508331299,-29.146387100219727,7.476288318634033
1772791552913928400,2.723928466796875,-2.519444465637207,-33.24864196777344,5.7120184898376465
1772791552934029800,2.74402978515625,-9.79810619354248,-35.95673370361328,-0.17726540565490723
1772791552954131200,2.764131103515625,-21.746753692626953,-33.04323196411133,-8.20870590209961
1772791552974232300,2.784232421875,-27.706104278564453,-23.47329330444336,-17.251039505004883
1772791552994333700,2.804333740234375,-24.307519912719727,-16.12276840209961,-25.57832145690918
1772791553014435000,2.82443505859375,-15.209491729736328,-14.48965072631836,-29.316465377807617
1772791553034536200,2.8445361328125,-6.805554389953613,-15.138825416564941,-26.03705596923828
1772791553054637600,2.864637451171875,-5.023917198181152,-14.422577857971191,-20.018415451049805
1772791553074739000,2.884739013671875,-9.712468147277832,-13.476962089538574,-10.171201705932617
1772791553094840300,2.90484033203125,-17.813377380371094,-10.52573299407959,4.963431358337402
1772791553114941400,2.92494140625,-21.382041931152344,-7.61702299118042,11.5462064743042
1772791553135042800,2.945042724609375,-14.419583320617676,-5.950368881225586,9.247145652770996
1772791553155143400,2.965143310546875,-13.002058982849121,-20.7178955078125,13.721301078796387
1772791553175243500,2.985243408203125,7.756559371948242,-33.20193099975586,9.963394165039062
1772791553195344000,3.00534375,30.972938537597656,-31.124452590942383,12.587640762329102
1772791553215444000,3.02544384765625,38.51150894165039,-25.822660446166992,22.822322845458984
1772791553235544000,3.0455439453125,37.835384368896484,-32.781524658203125,32.861175537109375
1772791553255644200,3.06564404296875,31.823333740234375,-42.56765365600586,37.63656234741211
1772791553275744300,3.085744140625,15.559830665588379,-48.58030319213867,36.484336853027344
1772791553295844400,3.10584423828125,15.94729995727539,-45.81532287597656,28.80742645263672
1772791553315944400,3.1259443359375,21.27424430847168,-46.02552795410156,23.247520446777344
1772791553336044500,3.14604443359375,19.78545570373535,-46.90406799316406,15.140023231506348
1772791553356144600,3.16614453125,15.664033889770508,-38.7750129699707,3.552494764328003
1772791553376244700,3.18624462890625,7.808660984039307,-28.626567840576172,-2.3128345012664795
1772791553396344800,3.2063447265625,0.8557847142219543,-20.831680297851562,-5.147883415222168
1772791553416445000,3.22644482421875,-3.383613348007202,-15.75985336303711,-8.49855899810791
1772791553436545000,3.246544921875,-5.91264009475708,-13.338024139404297,-12.882285118103027
1772791553456645000,3.26664501953125,-6.512707233428955,-14.408205032348633,-16.697084426879883
1772791553476745200,3.2867451171875,-1.27559232711792,-20.903545379638672,-20.38252830505371
1772791553496845300,3.30684521484375,9.854998588562012,-31.386756896972656,-28.11273765563965
1772791553516945400,3.3269453125,9.302242279052734,-46.00157165527344,-34.728450775146484
1772791553537045500,3.34704541015625,-23.419395446777344,-52.2340087890625,-38.10367965698242
1772791553557145600,3.3671455078125,-46.96635055541992,-40.795597076416016,-26.85511016845703
1772791553577245700,3.38724560546875,-23.556537628173828,-30.211774826049805,-9.23516845703125
1772791553597345800,3.407345703125,-12.000149726867676,-32.6234245300293,-3.1117265224456787
1772791553617446000,3.42744580078125,-23.849384307861328,-34.67275619506836,6.601938724517822
1772791553637546000,3.4475458984375,-39.44215393066406,-23.009170532226562,21.2778377532959
1772791553657646800,3.467646728515625,-37.57966995239258,-12.645730972290039,24.18894386291504
1772791553677748000,3.487748046875,-33.6427001953125,-14.55612564086914,24.00748634338379
1772791553697849000,3.50784912109375,-22.479169845581055,-20.057941436767578,22.13841438293457
1772791553717950200,3.5279501953125,-16.220983505249023,-23.630197525024414,36.402889251708984
1772791553738051300,3.54805126953125,-15.852678298950195,-29.146387100219727,31.880226135253906
1772791553758152400,3.56815234375,-1.5169367790222168,-32.876747131347656,-0.21020324528217316
1772791553778253600,3.588253662109375,15.318486213684082,-40.62851333618164,-2.365535020828247
1772791553798354700,3.608354736328125,33.917579650878906,-40.06018829345703,4.3699517250061035
1772791553818455800,3.628455810546875,56.547664642333984,-33.14923095703125,16.162893295288086
1772791553838557200,3.64855712890625,57.87117004394531,-36.45439147949219,26.01549530029297
1772791553858658300,3.668658203125,31.308305740356445,-48.24613571166992,28.228918075561523
1772791553878759400,3.688759521484375,18.37691307067871,-51.675262451171875,18.849422454833984
1772791553898860500,3.708860595703125,16.514429092407227,-48.13654327392578,8.91118049621582
1772791553918961700,3.728961669921875,10.114908218383789,-41.440582275390625,6.11026668548584
1772791553939062800,3.749062744140625,-5.378448009490967,-37.16584777832031,6.492345809936523
1772791553959164000,3.769163818359375,-22.61092185974121,-28.406782150268555,-2.3080434799194336
1772791553979265000,3.78926513671875,-31.865854263305664,-18.992551803588867,-16.30602264404297
1772791553999366100,3.8093662109375,-30.20698356628418,-15.926339149475098,-21.086200714111328
1772791554019467300,3.82946728515625,-27.404273986816406,-15.625706672668457,-21.913238525390625
1772791554039568400,3.849568359375,-29.275741577148438,-14.717820167541504,-26.058015823364258
1772791554059669800,3.869669677734375,-22.275554656982422,-16.599468231201172,-29.093685150146484
1772791554079771000,3.88977099609375,-9.027360916137695,-19.345884323120117,-28.71579933166504
1772791554099872000,3.9098720703125,-3.162031650543213,-24.838117599487305,-18.705692291259766
1772791554119973000,3.92997314453125,-5.582063674926758,-30.22075843811035,-4.025601863861084
1772791554140074200,3.95007421875,-5.4970245361328125,-30.41179847717285,9.47890853881836
1772791554160175000,3.970175048828125,-3.9465508460998535,-23.739791870117188,16.85997772216797
1772791554180276200,3.990276123046875,-8.602163314819336,-18.854211807250977,17.44387435913086
1772791554200377000,4.010377197265625,-14.155481338500977,-24.857881546020508,26.5502872467041
1772791554220478000,4.03047802734375,-6.295317649841309,-35.847137451171875,21.736572265625
1772791554240579000,4.0505791015625,14.841187477111816,-41.33517837524414,8.208106994628906
1772791554260680000,4.070679931640625,39.20140838623047,-32.356327056884766,10.53651237487793
1772791554280781000,4.090781005859375,46.64116668701172,-19.02608871459961,17.826553344726562
1772791554300882000,4.1108818359375,39.263092041015625,-21.849159240722656,17.204925537109375
1772791554320982800,4.130982666015625,21.987499237060547,-32.11737823486328,20.455589294433594
1772791554341084000,4.151083984375,14.118351936340332,-39.60624313354492,19.9920654296875
1772791554361184800,4.171184814453125,24.974660873413086,-42.963504791259766,11.58333683013916
1772791554381285600,4.19128564453125,38.317474365234375,-43.479732513427734,4.61848258972168
1772791554401386800,4.21138671875,33.04742431640625,-50.318824768066406,9.130965232849121
1772791554421487600,4.231487548828125,26.137664794921875,-54.631282806396484,20.59872055053711
1772791554441588500,4.25158837890625,30.192611694335938,-52.34360122680664,19.30336570739746
1772791554461689600,4.271689697265625,21.61919403076172,-48.13115310668945,14.460905075073242
1772791554481790500,4.29179052734375,5.875510215759277,-43.24078369140625,6.205487251281738
1772791554501891600,4.3118916015625,-11.70251178741455,-39.52479553222656,-4.990380764007568
1772791554521992400,4.331992431640625,-32.30961608886719,-30.445934295654297,-17.333084106445312
1772791554542093300,4.35209326171875,-45.846466064453125,-16.394655227661133,-19.919002532958984
1772791554562194400,4.3721943359375,-37.546730041503906,-11.666579246520996,-11.247969627380371
1772791554582295300,4.39229541015625,-23.769136428833008,-13.686566352844238,-10.6263427734375
1772791554602396200,4.412396240234375,-15.190927505493164,-14.307594299316406,-16.46831703186035
1772791554622497300,4.432497314453125,-9.239959716796875,-14.421978950500488,-16.41561508178711
1772791554642598100,4.45259814453125,-2.750608205795288,-15.181344985961914,-10.292173385620117
1772791554662700000,4.472699951171875,2.249953269958496,-14.330950736999512,-5.07661771774292
1772791554682802000,4.492802001953125,2.217015504837036,-12.77448844909668,-1.54867684841156
1772791554702903800,4.51290380859375,-2.211625576019287,-11.46535873413086,3.8483362197875977
1772791554723006000,4.533005859375,-7.273870468139648,-8.098514556884766,11.70730209350586
1772791554743107800,4.55310791015625,-12.879290580749512,-3.6039974689483643,19.2410831451416
1772791554763209700,4.573209716796875,-16.24972915649414,-3.174607992172241,22.60133934020996
1772791554783312000,4.593311767578125,-8.493168830871582,-5.165849685668945,16.334768295288086
1772791554803413800,4.613413818359375,3.6441216468811035,-6.61810827255249,10.0436429977417
1772791554823515600,4.633515625,6.80136251449585,-8.538084030151367,12.189990997314453
1772791554843617500,4.653617431640625,5.577272891998291,-12.649923324584961,14.8381929397583
1772791554863719700,4.6737197265625,6.848673343658447,-22.68458366394043,18.342178344726562
1772791554883821600,4.693821533203125,21.8317928314209,-37.21316146850586,19.52794075012207
1772791554903923500,4.71392333984375,48.67313003540039,-41.497474670410156,22.262380599975586
1772791554924025300,4.734025390625,47.33106231689453,-47.63468933105469,25.656173706054688
1772791554944127500,4.75412744140625,35.250064849853516,-50.25175094604492,24.059587478637695
1772791554964229400,4.7742294921875,25.532207489013672,-46.36867904663086,18.767974853515625
1772791554984331300,4.794331298828125,20.083093643188477,-40.33207321166992,13.27993392944336
1772791555004433400,4.814433349609375,15.790994644165039,-34.037353515625,8.322491645812988
1772791555024535300,4.834535400390625,6.73548698425293,-26.887449264526367,4.923906326293945
1772791555044637200,4.85463720703125,-2.145749807357788,-21.390424728393555,3.905827760696411
1772791555064739300,4.8747392578125,-9.774150848388672,-17.22528648376465,-2.299060583114624
1772791555084841200,4.89484130859375,-15.838305473327637,-12.94636344909668,-9.44597053527832
1772791555104943000,4.914943115234375,-17.695999145507812,-9.387880325317383,-12.285211563110352
1772791555125045000,4.935044921875,-16.3629150390625,-6.770820140838623,-12.166036605834961
1772791555145147100,4.955147216796875,-13.952465057373047,-5.762922286987305,-12.49062442779541
1772791555165247700,4.975247802734375,-10.61556339263916,-6.345622539520264,-12.524160385131836
1772791555185348900,4.995348876953125,-6.139611721038818,-6.970842361450195,-11.999550819396973
1772791555205449500,5.015449462890625,-2.5475914478302,-7.0810346603393555,-9.866975784301758
1772791555225550600,5.035550537109375,-1.5929932594299316,-6.6414642333984375,-5.841973304748535
1772791555245651200,5.055651123046875,-2.046936511993408,-5.758131504058838,-1.119287371635437
1772791555265752000,5.075751953125,-3.0015347003936768,-4.416064739227295,2.8961336612701416
1772791555285853000,5.09585302734375,-1.4750158786773682,-3.0212972164154053,3.9190030097961426
1772791555305953800,5.115953857421875,1.1150952577590942,-1.8702698945999146,2.7476139068603516
1772791555326054700,5.1360546875,3.365048408508301,-1.1869596242904663,2.1595239639282227
1772791555346155500,5.156155517578125,1.7534903287887573,-1.5882022380828857,2.0930492877960205
1772791555366256400,5.17625634765625,-5.416775703430176,-2.772766351699829,2.8578059673309326
1772791555386357200,5.196357177734375,-13.172137260437012,-4.789160251617432,15.92873477935791
1772791555406458000,5.2164580078125,-13.763221740722656,-9.995134353637695,37.187408447265625
1772791555426559000,5.23655908203125,-0.6563611030578613,-17.942134857177734,39.35771179199219
1772791555446659800,5.256659912109375,13.787775993347168,-19.680652618408203,25.523225784301758
1772791555466760700,5.2767607421875,18.471534729003906,-16.237152099609375,18.43919563293457
1772791555486861600,5.296861572265625,18.882959365844727,-10.888049125671387,16.435977935791016
1772791555506962400,5.31696240234375,15.337650299072266,-7.936819076538086,15.379570960998535
1772791555527063300,5.337063232421875,6.749859809875488,-7.760152816772461,17.736722946166992
1772791555547164200,5.3571640625,-1.1480331420898438,-7.32537317276001,21.001758575439453
1772791555567265000,5.37726513671875,-4.196878433227539,-5.97312593460083,20.986188888549805
1772791555587366000,5.397365966796875,-1.0869483947753906,-4.531047821044922,15.488565444946289
1772791555607466800,5.417466796875,2.9021222591400146,-4.062731742858887,9.43698787689209
1772791555627567600,5.437567626953125,3.4740426540374756,-3.8956470489501953,6.425272464752197
1772791555647668500,5.45766845703125,1.6073660850524902,-3.972302198410034,5.526369094848633
1772791555667770400,5.477770263671875,0.23655350506305695,-4.440019607543945,5.239510536193848
1772791555687872300,5.497872314453125,-0.5623385906219482,-5.056256294250488,5.688662528991699
1772791555728075800,5.53807568359375,1.3235019445419312,-5.829996109008789,6.3773627281188965
1772791555748177400,5.558177490234375,2.2074334621429443,-6.632481098175049,6.687577247619629
1772791555768279300,5.578279296875,1.7960100173950195,-7.253509044647217,7.849384307861328
1772791555788381000,5.598380859375,1.3660216331481934,-7.563723564147949,8.490175247192383
1772791555808482800,5.61848291015625,1.8768573999404907,-7.454130172729492,8.241643905639648
1772791555828584700,5.638584716796875,1.8295466899871826,-7.43017578125,7.687090873718262
1772791555848686300,5.658686279296875,1.176778793334961,-7.420593738555908,7.926039695739746
1772791555868788200,5.678788330078125,0.9120784401893616,-7.43017578125,8.609949111938477
1772791555888889900,5.698889892578125,1.7534903287887573,-7.0810346603393555,8.896208763122559
1772791555908991700,5.71899169921875,2.6092751026153564,-6.4989333152771,8.824942588806152
1772791555929093400,5.73909326171875,3.119511842727661,-5.8491597175598145,8.576412200927734
1772791555949195300,5.7591953125,2.930867910385132,-5.199386119842529,8.413519859313965
1772791555969297200,5.779297119140625,2.2307894229888916,-4.6118950843811035,8.388965606689453
1772791555989398800,5.799398681640625,1.7157615423202515,-4.291499614715576,8.393756866455078
1772791556029602300,5.839602294921875,0.9120784401893616,-3.9621214866638184,8.102107048034668
1772791556049704200,5.8597041015625,0.9923269748687744,-3.876483201980591,7.925440788269043
1772791556069805800,5.879805908203125,0.6851068735122681,-4.0291948318481445,8.250027656555176
1772791556089907700,5.89990771484375,0.5294007658958435,-4.320245742797852,8.996219635009766
1772791556110009600,5.920009521484375,0.09941235929727554,-4.540030479431152,10.085563659667969
1772791556130111200,5.940111328125,-0.11857619136571884,-4.607104301452637,11.018003463745117
1772791556150212900,5.960212890625,-0.4114234447479248,-4.501703262329102,11.682149887084961
1772791556170314200,5.980314208984375,-0.4629262387752533,-4.181906700134277,11.840850830078125
1772791556190415600,6.00041552734375,-0.2832653522491455,-3.7758729457855225,11.358161926269531
1772791556210517000,6.02051708984375,-0.01437287125736475,-3.4177489280700684,10.54549503326416
1772791556230618400,6.040618408203125,-0.05689261481165886,-3.0787887573242188,9.856795310974121
1772791556250719700,6.0607197265625,-0.44436126947402954,-2.7589924335479736,9.402852058410645
1772791556270821000,6.080821044921875,-0.9312422871589661,-2.45776104927063,9.072875022888184
1772791556290922500,6.100922607421875,-1.4648351669311523,-2.27630352973938,9.025564193725586
1772791556311023900,6.12102392578125,-1.526518702507019,-2.128382682800293,9.16390323638916
1772791556331125000,6.141125,-1.1246771812438965,-1.9277613162994385,8.8818359375
1772791556351226400,6.161226318359375,-0.21259872615337372,-1.7606767416000366,8.528502464294434
1772791556371327700,6.18132763671875,0.4204064905643463,-1.6367107629776,8.47999382019043
1772791556391429000,6.20142919921875,1.0019088983535767,-1.5552644729614258,8.465620994567871
1772791556411530500,6.221530517578125,1.0683834552764893,-1.4738181829452515,8.981846809387207
1772791556431632000,6.2416318359375,0.6425871253013611,-1.5504734516143799,9.483699798583984
1772791556451733200,6.261733154296875,0.8222479820251465,-1.8271512985229492,9.656173706054688
1772791556471834600,6.281834716796875,1.3564397096633911,-2.200247049331665,10.023880004882812
1772791556491936000,6.30193603515625,2.1978516578674316,-2.4673428535461426,10.373021125793457
1772791556512037000,6.322037109375,2.826664686203003,-2.5104615688323975,10.478422164916992
1772791556532138500,6.342138427734375,3.1428678035736084,-2.5487892627716064,10.296365737915039
1772791556552239900,6.362239990234375,3.7058053016662598,-2.629636526107788,9.794512748718262
1772791556572341200,6.38234130859375,3.733952283859253,-2.63921856880188,9.460343360900879
1772791556592442600,6.402442626953125,3.0063254833221436,-2.601489782333374,9.359733581542969
1772791556612544000,6.4225439453125,2.4344050884246826,-2.5871167182922363,9.159111976623535
1772791556632645400,6.442645263671875,1.9996256828308105,-2.529625415802002,9.0058012008667
1772791556652746500,6.46274658203125,1.6780327558517456,-2.45776104927063,8.838716506958008
1772791556672847400,6.482847412109375,1.597784161567688,-2.4385972023010254,8.738106727600098
1772791556692948500,6.502948486328125,1.9612981081008911,-2.424224376678467,8.953700065612793
1772791556713049300,6.52304931640625,2.4625518321990967,-2.0756821632385254,9.029756546020508
1772791556733150200,6.543150146484375,3.261444091796875,-1.6600666046142578,8.618931770324707
1772791556753251300,6.563251220703125,3.322528839111328,-3.2219185829162598,9.29745101928711
1772791556773352200,6.583352294921875,0.7042707204818726,-4.655013561248779,12.256465911865234
1772791556793453000,6.603453125,-0.8084740042686462,-4.645431995391846,14.460306167602539
1772791556813554200,6.62355419921875,0.3874686658382416,-4.931691646575928,13.394318580627441
1772791556833655000,6.643655029296875,1.512744665145874,-5.261668682098389,12.791855812072754
1772791556853756200,6.663756103515625,2.3679306507110596,-4.788561820983887,12.146872520446777
1772791556873857000,6.68385693359375,3.6722686290740967,-4.272934913635254,11.037766456604004
1772791556893958000,6.7039580078125,3.426732063293457,-4.344200134277344,10.349065780639648
1772791556914058800,6.724058837890625,1.3235019445419312,-4.740652084350586,10.468839645385742
1772791556934160000,6.744159912109375,-0.4162144064903259,-5.0796122550964355,10.56406021118164
1772791556954260700,6.7642607421875,-1.058801531791687,-5.0466742515563965,10.368229866027832
1772791556974361600,6.784361572265625,-0.9593891501426697,-4.8268890380859375,9.780738830566406
1772791556994462700,6.804462646484375,-0.71385258436203,-4.626267910003662,9.450761795043945
1772791557014563600,6.8245634765625,-0.6192312240600586,-4.396900653839111,9.125575065612793
1772791557034664700,6.844664794921875,0.05689261481165886,-4.0675225257873535,8.513530731201172
1772791557054765600,6.864765625,1.143841028213501,-3.7429351806640625,8.867463111877441
1772791557074866400,6.884866455078125,2.0421454906463623,-3.3033649921417236,9.441180229187012
1772791557094967600,6.904967529296875,2.15533185005188,-3.1362802982330322,9.230976104736328
1772791557115068400,6.925068359375,2.821873664855957,-3.1554441452026367,9.054309844970703
1772791557135169300,6.945169189453125,4.707714080810547,-3.0835797786712646,9.317214012145996
1772791557155270400,6.9652705078125,6.531871318817139,-3.1889808177948,10.320919036865234
1772791557175371800,6.985371826171875,7.595463752746582,-3.532133102416992,12.09836483001709
1772791557195473200,7.00547314453125,9.783733367919922,-4.12920618057251,14.139910697937012
1772791557215574500,7.025574462890625,11.669573783874512,-4.721487998962402,14.412396430969238
1772791557235676000,7.045676025390625,10.109518051147461,-5.600029945373535,14.16386604309082
1772791557255777300,7.06577734375,8.715350151062012,-5.906052112579346,11.706703186035156
1772791557275878700,7.085878662109375,7.6757121086120605,-5.146685600280762,8.063779830932617
1772791557295979800,7.105979736328125,4.67896842956543,-4.372946262359619,5.33892297744751
1772791557316081200,7.1260810546875,2.485907793045044,-4.286708831787109,2.7955234050750732
1772791557336182500,7.1461826171875,1.7486993074417114,-4.434629440307617,-0.25871169567108154
1772791557356284000,7.166283935546875,1.0492196083068848,-4.826290607452393,-2.309840202331543
1772791557376385300,7.18638525390625,0.6521690487861633,-5.208968162536621,-3.327319622039795
1772791557396486700,7.206486572265625,0.37848562002182007,-5.815622806549072,-3.4417037963867188
1772791557416588000,7.226588134765625,-0.2078077644109726,-5.897069454193115,-3.2746191024780273
1772791557436689200,7.246689208984375,-1.0396376848220825,-5.524572372436523,-3.1931729316711426
1772791557456790500,7.26679052734375,-1.5313096046447754,-5.4143805503845215,-2.67215633392334
1772791557476892000,7.286891845703125,-1.025264859199524,-5.113747596740723,-2.380506753921509
1772791557496993300,7.3069931640625,-1.3187109231948853,-5.0897932052612305,-1.3762024641036987
1772791557517094700,7.3270947265625,-2.788336992263794,-4.712505340576172,4.82389497756958
1772791557537196000,7.347196044921875,-5.510798454284668,-3.00752329826355,10.06340503692627
1772791557557297400,7.36729736328125,-10.161620140075684,-3.1985626220703125,16.44495964050293
1772791557577398800,7.387398681640625,-15.025639533996582,-6.8612494468688965,23.74398422241211
1772791557597500200,7.407500244140625,-17.00071144104004,-16.738407135009766,28.562488555908203
1772791557617601300,7.427601318359375,-8.087135314941406,-31.577198028564453,23.466707229614258
1772791557637702700,7.44770263671875,-0.9689710736274719,-44.30078125,13.241606712341309
1772791557657803800,7.4678037109375,14.136916160583496,-47.91136932373047,6.5869669914245605
1772791557677905000,7.48790478515625,33.76127624511719,-38.139610290527344,10.091551780700684
1772791557698006000,7.508006103515625,38.71931838989258,-27.470149993896484,16.492271423339844
1772791557718107100,7.528107177734375,30.410001754760742,-24.456039428710938,16.334169387817383
1772791557738208300,7.548208251953125,17.875659942626953,-25.88434410095215,14.08301830291748
1772791557758309400,7.568309326171875,6.172549247741699,-27.48931312561035,16.922258377075195
1772791557778410500,7.588410400390625,3.7483251094818115,-27.455778121948242,18.69072151184082
1772791557798511600,7.60851171875,7.089418888092041,-26.156829833984375,14.054272651672363
1772791557818612700,7.62861279296875,6.886402130126953,-24.647079467773438,7.0648651123046875
1772791557838713900,7.6487138671875,1.5834113359451294,-21.786277770996094,1.5343040227890015
1772791557858814700,7.668814697265625,-4.698132514953613,-16.752779006958008,-1.6636598110198975
1772791557878915800,7.688915771484375,-10.228094100952148,-10.667664527893066,-3.227308511734009
1772791557899017000,7.709016845703125,-12.0049409866333,-5.017928600311279,-4.18789529800415
1772791557919118000,7.7291181640625,-10.634726524353027,-1.817569375038147,-4.508290767669678
1772791557939219200,7.74921923828125,-7.864954948425293,-0.9246547222137451,-4.890968322753906
1772791557959320300,7.7693203125,-4.85862922668457,-1.201931357383728,-3.4470937252044678
1772791557979421400,7.78942138671875,-2.892540454864502,-0.6240221858024597,-1.75947904586792
1772791557999522600,7.8095224609375,-3.3129467964172363,-0.5521578192710876,-0.12456488609313965
1772791558019623700,7.829623779296875,-5.014934539794922,-0.017367219552397728,0.42998838424682617
1772791558039724800,7.849724853515625,-7.505633354187012,0.4790956974029541,-0.5024515986442566
1772791558059825700,7.86982568359375,-7.79848051071167,0.5797058343887329,-1.2145075798034668
1772791558079926800,7.8899267578125,-4.438222885131836,0.5270052552223206,0.1814575046300888
1772791558100028000,7.91002783203125,0.09941235929727554,1.1719878911972046,1.6397050619125366
1772791558120129000,7.93012890625,1.9948347806930542,3.283003330230713,3.3410937786102295
1772791558140230100,7.950230224609375,-1.2857731580734253,4.9640302658081055,9.474716186523438
1772791558160331300,7.970331298828125,-4.8209004402160645,5.092787265777588,17.610361099243164
1772791558180432100,7.99043212890625,-8.659055709838867,-1.837332010269165,28.596025466918945
1772791558200533200,8.010533203125,-10.40296459197998,-20.568777084350586,35.393795013427734
1772791558220634000,8.030634033203125,17.242055892944336,-48.54676818847656,32.98933410644531
1772791558240735200,8.0507353515625,81.82475280761719,-42.11790084838867,37.48265075683594
1772791558260836400,8.07083642578125,92.34090423583984,-43.082679748535156,48.01377487182617
1772791558280937200,8.090937255859375,36.58314895629883,-55.81584930419922,50.96799850463867
1772791558301038300,8.111038330078125,15.55504035949707,-47.57240676879883,21.688663482666016
1772791558321139200,8.13113916015625,11.258749008178711,-32.11737823486328,-6.458209991455078
1772791558341240300,8.151240234375,-0.2359546422958374,-21.99169158935547,-12.629561424255371
1772791558361341200,8.171341064453125,-16.244937896728516,-14.330950736999512,-19.341093063354492
1772791558381442300,8.1914423828125,-26.643110275268555,-8.27518081665039,-22.917543411254883
1772791558401543400,8.21154345703125,-18.267919540405273,-10.519743919372559,-24.85848045349121
1772791558421644300,8.231644287109376,-4.4190592765808105,-14.101583480834961,-29.227832794189453
1772791558441745400,8.251745361328124,3.6770596504211426,-14.88011360168457,-27.401878356933594
1772791558461846300,8.27184619140625,6.016843318939209,-14.39802360534668,-19.590822219848633
1772791558481947400,8.291947509765626,2.9021222591400146,-13.041584014892578,-12.73556137084961
1772791558502048300,8.31204833984375,-1.2809821367263794,-11.70430850982666,-8.600366592407227
1772791558522149400,8.3321494140625,-3.76269793510437,-10.8203763961792,-6.616910457611084
1772791558542250500,8.35225048828125,-3.668076515197754,-10.958715438842773,-4.565782070159912
1772791558562351400,8.372351318359375,-2.481715679168701,-11.221619606018066,-0.3593217730522156
1772791558582452500,8.392452392578125,-3.8046188354492188,-10.1903657913208,7.897294044494629
1772791558602553600,8.4125537109375,-8.351836204528809,-6.259984493255615,14.75195598602295
1772791558622654500,8.432654541015625,-17.66246223449707,-3.5848336219787598,14.7423734664917
1772791558642755600,8.452755615234375,-26.55807113647461,-4.4304375648498535,13.002657890319824
1772791558662856700,8.472856689453126,-28.53853416442871,-9.846614837646484,14.685481071472168
1772791558682958300,8.492958251953125,-29.856645584106445,-22.154582977294922,14.04469108581543
1772791558703059700,8.513059814453126,-37.92521667480469,-36.673580169677734,13.466182708740234
1772791558723161000,8.5331611328125,-25.499269485473633,-59.96122360229492,14.164464950561523
1772791558743262700,8.5532626953125,10.1903657913208,-68.21424865722656,1.0995246171951294
1772791558763364000,8.573364013671876,31.275367736816406,-46.18722152709961,10.320919036865234
1772791558783465500,8.593465576171875,26.123292922973633,-27.159934997558594,20.063329696655273
1772791558803566800,8.61356689453125,22.167160034179688,-23.82602882385254,22.30070686340332
1772791558823668200,8.633668212890624,16.911479949951172,-27.259946823120117,26.521541595458984
1772791558843769900,8.653769775390625,13.059550285339355,-26.935359954833984,26.086761474609375
1772791558863871200,8.673871337890626,13.65961742401123,-24.017066955566406,17.405546188354492
1772791558883972600,8.69397265625,10.852116584777832,-22.188119888305664,7.9883222579956055
1772791558904074000,8.714073974609375,3.7105963230133057,-17.507354736328125,3.9585282802581787
1772791558924175400,8.73417529296875,-0.39705055952072144,-11.814499855041504,2.117603063583374
1772791558944277000,8.754277099609375,-0.13235019147396088,-8.189541816711426,-0.35333308577537537
1772791558964378400,8.77437841796875,1.7822359800338745,-5.863532543182373,-3.1213085651397705
1772791558984479700,8.794479736328125,3.1051390171051025,-4.420855522155762,-4.0010480880737305
1772791559004581000,8.8145810546875,3.0392634868621826,-4.396900653839111,-3.3033649921417236
1772791559024682800,8.834682861328124,0.9456151723861694,-5.213758945465088,-2.8296589851379395
1772791559044784000,8.8547841796875,-4.504098415374756,-4.913126468658447,-2.9015233516693115
1772791559064885500,8.874885498046876,-8.370400428771973,-3.0171053409576416,-3.2794101238250732
1772791559084987000,8.89498681640625,-10.175992965698242,-1.3402702808380127,-2.1750946044921875
1772791559105088300,8.915088134765625,-7.926039695739746,0.8707564473152161,-0.033536698669195175
1772791559125190000,8.93518994140625,-4.494516849517822,2.509263753890991,-0.4012426435947418
1772791559145291300,8.955291259765625,-7.079836845397949,3.3303141593933105,-0.7695474624633789
1772791559165393200,8.97539306640625,-7.325972080230713,4.55799674987793,-1.152225136756897
1772791559185495300,8.995495361328125,-6.994797229766846,3.7650933265686035,5.268256187438965
1772791559205597200,9.01559716796875,-10.398173332214355,1.300744891166687,20.278324127197266
1772791559225699300,9.03569921875,-6.664221286773682,-4.597522258758545,26.61256980895996
1772791559245801200,9.05580126953125,1.1630048751831055,-12.363663673400879,29.2176513671875
1772791559265903400,9.0759033203125,3.289590835571289,-17.32110595703125,33.71636199951172
1772791559286005200,9.096005126953125,13.205674171447754,-16.752779006958008,29.733877182006836
1772791559306107400,9.116107421875,22.92832374572754,-11.776172637939453,19.427331924438477
1772791559326209300,9.136209228515625,22.256990432739258,-7.597259998321533,11.210240364074707
1772791559346311400,9.1563115234375,12.969719886779785,-7.974547863006592,8.834525108337402
1772791559366413300,9.176413330078125,6.262978553771973,-8.963281631469727,6.7402777671813965
1772791559386515500,9.196515380859376,3.563873291015625,-8.542875289916992,3.580641508102417
1772791559406617300,9.216617431640625,1.2953550815582275,-7.654152870178223,1.3001459836959839
1772791559426719500,9.236719482421876,-1.1342591047286987,-5.977916717529297,-0.08144626766443253
1772791559446821400,9.2568212890625,-4.277126789093018,-3.6806528568267822,-0.530598521232605
1772791559466923500,9.276923583984376,-6.522289276123047,-1.3163154125213623,-0.10540105402469635
1772791559487025400,9.297025390625,-5.780289649963379,0.7180446982383728,1.9265636205673218
1772791559507127600,9.31712744140625,-2.3397836685180664,1.2672080993652344,5.296402931213379
1772791559527229400,9.3372294921875,2.1649136543273926,0.13534453511238098,7.806265830993652
1772791559547331600,9.35733154296875,6.659430503845215,-1.4169255495071411,8.351237297058105
1772791559567433500,9.37743359375,8.753677368164062,-2.458359956741333,6.779204368591309
1772791559587535600,9.39753564453125,8.928547859191895,-2.5110604763031006,5.000561237335205
1772791559607637500,9.417637451171874,8.985440254211426,-2.2912752628326416,5.474267482757568
1772791559627739600,9.43773974609375,8.176965713500977,-1.9996256828308105,6.917542934417725
1772791559647841300,9.45784130859375,5.91802978515625,-1.6127558946609497,7.711644172668457
1772791559667941600,9.477941650390624,4.575364112854004,-1.0210727453231812,6.434854030609131
1772791559688042000,9.4980419921875,4.414866924285889,-0.6342029571533203,3.8968446254730225
1772791559708142000,9.51814208984375,4.1220197677612305,-0.2994348108768463,1.888834834098816
1772791559728242400,9.538242431640626,3.086574077606201,-0.2329602837562561,1.191151738166809
1772791559748342800,9.5583427734375,2.1319758892059326,-0.7294232249259949,1.669049620628357
1772791559768443100,9.578443115234375,1.9097952842712402,-1.6031739711761475,2.9164950847625732
1772791559788543500,9.59854345703125,2.4391961097717285,-2.448777914047241,4.383725643157959
1772791559808643800,9.618643798828124,3.2045514583587646,-3.475240468978882,5.693453788757324
1772791559828744000,9.638743896484375,3.790844678878784,-4.6837592124938965,7.424186706542969
1772791559848844300,9.65884423828125,4.608301639556885,-6.125837326049805,9.584908485412598
1772791559868944600,9.678944580078126,5.37904691696167,-7.467904567718506,11.420443534851074
1772791559889045000,9.699044921875,5.544334888458252,-9.01538372039795,12.577460289001465
1772791559909145300,9.719145263671875,7.841598987579346,-10.233484268188477,12.763708114624023
1772791559929245700,9.73924560546875,12.407381057739258,-10.811393737792969,12.018115997314453
1772791559949346000,9.759345947265626,15.522102355957031,-11.336602210998535,11.056930541992188
1772791559969446100,9.779446044921874,15.280757904052734,-11.647415161132812,10.64670467376709
1772791559989546500,9.79954638671875,12.818804740905762,-11.04076099395752,10.106523513793945
1772791560009646800,9.819646728515625,9.363327026367188,-10.467642784118652,8.987835884094238
1772791560029747200,9.839747314453126,6.31028938293457,-10.07119083404541,7.128345489501953
1772791560049847600,9.85984765625,4.301680564880371,-9.613055229187012,5.220945358276367
1772791560069948000,9.879947998046875,3.0440542697906494,-8.996818542480469,3.9064266681671143
1772791560090048000,9.900048095703125,2.5338175296783447,-7.927237510681152,3.108133316040039
1772791560110148400,9.9201484375,2.6140658855438232,-7.14391565322876,2.9889583587646484
1772791560130248700,9.940248779296875,2.727851152420044,-7.062469482421875,3.2806079387664795
1772791560150349300,9.960349365234375,3.063218116760254,-7.244525909423828,3.624957799911499
1772791560170451200,9.980451171875,3.7818617820739746,-7.401429653167725,3.739341974258423
1772791560190552800,10.000552734375,4.584946155548096,-7.602051258087158,3.4668562412261963
1772791560210654500,10.020654541015626,5.265860557556152,-7.673915386199951,2.7973201274871826
1772791560230756000,10.040756103515625,5.568289756774902,-7.654751777648926,2.2523486614227295
1772791560250858000,10.06085791015625,5.714414119720459,-7.478085041046143,1.9181793928146362
1772791560270959600,10.080959716796874,6.064752578735352,-7.148706912994385,1.4157278537750244
1772791560291061200,10.101061279296875,6.4707865715026855,-6.904966831207275,1.3109256029129028
1772791560311163000,10.121162841796876,5.459295749664307,-7.693079471588135,2.448777914047241
1772791560331264500,10.141264404296875,3.0775909423828125,-9.393270492553711,4.599917888641357
1772791560351366400,10.161366455078126,2.089456081390381,-10.143054962158203,6.067148208618164
1772791560371468000,10.181468017578124,3.9567317962646484,-9.804095268249512,6.698357105255127
1772791560391569700,10.201569580078125,5.5305609703063965,-9.703484535217285,7.2241644859313965
1772791560411671300,10.22167138671875,5.336527347564697,-9.717857360839844,7.673316478729248
1772791560431773200,10.241773193359375,4.575364112854004,-9.784931182861328,7.639780044555664
1772791560451874800,10.261874755859376,5.539544105529785,-8.968072891235352,6.382752418518066
1772791560471976400,10.2819765625,6.324662208557129,-7.602051258087158,4.891567230224609
1772791560492078000,10.302078125,5.218550205230713,-6.871430397033691,3.691432476043701
1772791560512179700,10.3221796875,2.12239408493042,-6.952876567840576,1.7600778341293335
1772791560532281600,10.342281494140625,1.806190848350525,-7.731407165527344,-0.35752516984939575
1772791560552383200,10.36238330078125,6.243814945220947,-8.944117546081543,-0.013175131753087044
1772791560572484900,10.38248486328125,10.823969841003418,-9.565145492553711,2.79312801361084
1772791560592586500,10.40258642578125,13.24879264831543,-8.653067588806152,5.077815532684326
1772791560612688100,10.422688232421875,11.901935577392578,-7.344537258148193,5.298199653625488
1772791560632790000,10.4427900390625,8.266796112060547,-6.689972877502441,4.404087066650391
1772791560652891400,10.462891357421874,5.445521831512451,-6.331848621368408,3.883070707321167
1772791560672992500,10.482992431640625,4.599318981170654,-5.8210129737854,4.3418049812316895
1772791560693093600,10.50309375,3.3470823764801025,-5.625182628631592,5.995882987976074
1772791560713194800,10.52319482421875,1.2294793128967285,-5.209567070007324,6.999588489532471
1772791560733295900,10.5432958984375,0.15151402354240417,-4.411872386932373,6.082119941711426
1772791560753397000,10.56339697265625,-0.7557734847068787,-6.155181884765625,5.01613187789917
1772791560773497900,10.583497802734374,-2.149941921234131,-13.28592300415039,5.962944984436035
1772791560793599000,10.603598876953125,4.7604146003723145,-25.21181297302246,7.903881549835205
1772791560813700000,10.6237001953125,30.198001861572266,-32.084442138671875,7.535576820373535
1772791560833801200,10.64380126953125,51.1644287109375,-34.0571174621582,8.047011375427246
1772791560853902300,10.66390234375,35.70880126953125,-40.385372161865234,9.084253311157227
1772791560874003500,10.68400341796875,8.309914588928223,-45.806339263916016,12.382827758789062
1772791560894104600,10.7041044921875,3.1817944049835205,-43.87678146362305,14.868735313415527
1772791560914205700,10.724205810546875,4.868810176849365,-38.97144317626953,15.85866641998291
1772791560934306800,10.744306884765624,2.9027211666107178,-33.5414924621582,15.23224925994873
1772791560954408000,10.764407958984375,-3.8040199279785156,-27.303665161132812,11.699517250061035
1772791560974508800,10.7845087890625,-9.93943977355957,-20.26874351501465,2.7404274940490723
1772791560994610000,10.80460986328125,-14.816633224487305,-12.502601623535156,-8.148818969726562
1772791561014711000,10.8247109375,-22.84687614440918,-4.020211696624756,-15.085526466369629
1772791561034812200,10.844812255859376,-23.423587799072266,1.0755698680877686,-16.098814010620117
1772791561054913300,10.864913330078124,-16.357524871826172,0.4880787432193756,-13.532058715820312
1772791561075014400,10.885014404296875,-10.340682029724121,-2.1577272415161133,-9.865179061889648
1772791561095115500,10.905115478515626,-6.313882350921631,-4.0010480880737305,-8.130253791809082
1772791561115216600,10.925216552734375,-5.122730731964111,-5.0472731590271,-6.385148048400879
1772791561135317800,10.94531787109375,-6.862447261810303,-6.451622486114502,-3.1776022911071777
1772791561155419000,10.9654189453125,-9.287270545959473,-8.17576789855957,-1.146236538887024
1772791561175520500,10.9855205078125,-8.95130443572998,-9.84781265258789,0.41322004795074463
1772791561195622000,11.005621826171875,-5.632967948913574,-10.066998481750488,1.7804393768310547
1772791561215723300,11.02572314453125,-3.3458845615386963,-9.914286613464355,2.8560092449188232
1772791561235825000,11.045824951171875,-2.5044727325439453,-9.761574745178223,4.208855628967285
1772791561255926300,11.06592626953125,-2.5326197147369385,-8.715949058532715,7.440356254577637
1772791561276027600,11.086027587890625,-7.003780364990234,-7.803271293640137,9.677733421325684
1772791561296129300,11.10612939453125,-14.362690925598145,-12.4888277053833,8.730920791625977
1772791561316230700,11.126230712890624,-17.964292526245117,-35.77647018432617,14.601639747619629
1772791561336332000,11.14633203125,18.911705017089844,-67.52793884277344,25.90230941772461
1772791561356433700,11.16643359375,81.489990234375,-60.09177780151367,23.770334243774414
1772791561376535000,11.18653515625,85.89946746826172,-44.05344772338867,18.047534942626953
1772791561396636400,11.206636474609375,40.49197006225586,-40.73391342163086,15.681401252746582
1772791561416737800,11.22673779296875,16.580904006958008,-31.989219665527344,13.535052299499512
1772791561436839400,11.24683935546875,13.03619384765625,-26.749710083007812,16.933637619018555
1772791561456940800,11.26694091796875,14.090205192565918,-22.46060562133789,18.190664291381836
1772791561477042200,11.287042236328125,9.893326759338379,-16.289852142333984,13.405696868896484
1772791561497143800,11.307143798828125,2.354156494140625,-11.714488983154297,8.701576232910156
1772791561517245200,11.3272451171875,-4.343002796173096,-9.059101104736328,6.110865592956543
1772791561537346600,11.3473466796875,-9.674738883972168,-5.668301105499268,3.227907419204712
1772791561557448200,11.3674482421875,-12.444511413574219,-3.0889694690704346,0.38866639137268066
1772791561577549600,11.387549560546875,-10.771268844604492,-1.551072359085083,-2.0062131881713867
1772791561597651000,11.40765087890625,-7.302017688751221,-0.8779428601264954,-3.1536474227905273
1772791561617752300,11.42775244140625,-5.052064418792725,-0.7396039962768555,-3.091365098953247
1772791561637854000,11.44785400390625,-4.725680351257324,-0.6437848806381226,-3.091365098953247
1772791561657955300,11.467955322265626,-2.1595239639282227,-0.45753639936447144,-2.694913387298584
1772791561678056700,11.488056640625,-0.7887113094329834,-0.40004491806030273,-1.633716344833374
1772791561698158000,11.508157958984375,-0.24553655087947845,-0.5006549954414368,-0.8875247836112976
1772791561718259500,11.528259521484374,-0.13654227554798126,-0.5198188424110413,-0.17067784070968628
1772791561738360800,11.54836083984375,-0.169480100274086,0.13474567234516144,-0.03233896195888519
1772791561758462500,11.56846240234375,0.0287457425147295,1.2953550815582275,-0.5150278806686401
1772791561778563800,11.588563720703124,0.4731070101261139,1.9301568269729614,-1.2462477684020996
1772791561798665200,11.608665283203125,1.045027494430542,2.7086873054504395,-1.561851978302002
1772791561818766600,11.6287666015625,0.0287457425147295,4.447206020355225,-1.0647902488708496
1772791561838868000,11.648867919921875,-3.426133155822754,6.214470386505127,-1.3845865726470947
1772791561858969300,11.66896923828125,-2.2589361667633057,8.397350311279297,0.2167908102273941
1772791561879070700,11.68907080078125,7.596062660217285,-9.03514575958252,16.345548629760742
1772791561899172000,11.709172119140625,54.879215240478516,-26.219711303710938,22.043792724609375
1772791561919273500,11.7292734375,75.46775817871094,-26.47243309020996,13.161956787109375
1772791561939374800,11.749374755859375,62.52677917480469,-32.64797592163086,24.271587371826172
1772791561959476200,11.769476318359375,46.721412658691406,-37.98270797729492,27.416851043701172
1772791561979577900,11.789577880859374,26.9132022857666,-34.13796615600586,21.077816009521484
1772791561999679200,11.80967919921875,10.94733715057373,-28.936782836914062,17.4259090423584
1772791562019780600,11.829780517578126,8.49855899810791,-21.66291046142578,14.318373680114746
1772791562039882000,11.849882080078125,5.870718955993652,-15.879627227783203,11.039563179016113
1772791562059983400,11.8699833984375,-0.169480100274086,-12.450499534606934,6.273159503936768
1772791562080084700,11.890084716796874,-3.85612154006958,-8.858479499816895,0.5653329491615295
1772791562100186000,11.91018603515625,-5.945577621459961,-5.610809803009033,-2.2403712272644043
1772791562120287500,11.93028759765625,-7.500243186950684,-3.0320770740509033,-3.3638508319854736
1772791562140388900,11.950388916015624,-7.935022830963135,-2.0002245903015137,-3.311150312423706
1772791562160489700,11.97048974609375,-8.336864471435547,-2.2918741703033447,-2.7757606506347656
1772791562180590600,11.990590576171876,-8.714751243591309,-2.4877045154571533,-2.694913387298584
1772791562200691500,12.01069140625,-8.190140724182129,-2.864992380142212,-2.403263807296753
1772791562220792300,12.030792236328125,-7.660740375518799,-4.239996910095215,-1.432496190071106
1772791562240893200,12.05089306640625,-6.470187664031982,-5.777894020080566,-0.5341917276382446
1772791562260994000,12.070994140625,-4.357375621795654,-6.432458877563477,-0.022158175706863403
1772791562281095000,12.091094970703125,-2.783545970916748,-6.566006660461426,0.7761350274085999
1772791562301195800,12.11119580078125,-2.4900999069213867,-6.542051792144775,1.7367219924926758
1772791562321296600,12.131296630859374,-3.0620205402374268,-6.1360182762146,2.453568935394287
1772791562341397500,12.1513974609375,-3.723771333694458,-5.706628799438477,2.2146198749542236
1772791562361498000,12.171498046875,-5.014335632324219,-5.782685279846191,2.320020914077759
1772791562381599000,12.191598876953124,-6.101284027099609,-6.384549140930176,4.237002849578857
1772791562401699800,12.211699951171875,-5.983306407928467,-7.478683948516846,8.625519752502441
1772791562421800700,12.23180078125,-7.419994831085205,-10.907811164855957,14.423774719238281
1772791562441901600,12.251901611328124,-14.211775779724121,-15.822135925292969,21.838380813598633
1772791562462002400,12.27200244140625,-24.974061965942383,-32.161094665527344,36.98738479614258
1772791562482103300,12.292103271484375,-21.259273529052734,-66.6727523803711,52.695735931396484
1772791562502204200,12.3122041015625,6.00786018371582,-88.83332824707031,35.70161437988281
1772791562522304800,12.3323046875,35.95014572143555,-66.89253997802734,12.712804794311523
1772791562542405600,12.352405517578125,48.3431510925293,-42.6778450012207,15.332260131835938
1772791562562506500,12.372506591796874,45.653629302978516,-33.106712341308594,19.778268814086914
1772791562582607400,12.392607421875,27.522850036621094,-31.349029541015625,14.447131156921387
1772791562602708200,12.412708251953125,12.124115943908691,-25.025564193725586,9.289067268371582
1772791562622809000,12.43280908203125,4.878392219543457,-19.929183959960938,5.880899906158447
1772791562642910000,12.452909912109375,3.5734550952911377,-16.533592224121094,2.2242019176483154
1772791562663010300,12.47301025390625,3.1009469032287598,-13.128419876098633,-0.4389714300632477
1772791562683110400,12.4931103515625,3.0728001594543457,-10.30534839630127,-1.801399827003479
1772791562703210800,12.513210693359374,5.0245161056518555,-8.333271026611328,-1.6241344213485718
1772791562723311000,12.53331103515625,9.01358699798584,-6.813938617706299,-1.146236538887024
1772791562743411500,12.553411376953125,11.36295223236084,-5.462289810180664,-0.7018752098083496
1772791562763511600,12.573511474609376,11.296478271484375,-4.469364166259766,0.043717484921216965
1772791562783612000,12.59361181640625,10.67784595489502,-3.5285398960113525,0.6611520648002625
1772791562803712300,12.613712158203125,9.67114543914795,-2.2912752628326416,0.6994797587394714
1772791562823812600,12.6338125,8.01646900177002,-1.0162817239761353,0.7330164313316345
1772791562843913000,12.653912841796876,5.265860557556152,0.05809035524725914,1.9133884906768799
1772791562864013000,12.674012939453124,2.448777914047241,1.1947449445724487,3.9357712268829346
1772791562884113400,12.694113525390625,3.2853987216949463,2.069094657897949,4.131601810455322
1772791562904213800,12.7142138671875,4.03218936920166,1.4576486349105835,3.6824493408203125
1772791562924314000,12.734314208984374,4.627465724945068,0.6216266751289368,3.557884454727173
1772791562944414200,12.754414306640625,4.991578578948975,-1.0162817239761353,3.7585058212280273
1772791562964514600,12.7745146484375,4.750833034515381,-3.151252031326294,3.777669668197632
1772791562984615000,12.794614990234376,1.8157727718353271,-7.392446994781494,5.780888557434082
1772791563004715300,12.81471533203125,3.3422913551330566,-20.30228042602539,5.207770347595215
1772791563024815600,12.834815673828125,27.078489303588867,-29.677583694458008,2.239173650741577
1772791563044915700,12.854915771484375,46.3057975769043,-36.14896774291992,2.6212522983551025
1772791563065016000,12.87501611328125,28.67148208618164,-48.6240234375,12.024104118347168
1772791563085116400,12.895116455078124,15.706554412841797,-54.46958923339844,19.983680725097656
1772791563105216800,12.915216796875,22.976232528686523,-51.465660095214844,19.811805725097656
1772791563125316900,12.93531689453125,21.487442016601562,-50.49129867553711,26.007112503051758
1772791563145417200,12.955417236328126,11.098252296447754,-45.815921783447266,30.347719192504883
1772791563165518000,12.97551806640625,0.024553654715418816,-34.39607620239258,22.74686622619629
1772791563185619000,12.995618896484375,-10.355653762817383,-22.72770118713379,15.551446914672852
1772791563205719800,13.0157197265625,-13.8955717086792,-14.622599601745605,12.630160331726074
1772791563225820700,13.035820556640624,-11.882172584533691,-9.741812705993652,10.823370933532715
1772791563245921300,13.05592138671875,-12.345098495483398,-6.192910671234131,6.611520767211914
1772791563266022100,13.076022216796876,-16.202417373657227,-4.2489800453186035,2.261331796646118
1772791563286123000,13.096123046875,-16.660552978515625,-3.838155508041382,1.1570161581039429
1772791563306223900,13.116223876953125,-14.888498306274414,-3.8046188354492188,1.2336714267730713
1772791563326324700,13.13632470703125,-13.00684928894043,-4.277725696563721,1.5678406953811646
1772791563346425300,13.15642529296875,-10.251450538635254,-4.735861301422119,2.485907793045044
1772791563366526200,13.176526123046875,-8.233260154724121,-4.97960090637207,3.4129581451416016
1772791563386627000,13.196626953125,-8.412920951843262,-5.3047871589660645,3.839353322982788
1772791563406728000,13.21672802734375,-8.72014045715332,-5.95456075668335,4.245985507965088
1772791563426828800,13.236828857421875,-7.287644386291504,-6.699554443359375,4.584946155548096
1772791563446929400,13.256929443359375,-4.6885504722595215,-7.148706912994385,3.8920538425445557
1772791563467030300,13.2770302734375,-2.145749807357788,-7.287045955657959,3.1368792057037354
1772791563487131100,13.297131103515625,-0.7605644464492798,-7.444548606872559,3.6818504333496094
1772791563507232000,13.31723193359375,-0.7132537364959717,-7.330164432525635,3.1368792057037354
1772791563527332900,13.337332763671874,-0.8174570798873901,-6.785192966461182,2.1804842948913574
1772791563547433500,13.35743359375,-0.8647677302360535,-7.602051258087158,3.6483137607574463
1772791563567534300,13.377534423828125,8.748886108398438,-18.16191864013672,11.989969253540039
1772791563587635200,13.39763525390625,37.62757873535156,-26.715574264526367,19.59022331237793
1772791563607736000,13.417736083984375,58.79282760620117,-27.16472625732422,3.5668675899505615
1772791563627837000,13.4378369140625,68.48194122314453,-32.485084533691406,-1.7924168109893799
1772791563647937800,13.457937744140626,64.43118286132812,-29.457199096679688,4.221432209014893
1772791563668038700,13.47803857421875,45.09069061279297,-20.965229034423828,4.8813862800598145
1772791563688139800,13.498139892578125,22.876220703125,-17.154022216796875,7.577497482299805
1772791563708241000,13.518240966796874,21.047273635864258,-15.262791633605957,9.015982627868652
1772791563728342000,13.538342041015625,23.254108428955078,-14.699254989624023,9.288468360900879
1772791563748443100,13.558443115234375,14.562712669372559,-13.815323829650879,6.181532382965088
1772791563768544000,13.5785439453125,2.5433993339538574,-10.629936218261719,2.864393472671509
1772791563788645000,13.59864501953125,-2.1361680030822754,-7.487667083740234,2.5535800457000732
1772791563808746200,13.618746337890625,-2.4433882236480713,-4.813115119934082,1.721750259399414
1772791563828847400,13.638847412109374,-2.0984392166137695,-3.4566755294799805,-0.10420331358909607
1772791563848948500,13.658948486328125,-2.688924551010132,-2.7308454513549805,-0.7066661715507507
1772791563869049300,13.67904931640625,-3.1758055686950684,-2.023580551147461,0.12037279456853867
1772791563889150500,13.699150390625,-4.541827201843262,-1.479207992553711,2.0277726650238037
1772791563909251600,13.71925146484375,-5.850956439971924,-1.4648351669311523,2.2858853340148926
1772791563929352700,13.739352783203126,-4.881985187530518,-1.7085751295089722,2.242766857147217
1772791563949453800,13.759453857421875,-3.360257625579834,-1.8996144533157349,1.636111855506897
1772791563969554700,13.7795546875,-1.9894449710845947,-1.6798293590545654,0.4168132543563843
1772791563989655800,13.79965576171875,-1.7481005191802979,-1.2169030904769897,0.0634801834821701
1772791564009757000,13.8197568359375,-1.8475128412246704,-0.6054571866989136,1.1582138538360596
1772791564029858000,13.839858154296875,-2.655986785888672,-0.06108470261096954,2.4439868927001953
1772791564070060000,13.88006005859375,-3.9507429599761963,-0.5958752632141113,1.0911405086517334
1772791564090161200,13.9001611328125,-2.008009910583496,-1.0929371118545532,1.5217278003692627
1772791564110262300,13.92026220703125,0.09522027522325516,-1.0881460905075073,2.238574743270874
1772791564130363400,13.94036328125,0.7617622017860413,-0.6629486680030823,2.8506195545196533
1772791564150464500,13.960464599609375,0.06647452712059021,-0.18505071103572845,2.864992380142212
1772791564170566000,13.98056591796875,-4.154358863830566,1.1091065406799316,0.9042931795120239
1772791564190667500,14.00066748046875,-9.807088851928711,0.837219774723053,0.9090840816497803
1772791564210769000,14.020768798828126,7.0756449699401855,-9.06329345703125,15.479582786560059
1772791564230870300,14.040870361328125,58.069393157958984,-28.21514320373535,40.729122161865234
1772791564250971600,14.0609716796875,105.9580078125,-30.240520477294922,25.46513557434082
1772791564271073300,14.0810732421875,95.08253479003906,-28.64992332458496,17.735525131225586
1772791564291174700,14.101174560546875,42.21671676635742,-22.053974151611328,14.38904094696045
1772791564311276000,14.121276123046876,22.654041290283203,-14.054272651672363,13.351798057556152
1772791564331377700,14.141377685546875,26.07598114013672,-11.747426986694336,17.916982650756836
1772791564351479000,14.16147900390625,16.01317596435547,-9.087247848510742,11.497098922729492
1772791564371580700,14.18158056640625,7.420593738555908,-8.33746337890625,6.759441375732422
1772791564391682000,14.20168212890625,-2.3302018642425537,-8.074559211730957,2.5146536827087402
1772791564411783400,14.221783447265626,-10.625144958496094,-5.017928600311279,-3.4896132946014404
1772791564431885000,14.241885009765625,-11.731257438659668,-5.0897932052612305,-6.759441375732422
1772791564451986400,14.261986328125,-9.386682510375977,-7.730808258056641,-6.964853763580322
1772791564472087800,14.282087890625,-4.059737205505371,-10.247857093811035,-8.2799711227417
1772791564492189400,14.302189453125,-0.8599767684936523,-12.401391983032227,-12.563087463378906
1772791564512290800,14.322290771484376,-2.8973312377929688,-13.123030662536621,-16.759965896606445
1772791564532392200,14.34239208984375,-10.95093059539795,-13.418871879577637,-19.83396339416504
1772791564552493600,14.36249365234375,-14.67110824584961,-13.495527267456055,-21.062843322753906
1772791564572595200,14.38259521484375,-4.967024803161621,-15.09091567993164,-17.729536056518555
1772791564592696600,14.402696533203125,3.9471497535705566,-18.62065315246582,-13.384137153625488
1772791564612798200,14.422798095703126,7.094808578491211,-19.423139572143555,-11.620466232299805
1772791564632899600,14.442899658203125,3.8477373123168945,-19.456077575683594,-9.492682456970215
1772791564653001500,14.46300146484375,-1.0156829357147217,-19.83396339416504,-6.031815052032471
1772791564673103600,14.483103515625,-2.2918741703033447,-20.20646095275879,-3.4171502590179443
1772791564693206000,14.5032060546875,-3.2326982021331787,-20.970617294311523,-0.9551970958709717
1772791564713308400,14.523308349609374,-4.825092792510986,-21.51020050048828,3.7105963230133057
1772791564733410600,14.54341064453125,-7.491260051727295,-20.664596557617188,17.41093635559082
1772791564753513000,14.563512939453124,-9.093236923217773,-20.020212173461914,22.033611297607422
1772791564773615400,14.583615478515625,-18.551185607910156,-23.224164962768555,6.49174690246582
1772791564793717800,14.6037177734375,-35.46745681762695,-29.223041534423828,7.333158493041992
1772791564813820000,14.62381982421875,-35.817195892333984,-56.536888122558594,45.22723388671875
1772791564833922300,14.64392236328125,30.424373626708984,-65.79301452636719,75.0084228515625
1772791564854024700,14.664024658203125,100.74903869628906,-34.405059814453125,45.00205993652344
1772791564874127000,14.684127197265624,41.200435638427734,-15.22446346282959,40.47999572753906
1772791564894229200,14.704229248046875,-2.046337604522705,-7.816446304321289,39.68170166015625
1772791564914331600,14.72433154296875,28.061235427856445,-7.157690048217773,17.773252487182617
1772791564934434000,14.74443408203125,41.45555114746094,-9.617247581481934,4.086686611175537
1772791564954536200,14.7645361328125,25.603473663330078,-9.999326705932617,2.5763370990753174
1772791564974638600,14.784638671875,10.365235328674316,-8.490175247192383,6.152786731719971
1772791564994741000,14.804740966796874,-0.6946887969970703,-6.145001411437988,3.7770707607269287
1772791565014843400,14.824843505859375,-2.9679980278015137,-4.626267910003662,2.5386083126068115
1772791565034945500,14.844945556640624,0.7659542560577393,-4.511883735656738,3.2368903160095215
1772791565055048000,14.8650478515625,2.7086873054504395,-4.5789570808410645,3.948946475982666
1772791565075150300,14.885150390625,-0.4012426435947418,-3.9579293727874756,4.91911506652832
1772791565095252500,14.90525244140625,-2.0984392166137695,-2.959613800048828,4.173522472381592
1772791565115355000,14.92535498046875,0.798892080783844,-2.811692953109741,2.452970027923584
1772791565135457300,14.945457275390625,3.389003276824951,-2.596698760986328,1.2576261758804321
1772791565155559000,14.965558837890624,4.542426109313965,-1.8948235511779785,-0.032937828451395035
1772791565175660000,14.985659912109375,2.9398510456085205,-0.6192312240600586,0.48268893361091614
1772791565195761200,15.00576123046875,0.44915223121643066,1.1049144268035889,1.9738743305206299
1772791565215862300,15.0258623046875,0.9360332489013672,2.3086423873901367,2.1415579319000244
1772791565235963400,15.04596337890625,4.669985294342041,2.442190408706665,2.299060583114624
1772791565256064500,15.066064453125,6.4989333152771,2.9344611167907715,1.8163715600967407
1772791565276165600,15.08616552734375,6.00247049331665,3.9231948852539062,0.530598521232605
1772791565296266500,15.1062666015625,5.525171279907227,4.3861212730407715,1.5582587718963623
1772791565316367600,15.12636767578125,5.7000412940979,4.434031009674072,2.629037618637085
1772791565336468700,15.14646875,5.652730464935303,4.538833141326904,2.509263753890991
1772791565356569900,15.16656982421875,7.165475368499756,4.58195161819458,2.1032302379608154
1772791565376671000,15.1866708984375,9.935247421264648,4.462177753448486,1.6205412149429321
1772791565396772000,15.206772216796875,9.613654136657715,4.873002052307129,2.261331796646118
1772791565416873200,15.226873291015625,6.059362888336182,5.82819938659668,2.605681896209717
1772791565436974300,15.246974365234376,5.686267375946045,6.186323165893555,2.88295841217041
1772791565457075500,15.267075439453125,8.144027709960938,6.076730251312256,2.1271848678588867
1772791565477176600,15.287176513671875,9.453157424926758,5.95276403427124,0.3730957806110382
1772791565497277700,15.307277587890624,8.748886108398438,5.895272731781006,-0.39166074991226196
1772791565517378800,15.32737890625,7.935621738433838,5.842572212219238,0.22457611560821533
1772791565537480000,15.34747998046875,5.038290023803711,5.742560863494873,1.6588689088821411
1772791565557581000,15.3675810546875,8.630908966064453,6.03361177444458,1.1474342346191406
1772791565577682200,15.38768212890625,11.324625015258789,5.2934088706970215,1.9984279870986938
1772791565597783300,15.407783203125,10.147846221923828,4.840064525604248,3.178800106048584
1772791565617884200,15.42788427734375,9.051315307617188,4.720290660858154,2.265523910522461
1772791565637985300,15.4479853515625,7.6475653648376465,5.0071492195129395,1.443874716758728
1772791565658087000,15.4680869140625,7.533780097961426,5.259871959686279,1.5199310779571533
1772791565678188500,15.4881884765625,8.23805046081543,5.317363262176514,1.3001459836959839
1772791565698290400,15.50829052734375,9.471722602844238,5.0023579597473145,1.625332236289978
1772791565718392000,15.52839208984375,9.580716133117676,5.040685653686523,1.2091177701950073
1772791565738493700,15.54849365234375,7.600254535675049,5.5467305183410645,-0.21499419212341309
1772791565758595600,15.568595703125,8.044615745544434,5.3700642585754395,-0.5880900025367737
1772791565778697200,15.588697265625,9.92087459564209,4.844855308532715,0.4587341547012329
1772791565798798800,15.608798828125,9.575925827026367,4.94486665725708,1.6301231384277344
1772791565818900700,15.628900634765625,8.691993713378906,5.3317365646362305,1.6492869853973389
1772791565839002400,15.64900244140625,8.862072944641113,5.159860610961914,1.4672305583953857
1772791565859104000,15.66910400390625,8.195530891418457,5.346109390258789,0.984541654586792
1772791565879206000,15.689205810546875,7.108582496643066,5.604221820831299,0.6689373850822449
1772791565899307500,15.7093076171875,7.3732829093933105,5.503612041473389,1.3384736776351929
1772791565919409200,15.7294091796875,8.195530891418457,5.384437084197998,1.974473237991333
1772791565939511000,15.749510986328126,8.361417770385742,5.426956653594971,1.3193098306655884
1772791565959612700,15.76961279296875,8.063180923461914,5.58984899520874,1.0755698680877686
1772791565979714300,15.78971435546875,7.878728866577148,5.48923921585083,1.7492982149124146
1772791565999816200,15.809816162109374,8.512332916259766,5.417973518371582,1.73013436794281
1772791566019917800,15.829917724609375,8.966276168823242,5.322154521942139,1.309128999710083
1772791566040019700,15.850019775390624,8.999214172363281,5.312572479248047,1.4720215797424316
1772791566060121300,15.870121337890625,8.399147033691406,5.422764778137207,1.9068008661270142
1772791566080223000,15.890222900390626,8.082345008850098,5.432346343994141,2.0643036365509033
1772791566100324900,15.910324951171875,8.625519752502441,5.317363262176514,1.73013436794281
1772791566120426500,15.930426513671875,8.880638122558594,5.140697002410889,1.0989258289337158
1772791566140528000,15.950528076171874,8.862072944641113,5.011940002441406,0.8312310576438904
1772791566160629200,15.970629150390625,8.980050086975098,4.921510696411133,0.9222592115402222
1772791566180730400,15.99073046875,8.961484909057617,4.720290660858154,1.3055357933044434
1772791566200831200,16.010831298828126,8.904592514038086,3.88905930519104,1.5061571598052979
1772791566220932000,16.03093212890625,8.730321884155273,2.766777753829956,1.4061459302902222
1772791566241033200,16.051033203125,7.860164165496826,2.117004156112671,2.4002695083618164
1772791566261134000,16.071134033203126,6.867836952209473,2.007411003112793,2.7350375652313232
1772791566281235000,16.09123486328125,5.586854934692383,2.685331344604492,1.4157278537750244
1772791566301336000,16.111336181640624,4.254369735717773,3.48781681060791,1.683422565460205
1772791566321437000,16.13143701171875,4.145375728607178,3.2919864654541016,2.8021109104156494
1772791566341537800,16.151537841796873,2.4110491275787354,3.568664073944092,3.069805860519409
1772791566361639000,16.171638916015624,2.3685293197631836,2.3511621952056885,4.09267520904541
1772791566381739800,16.19173974609375,3.6537036895751953,2.4661452770233154,5.34431266784668
1772791566401840600,16.211840576171873,2.920687198638916,1.6307220458984375,6.452820301055908
1772791566421941800,16.231941650390624,2.6985065937042236,0.1401354968547821,7.418797016143799
1772791566442042600,16.252042724609375,1.4696260690689087,1.969682216644287,5.43953275680542
1772791566462143500,16.2721435546875,0.9450162649154663,3.106336832046509,3.675262928009033
1772791566482244600,16.29224462890625,0.7324175834655762,3.5075795650482178,6.997791767120361
1772791566502345500,16.312345458984375,-0.15151402354240417,6.005464553833008,14.804057121276855
1772791566522446300,16.3324462890625,14.8124418258667,11.301867485046387,18.527828216552734
1772791566542547500,16.35254736328125,23.561328887939453,6.573791980743408,18.518247604370117
1772791566562648300,16.3726484375,18.036157608032227,1.969682216644287,22.065351486206055
1772791566582749200,16.392749267578125,13.328442573547363,3.7603025436401367,17.524723052978516
1772791566602850300,16.412850341796876,8.857281684875488,4.381330490112305,10.80780029296875
1772791566622951200,16.432951171875,6.976232528686523,4.266946315765381,8.069169044494629
1772791566643052000,16.453052001953125,5.761724948883057,3.053636312484741,6.984017848968506
1772791566663152600,16.473152587890624,4.443013668060303,2.3852977752685547,4.450200080871582
1772791566683253000,16.4932529296875,3.1997604370117188,3.020099639892578,2.6715574264526367
1772791566703353600,16.513353515625,2.6422128677368164,2.7242579460144043,2.3613429069519043
1772791566723454000,16.533453857421875,1.5217278003692627,2.375715732574463,3.0063254833221436
1772791566743554300,16.55355419921875,1.1959426403045654,2.2846877574920654,-0.14851966500282288
1772791566763655000,16.573655029296877,0.6946887969970703,2.776958465576172,-2.9164950847625732
1772791566783755300,16.59375537109375,-0.4114234447479248,1.119287371635437,-1.539693832397461
1772791566803856000,16.61385595703125,-0.5012539029121399,-0.3611183762550354,0.01856495812535286
1772791566823956200,16.633956298828124,0.8318299055099487,0.4365759789943695,-0.4832877814769745
1772791566844056800,16.654056884765627,2.623049020767212,1.897817850112915,1.0031065940856934
1772791566864157200,16.6741572265625,3.1764044761657715,3.2925853729248047,9.541191101074219
1772791566884257500,16.694257568359376,6.257588863372803,4.171126842498779,23.126548767089844
1772791566904358100,16.714358154296875,12.222330093383789,7.12774658203125,39.21278762817383
1772791566924458500,16.73445849609375,19.01470947265625,6.258786678314209,57.096229553222656
1772791566944559000,16.75455908203125,17.79481315612793,5.537148475646973,56.36920166015625
1772791566964659500,16.774659423828126,3.4500880241394043,7.552943706512451,49.44267654418945
1772791566984759800,16.794759765625,-1.611558198928833,-2.419433355331421,50.86259841918945
1772791567004860400,16.8148603515625,14.231537818908691,-10.519743919372559,42.793426513671875
1772791567024960800,16.834960693359374,12.723584175109863,-18.299659729003906,28.934986114501953
1772791567045061000,16.85506103515625,1.465433955192566,-17.660066604614258,10.68862533569336
1772791567065161700,16.87516162109375,-5.846764087677002,-12.706815719604492,-0.9084852337837219
1772791567085262000,16.895261962890626,-9.802897453308105,-12.014522552490234,-8.151214599609375
1772791567105362700,16.91536279296875,-8.961484909057617,-10.018489837646484,-18.820676803588867
1772791567125463000,16.935463134765627,-5.312572479248047,-8.107497215270996,-21.134708404541016
1772791567145563600,16.955563720703125,-4.443013668060303,-9.239959716796875,-11.721674919128418
1772791567165664800,16.975664794921876,-4.910730838775635,-10.677247047424316,-3.145862102508545
1772791567185766000,16.995765869140627,-3.871093273162842,-10.877867698669434,-0.2108021080493927
1772791567205867000,17.015866943359374,-2.7697720527648926,-9.889134407043457,-0.5934798121452332
1772791567225968400,17.035968505859376,-2.226597309112549,-8.131451606750488,-1.960699200630188
1772791567246069500,17.056069580078123,-3.459669828414917,-6.3450236320495605,-2.5823259353637695
1772791567266170600,17.076170654296874,-6.276752471923828,-5.227532863616943,-1.4396826028823853
1772791567286271700,17.096271728515624,-5.946176528930664,-5.294606685638428,1.4378859996795654
1772791567306372900,17.116372802734375,-2.2972638607025146,-5.967735767364502,2.7763595581054688
1772791567326474200,17.13647412109375,-0.71385258436203,-5.089194297790527,2.073885440826416
1772791567346575400,17.156575439453125,-0.288655161857605,-4.219635486602783,2.2457611560821533
1772791567366676500,17.176676513671875,0.5341917276382446,-3.6992177963256836,5.482651710510254
1772791567386777600,17.196777587890626,0.22218063473701477,-0.5186210870742798,9.483699798583984
1772791567406878700,17.216878662109377,0.6761237978935242,6.573791980743408,11.964816093444824
1772791567426980000,17.23697998046875,3.2141332626342773,18.45656394958496,17.409738540649414
1772791567447081200,17.257081298828126,-0.8983044624328613,27.05333709716797,29.427255630493164
1772791567467182300,17.277182373046877,0.7611632943153381,30.625595092773438,24.29314613342285
1772791567487283500,17.297283447265624,22.209678649902344,27.00063705444336,19.565670013427734
1772791567507384600,17.317384521484374,38.180335998535156,20.32383918762207,25.13934898376465
1772791567527486000,17.33748583984375,24.369802474975586,17.854700088500977,15.024441719055176
1772791567547587000,17.357587158203124,-3.7483251094818115,19.177602767944336,3.1260995864868164
1772791567567688200,17.377688232421875,-10.677247047424316,18.623647689819336,3.101545810699463
1772791567587789300,17.397789306640625,0.9264513254165649,13.995583534240723,5.668900012969971
1772791567607890700,17.417890625,6.456413745880127,7.939813613891602,5.052064418792725
1772791567627991800,17.43799169921875,4.976606845855713,4.152562141418457,3.833364486694336
1772791567648093000,17.458093017578125,0.3024291694164276,1.6738406419754028,2.5230376720428467
1772791567668194000,17.478194091796876,-4.301081657409668,-3.2698283195495605,1.91159188747406
1772791567688295200,17.498295166015627,-0.6240221858024597,-5.8773064613342285,0.49167197942733765
1772791567708396300,17.518396240234374,3.5069806575775146,-4.917318344116211,-0.2539207339286804
1772791567728497400,17.538497314453124,4.097465991973877,-5.6958489418029785,0.4437623918056488
1772791567748598500,17.5585986328125,3.213534355163574,-5.643148422241211,-1.0617958307266235
1772791567768699600,17.57869970703125,1.0869483947753906,-4.745442867279053,-3.7585058212280273
1772791567788800800,17.59880078125,-3.058427333831787,-3.1260995864868164,-5.938391208648682
1772791567808902000,17.61890185546875,-5.539544105529785,-1.674439549446106,-5.522176742553711
1772791567829003000,17.6390029296875,-4.967623710632324,-1.0869483947753906,-2.9218850135803223
1772791567849104100,17.659104248046877,-2.684732675552368,-1.0773664712905884,-0.23056480288505554
1772791567869205200,17.679205322265624,-1.7960100173950195,0.30302804708480835,3.383613348007202
1772791567889306600,17.699306640625,-5.185013294219971,2.9392521381378174,12.60021686553955
1772791567909407700,17.71940771484375,-7.312198162078857,4.314855575561523,16.859378814697266
1772791567929508900,17.7395087890625,-6.985814094543457,4.878392219543457,16.902496337890625
1772791567949610000,17.75960986328125,-8.569225311279297,1.7834337949752808,20.802934646606445
1772791567969711000,17.779711181640625,-11.447992324829102,-2.9829697608947754,23.546955108642578
1772791567989812200,17.799812255859376,-9.750795364379883,-1.2684059143066406,23.967361450195312
1772791568009913300,17.819913330078126,-13.42845344543457,-2.0607104301452637,36.91252899169922
1772791568030014500,17.840014404296873,-16.41561508178711,-3.27881121635437,44.17382049560547
1772791568050115600,17.860115478515624,-9.5855073928833,-2.9823708534240723,38.236629486083984
1772791568070216700,17.880216796875,-4.759815692901611,-6.144402503967285,33.70498275756836
1772791568090317800,17.90031787109375,-3.3842122554779053,-9.86937141418457,28.60919952392578
1772791568110419000,17.9204189453125,-0.9456151723861694,-12.482239723205566,20.21484375
1772791568130520000,17.94052001953125,-1.1348580121994019,-9.573530197143555,8.196728706359863
1772791568150621400,17.960621337890625,-3.6728675365448,-4.219635486602783,1.470823884010315
1772791568170723000,17.98072314453125,-4.627465724945068,-0.5761125683784485,1.1564172506332397
1772791568190824700,18.00082470703125,-3.3135457038879395,-0.08863270282745361,1.4289029836654663
1772791568210926300,18.02092626953125,-0.14193210005760193,-0.5904854536056519,0.534790575504303
1772791568231028000,18.041028076171877,1.5594565868377686,-2.5056705474853516,2.2128233909606934
1772791568251129600,18.061129638671876,7.325972080230713,-6.053973197937012,2.920687198638916
1772791568271231200,18.081231201171875,-3.090766191482544,-4.802934646606445,-1.8786540031433105
1772791568291332900,18.101332763671873,-7.9452033042907715,-3.2794101238250732,-1.0995246171951294
1772791568311434500,18.1214345703125,-4.934086799621582,-2.128382682800293,-3.585432529449463
1772791568331536100,18.1415361328125,-3.1147210597991943,-1.803795337677002,-4.804131984710693
1772791568351637800,18.1616376953125,-2.2212073802948,-1.312123417854309,-3.317138910293579
1772791568371739400,18.181739501953125,-2.9727888107299805,-1.492982029914856,-0.5359883308410645
1772791568391841000,18.201841064453124,-4.37653923034668,-2.782348394393921,1.4618407487869263
1772791568411942700,18.221942626953126,-5.047872066497803,-3.904629945755005,0.6539656519889832
1772791568432044300,18.242044189453125,-6.04978084564209,-5.127521991729736,-1.9127895832061768
1772791568452146000,18.26214599609375,-10.110116958618164,-7.4391584396362305,-2.4433882236480713
1772791568472247600,18.28224755859375,-15.465209007263184,-11.522252082824707,1.9307557344436646
1772791568492349200,18.30234912109375,-19.212936401367188,-14.531571388244629,8.226073265075684
1772791568512450800,18.322450927734376,-22.10128402709961,-16.02155876159668,13.513493537902832
1772791568532552400,18.342552490234375,-23.216379165649414,-16.21259880065918,16.873750686645508
1772791568552654000,18.362654052734374,-20.68316078186035,-15.20470142364502,14.182430267333984
1772791568572755700,18.382755615234377,-18.24396514892578,-14.674701690673828,11.59231948852539
1772791568592857300,18.402857421875,-16.962982177734375,-14.474678993225098,13.437437057495117
1772791568612959000,18.422958984375,-13.049967765808105,-13.614702224731445,12.830183029174805
1772791568633060600,18.443060546875,-8.857281684875488,-12.969719886779785,11.821686744689941
1772791568653162500,18.46316259765625,-6.300108432769775,-12.010330200195312,12.634352684020996
1772791568673265000,18.483264892578124,-4.135793685913086,-10.43410587310791,13.064939498901367
1772791568693367300,18.5033671875,-1.5498746633529663,-7.721226215362549,11.673766136169434
1772791568713469400,18.523469482421874,0.1844518482685089,-4.893962860107422,10.163416862487793
1772791568733571800,18.54357177734375,0.9641801118850708,-2.9739866256713867,9.551371574401855
1772791568753674200,18.56367431640625,1.5552644729614258,-2.052326202392578,9.341168403625488
1772791568773776400,18.5837763671875,1.8570947647094727,-1.6169480085372925,9.163304328918457
1772791568793878800,18.603878662109373,1.4887899160385132,-1.5738294124603271,8.469813346862793
1772791568813981200,18.623981201171876,1.2336714267730713,-1.1917505264282227,7.08342981338501
1772791568834083600,18.64408349609375,1.2714002132415771,-0.4659205675125122,5.587453842163086
1772791568854185700,18.664185791015626,0.8503949046134949,0.035333309322595596,4.583149433135986
1772791568874288000,18.6842880859375,0.26889246702194214,0.07845192402601242,3.6704719066619873
1772791568894390500,18.704390625,-0.40184152126312256,0.10719766467809677,3.096754789352417
1772791568914493000,18.724492919921875,-1.4558520317077637,-0.5803046822547913,4.014223098754883
1772791568934595300,18.74459521484375,-4.017816543579102,-2.385896682739258,7.260096549987793
1772791568954697500,18.764697509765625,-7.099599361419678,-5.174832344055176,11.839653015136719
1772791568974800000,18.7847998046875,-8.999214172363281,-6.416888236999512,14.421978950500488
1772791568994902300,18.80490234375,-5.516188144683838,-4.33461856842041,13.111651420593262
1772791569015004400,18.82500439453125,-1.933151125907898,-5.934798240661621,15.143616676330566
1772791569035106800,18.84510693359375,-1.21510648727417,-10.051427841186523,18.867387771606445
1772791569055209200,18.865209228515624,0.6096493005752563,-11.99535846710205,19.899839401245117
1772791569075311600,18.8853115234375,1.8810495138168335,-11.059325218200684,17.342666625976562
1772791569095413800,18.905413818359374,2.9398510456085205,-8.52790355682373,14.359696388244629
1772791569115516200,18.92551611328125,1.7061796188354492,-8.63809585571289,14.723210334777832
1772791569135618600,18.94561865234375,2.382303476333618,-8.260807991027832,13.83388900756836
1772791569155720200,18.96572021484375,6.210278034210205,-7.181046009063721,12.519370079040527
1772791569175821600,18.985821533203126,7.19362211227417,-8.23625373840332,14.283041000366211
1772791569195922700,19.005922607421876,4.433432102203369,-9.802897453308105,14.932814598083496
1772791569216024000,19.026024169921875,0.8695586919784546,-10.82995891571045,13.178725242614746
1772791569236125400,19.04612548828125,-2.1930606365203857,-11.82348346710205,10.210128784179688
1772791569256226600,19.0662265625,-3.6537036895751953,-11.961822509765625,5.544334888458252
1772791569276328000,19.086327880859375,-2.6326308250427246,-12.458285331726074,0.8641688823699951
1772791569296429300,19.10642919921875,-2.0092077255249023,-11.422240257263184,-0.5078414678573608
1772791569316530400,19.126530517578125,-3.9231948852539062,-9.693304061889648,2.872178792953491
1772791569336631800,19.1466318359375,-5.204176902770996,-9.110603332519531,4.181906700134277
1772791569356733200,19.166733154296875,-3.568664073944092,-8.150615692138672,0.013175131753087044
1772791569376834300,19.186834228515625,-1.4420781135559082,-10.08975601196289,-1.540292739868164
1772791569396935700,19.206935791015624,-2.5763370990753174,-15.299921035766602,-3.6441216468811035
1772791569417037000,19.227037109375,-8.186548233032227,-17.41093635559082,-10.761687278747559
1772791569437138200,19.24713818359375,-13.414080619812012,-17.24864387512207,-10.379608154296875
1772791569457239600,19.267239501953124,-18.651195526123047,-22.387542724609375,0.6389939188957214
1772791569477341000,19.2873408203125,-19.860912322998047,-21.040685653686523,2.7805516719818115
1772791569497442000,19.307442138671874,-19.860912322998047,-13.2655611038208,2.7470149993896484
1772791569517543400,19.32754345703125,-21.66650390625,-16.164690017700195,9.305835723876953
1772791569537644800,19.347644775390624,-14.080622673034668,-20.434030532836914,9.195643424987793
1772791569557746000,19.367745849609374,-8.394355773925781,-22.559419631958008,6.743272304534912
1772791569577847300,19.387847412109377,-7.742186546325684,-20.46277618408203,7.097204208374023
1772791569597948700,19.40794873046875,-7.709249019622803,-17.306135177612305,8.808773040771484
1772791569618049800,19.4280498046875,-7.6475653648376465,-15.768237113952637,11.203653335571289
1772791569638151200,19.448151123046873,-7.624209403991699,-13.757233619689941,12.52296257019043
1772791569658252800,19.468252685546876,-6.844480991363525,-10.356851577758789,11.595314025878906
1772791569678354400,19.4883544921875,-6.040798187255859,-6.831904888153076,9.50645637512207
1772791569698456300,19.508456298828126,-5.776097774505615,-4.529850006103516,7.245124816894531
1772791569718558000,19.528557861328125,-5.2610697746276855,-1.826552391052246,4.984392166137695
1772791569738659800,19.548659912109375,-5.048470973968506,-0.5515589118003845,4.678369522094727
1772791569758761700,19.56876171875,-4.211850166320801,-1.3779990673065186,5.6293745040893555
1772791569778863400,19.58886328125,-2.6991055011749268,-1.9079986810684204,5.616199493408203
1772791569798965200,19.60896533203125,-1.3282928466796875,-2.161320447921753,5.334131717681885
1772791569819067000,19.62906689453125,0.0898304432630539,-2.299659490585327,5.152075290679932
1772791569839168800,19.649168701171874,1.2192986011505127,-2.2092301845550537,5.209567070007324
1772791569859270400,19.6692705078125,1.776846170425415,-2.0708911418914795,5.477261543273926
1772791569879372300,19.689372314453124,1.8858405351638794,-2.1804842948913574,5.654527187347412
1772791569899474000,19.709473876953126,1.8570947647094727,-2.600890874862671,5.008945465087891
1772791569919575800,19.729575927734373,1.2899651527404785,-2.954223871231079,3.8908560276031494
1772791569939677700,19.749677734375,-0.8791406154632568,-4.329827308654785,5.5353522300720215
1772791569959779300,19.769779296875,-4.958041667938232,-6.9660515785217285,10.363438606262207
1772791569979881200,19.789881103515626,-7.397237777709961,-7.13313627243042,12.169031143188477
1772791569999982800,19.80998291015625,-5.019725322723389,-2.633828639984131,10.907212257385254
1772791570020084700,19.830084716796875,-7.009768962860107,-4.22442626953125,14.879514694213867
1772791570040186400,19.850186279296874,-7.449339389801025,-7.767938137054443,19.13388442993164
1772791570060288300,19.870288330078125,-4.826290607452393,-11.96601390838623,22.398921966552734
1772791570080390000,19.890389892578124,-1.6409027576446533,-15.008272171020508,22.327056884765625
1772791570100491800,19.91049169921875,-1.333682656288147,-16.85638427734375,21.47127342224121
1772791570120593700,19.93059375,-4.821499347686768,-20.328630447387695,23.9140625
1772791570140695300,19.9506953125,-9.047123908996582,-21.866527557373047,20.46277618408203
1772791570160796000,19.9707958984375,-10.653890609741211,-20.510087966918945,14.40580940246582
1772791570180895700,19.990895751953126,-9.538196563720703,-18.07029151916504,10.066399574279785
1772791570200995800,20.010995849609376,-7.061870574951172,-15.319085121154785,6.6576337814331055
1772791570221096000,20.031095947265626,-4.499906539916992,-13.060149192810059,4.186098575592041
1772791570241196000,20.051196044921873,-3.0344724655151367,-10.46704387664795,2.441591501235962
1772791570261296000,20.071296142578124,-2.24516224861145,-9.067484855651855,1.1845641136169434
1772791570281396200,20.091396240234374,-1.2246884107589722,-8.900400161743164,-1.1198861598968506
1772791570301496600,20.11149658203125,0.47250813245773315,-9.492682456970215,-2.6637721061706543
1772791570321596700,20.1315966796875,1.8948235511779785,-8.862072944641113,-3.811206340789795
1772791570341696800,20.15169677734375,1.3324849605560303,-8.42729377746582,-4.776584148406982
1772791570361796900,20.171796875,-2.150540828704834,-8.069169044494629,-5.12093448638916
1772791570381897000,20.19189697265625,-8.555451393127441,-6.416888236999512,-6.416289329528809
1772791570401997000,20.2119970703125,-15.058576583862305,-5.285024642944336,-9.169892311096191
1772791570422097200,20.23209716796875,-15.535876274108887,-5.055657386779785,-10.207134246826172
1772791570442197200,20.252197265625,-10.180784225463867,-6.335442066192627,-6.071939468383789
1772791570462297300,20.27229736328125,-6.456413745880127,-10.658082962036133,0.7875135540962219
1772791570482397400,20.2923974609375,-7.325972080230713,-16.312610626220703,6.586368083953857
1772791570502497500,20.31249755859375,-13.839278221130371,-16.633005142211914,6.901972770690918
1772791570522597600,20.33259765625,-19.005126953125,-17.625930786132812,8.091926574707031
1772791570542697700,20.35269775390625,-26.080772399902344,-20.6729793548584,23.466108322143555
1772791570562797800,20.3727978515625,-28.656511306762695,-19.6800537109375,41.72684097290039
1772791570582898000,20.39289794921875,-19.941160202026367,-16.670734405517578,39.10259246826172
1772791570602998000,20.412998046875,-2.991952657699585,-17.439682006835938,21.400606155395508
1772791570623098000,20.43309814453125,6.385148048400879,-13.026612281799316,9.995134353637695
1772791570643198200,20.4531982421875,1.5217278003692627,-7.13313627243042,7.958378791809082
1772791570663298800,20.473298828125,-4.807126522064209,-4.133996963500977,5.917430877685547
1772791570683399700,20.493399658203124,-5.260470867156982,-1.7031852006912231,1.7391173839569092
1772791570703500300,20.513500244140626,-2.7793540954589844,-1.0582026243209839,-1.2917617559432983
1772791570723601200,20.53360107421875,-0.8084740042686462,-1.597784161567688,-1.4013549089431763
1772791570743702000,20.553701904296876,-0.5198188424110413,-2.099637031555176,-0.4551409184932709
1772791570763802600,20.573802734375,-0.6946887969970703,-1.9463263750076294,-0.09162705391645432
1772791570804004000,20.614004150390624,0.7749373316764832,0.37489238381385803,-0.5605419874191284
1772791570824105000,20.63410498046875,2.0936481952667236,3.139873504638672,-2.5829248428344727
1772791570844205800,20.654205810546873,4.220234394073486,5.604820728302002,-3.954935073852539
1772791570864306400,20.674306396484376,7.382266044616699,8.408129692077637,-3.8591158390045166
1772791570884407300,20.6944072265625,12.864917755126953,7.066062927246094,6.213272571563721
1772791570904508000,20.7145078125,13.28592300415039,6.731893539428711,24.82314682006836
1772791570924608800,20.73460888671875,5.009544372558594,6.95167875289917,38.47557830810547
1772791570944709600,20.754709716796874,5.184414386749268,2.6961112022399902,35.191375732421875
1772791570964810200,20.774810302734377,14.401018142700195,-0.007186435628682375,19.091365814208984
1772791570984911000,20.7949111328125,10.397574424743652,-1.5450836420059204,22.069543838500977
1772791571005011700,20.81501171875,-3.5075795650482178,-5.815024375915527,35.9417610168457
1772791571025112600,20.835112548828125,-7.080435752868652,-6.053374290466309,45.96623992919922
1772791571045213400,20.85521337890625,-8.966276168823242,-10.88685131072998,61.45001220703125
1772791571065314000,20.87531396484375,-18.267919540405273,-11.641427040100098,63.495750427246094
1772791571085415000,20.895414794921876,-16.24972915649414,-9.220196723937988,51.43032455444336
1772791571105515500,20.915515625,-14.269865989685059,-9.663959503173828,42.73952865600586
1772791571125616400,20.935616455078126,-11.509077072143555,-10.671856880187988,30.889097213745117
1772791571145717200,20.95571728515625,-9.207620620727539,-10.180185317993164,15.510723114013672
1772791571165819400,20.9758193359375,-12.55410385131836,-9.597484588623047,3.411161422729492
1772791571185921800,20.995921875,-15.701763153076172,-8.255417823791504,-8.653666496276855
1772791571206024200,21.016024169921874,-16.486282348632812,-7.486469268798828,-13.5775728225708
1772791571226126300,21.036126220703125,-15.73949146270752,-9.611857414245605,-11.45457935333252
1772791571246228700,21.056228759765624,-13.078115463256836,-12.043268203735352,-11.760601997375488
1772791571266331100,21.0763310546875,-8.781824111938477,-11.794737815856934,-14.562113761901855
1772791571286433300,21.096433349609374,-5.606018543243408,-11.422240257263184,-13.892578125
1772791571306535700,21.11653564453125,-3.8100085258483887,-11.00183391571045,-9.652581214904785
1772791571326638000,21.13663818359375,-5.175431251525879,-10.22330379486084,-4.451397895812988
1772791571346740500,21.156740478515626,-5.643747329711914,-8.81955337524414,-0.2682935893535614
1772791571366842600,21.176842529296874,-3.299172878265381,-7.214582443237305,2.7913312911987305
1772791571386945000,21.196945068359376,-0.4347793459892273,-5.901261329650879,3.718980550765991
1772791571407047200,21.217047119140624,1.143841028213501,-4.568776607513428,3.647116184234619
1772791571427149600,21.237149658203126,1.743908405303955,-3.613579273223877,3.771681070327759
1772791571447252000,21.257251953125,2.0888571739196777,-2.605681896209717,5.640753269195557
1772791571467354400,21.277354248046876,3.668076515197754,0.5270052552223206,7.562525749206543
1772791571487456500,21.29745654296875,6.565407752990723,7.676909923553467,12.51038646697998
1772791571507559000,21.317558837890626,6.271961688995361,18.284088134765625,25.29745101928711
1772791571527661300,21.337661376953125,-5.4922332763671875,31.069955825805664,36.1441764831543
1772791571547763500,21.357763427734376,-5.6293745040893555,37.058650970458984,48.06647491455078
1772791571567865900,21.377865966796875,5.7946624755859375,29.01643180847168,55.77212905883789
1772791571587968300,21.39796826171875,5.1945953369140625,27.14915657043457,36.46876525878906
1772791571608070400,21.4180703125,-3.596811056137085,25.425010681152344,25.81846809387207
1772791571628172800,21.4381728515625,-3.261444091796875,20.534042358398438,24.12127113342285
1772791571648275000,21.45827490234375,4.901149272918701,12.022907257080078,16.39585304260254
1772791571668375600,21.47837548828125,7.864954948425293,6.010255813598633,6.730096817016602
1772791571688476200,21.49847607421875,4.636448860168457,1.319908618927002,2.5996930599212646
1772791571708577000,21.518576904296875,0.8318299055099487,-2.1092188358306885,0.15271176397800446
1772791571728677600,21.538677734375,-1.8103829622268677,-4.019612789154053,-1.8025976419448853
1772791571748778500,21.558778564453124,-3.0111165046691895,-5.413781642913818,-3.0554327964782715
1772791571768879000,21.578879150390627,-3.1386756896972656,-6.6414642333984375,-4.2932963371276855
1772791571788980000,21.59897998046875,-0.09941235929727554,-8.933937072753906,-4.245985507965088
1772791571809080600,21.61908056640625,2.6985065937042236,-10.701201438903809,-3.2800090312957764
1772791571829181200,21.63918115234375,0.7228356599807739,-11.379121780395508,-3.5572855472564697
1772791571849282000,21.659281982421874,-1.7582812309265137,-10.137664794921875,-5.158663272857666
1772791571869382700,21.679382568359376,-3.4171502590179443,-8.866864204406738,-4.451397895812988
1772791571889483500,21.6994833984375,-3.2806079387664795,-7.5439605712890625,-2.8260657787323
1772791571909584100,21.719584228515625,-1.5834113359451294,-6.359396457672119,-1.253434181213379
1772791571929684700,21.739684814453124,-0.3880675137042999,-5.294606685638428,0.22816933691501617
1772791571949785600,21.75978564453125,-0.4587341547012329,-4.33461856842041,0.8354231715202332
1772791571969886200,21.77988623046875,-1.0444285869598389,-4.272934913635254,1.3001459836959839
1772791571989987000,21.799987060546876,-2.561964273452759,-4.305872917175293,0.5114346742630005
1772791572010087700,21.820087646484374,-5.719204902648926,-1.2210952043533325,-3.690833568572998
1772791572030188500,21.8401884765625,-3.053037405014038,6.143803596496582,3.6327431201934814
1772791572050289200,21.8602890625,-5.809035301208496,13.493730545043945,37.372459411621094
1772791572070389800,21.8803896484375,-17.700790405273438,27.7408390045166,56.26499938964844
1772791572090490600,21.90049072265625,-12.047460556030273,31.050792694091797,48.7264289855957
1772791572110591200,21.92059130859375,12.373844146728516,18.647003173828125,32.061683654785156
1772791572130692000,21.940692138671874,26.756298065185547,14.04289436340332,15.445446968078613
1772791572150792700,21.960792724609377,18.62244987487793,13.570385932922363,8.561440467834473
1772791572170893600,21.9808935546875,3.9842796325683594,14.396825790405273,9.966987609863281
1772791572190994400,22.000994384765626,-3.9040310382843018,16.450349807739258,11.492308616638184
1772791572211095300,22.02109521484375,-2.8781673908233643,15.499943733215332,10.641314506530762
1772791572231196200,22.041196044921875,2.0750832557678223,12.28101921081543,8.432682991027832
1772791572251297000,22.061297119140626,5.776097774505615,9.510648727416992,5.110154628753662
1772791572271398000,22.08139794921875,6.636074542999268,7.509226322174072,2.6913201808929443
1772791572291498800,22.101498779296875,5.927012920379639,5.9096455574035645,1.4678294658660889
1772791572311599600,22.121599609375,5.014934539794922,4.67717170715332,1.4965752363204956
1772791572331700500,22.141700439453125,4.343601703643799,3.5884268283843994,2.2373769283294678
1772791572351801000,22.161801025390623,3.6207659244537354,2.7428228855133057,1.993636965751648
1772791572371902200,22.181902099609374,2.783545970916748,2.1846764087677,0.5012539029121399
1772791572392002800,22.2020029296875,2.0936481952667236,1.5923943519592285,-1.0043044090270996
1772791572412103700,22.222103759765623,2.0702922344207764,0.9048920273780823,-1.7265411615371704
1772791572432204500,22.24220458984375,2.8027098178863525,0.3126099407672882,-2.156529664993286
1772791572452305400,22.262305419921876,3.4452970027923584,-0.026949133723974228,-2.2140209674835205
1772791572472406300,22.28240625,3.3794214725494385,-0.2036156803369522,-2.1517386436462402
1772791572492507100,22.302507080078126,3.0817830562591553,0.12157053500413895,-1.721750259399414
1772791572512608000,22.32260791015625,3.2470712661743164,0.8138638138771057,-1.0617958307266235
1772791572532708900,22.342708984375,4.277126789093018,3.9136130809783936,-1.7744507789611816
1772791572552809700,22.362809814453126,6.80136251449585,14.177639961242676,-4.269940376281738
1772791572572910600,22.38291064453125,10.762286186218262,27.96062469482422,9.575326919555664
1772791572593011500,22.403011474609375,9.03215217590332,36.29449462890625,30.116554260253906
1772791572613112300,22.4231123046875,14.56690502166748,35.105140686035156,29.22723388671875
1772791572633213200,22.443213134765625,28.292997360229492,27.02399253845215,26.043642044067383
1772791572653314300,22.463314208984375,26.855709075927734,16.292247772216797,24.79619789123535
1772791572673416000,22.483416015625,14.411198616027832,12.275629997253418,14.747763633728027
1772791572693517600,22.503517578125,5.2610697746276855,9.653778076171875,9.776546478271484
1772791572713619200,22.523619140625,1.947524070739746,7.184638977050781,6.325261116027832
1772791572733721000,22.54372119140625,2.112812042236328,4.466968536376953,2.314631223678589
1772791572753822700,22.56382275390625,1.73013436794281,2.0217838287353516,-0.24793203175067902
1772791572773924400,22.58392431640625,-0.3539319634437561,0.23056480288505554,-0.21439532935619354
1772791572794026000,22.60402587890625,-2.556574583053589,-0.9252535700798035,0.5838978886604309
1772791572814127600,22.624127685546874,-3.45487904548645,-1.5702362060546875,1.1959426403045654
1772791572834229200,22.644229248046877,-3.653104782104492,-2.744619607925415,1.7642699480056763
1772791572854331000,22.664330810546875,-2.8685855865478516,-4.005838871002197,1.2911629676818848
1772791572874432800,22.684432861328126,-1.5546655654907227,-4.5406293869018555,0.25871169567108154
1772791572894534400,22.704534423828125,-0.9827450513839722,-5.070629119873047,0.053299397230148315
1772791572914636000,22.724635986328124,-1.4839990139007568,-5.314369201660156,0.5743159651756287
1772791572934737700,22.744737548828127,-2.452970027923584,-4.856234073638916,2.0277726650238037
1772791572954839300,22.76483935546875,-3.9082231521606445,-4.646030426025391,5.077815532684326
1772791572974941000,22.78494091796875,-4.348392486572266,-4.258562088012695,5.846764087677002
1772791572995042600,22.80504248046875,-3.9794886112213135,-3.102743625640869,3.4997942447662354
1772791573015144400,22.82514453125,-3.7812628746032715,-2.6637721061706543,1.9792641401290894
1772791573035246000,22.84524609375,-2.8733766078948975,-2.6110715866088867,2.3571507930755615
1772791573055347700,22.86534765625,-2.216416597366333,-2.5392072200775146,3.8962459564208984
1772791573075449300,22.885449462890627,-1.6684508323669434,-0.05090392008423805,3.069206953048706
1772791573095551000,22.905551025390626,4.235206127166748,7.881723403930664,1.0665868520736694
1772791573115652600,22.925652587890625,5.908447742462158,13.164352416992188,17.615751266479492
1772791573135754200,22.945754150390623,-1.8097840547561646,24.717744827270508,37.19639205932617
1772791573155855600,22.965855712890626,1.4983718395233154,28.34749412536621,45.45180892944336
1772791573175956500,22.98595654296875,18.948833465576172,22.563013076782227,31.335853576660156
1772791573196057300,23.006057373046875,24.166786193847656,19.172212600708008,13.724894523620605
1772791573216158200,23.026158203125,15.427480697631836,19.277612686157227,7.5104241371154785
1772791573236259000,23.046259033203125,10.40296459197998,19.01470947265625,10.01070499420166
1772791573256360000,23.06635986328125,12.814013481140137,15.977243423461914,15.120859146118164
1772791573276460800,23.086460693359374,17.733728408813477,14.911853790283203,10.799416542053223
1772791573296561700,23.106561767578125,17.33248519897461,13.856645584106445,5.307182788848877
1772791573316662500,23.12666259765625,12.84216022491455,12.461877822875977,4.073511123657227
1772791573356864300,23.1668642578125,5.1898040771484375,9.691507339477539,1.4971741437911987
1772791573376965000,23.186965087890623,4.18789529800415,7.571508884429932,0.7228356599807739
1772791573397066000,23.20706591796875,3.6207659244537354,5.345510482788086,0.07725418359041214
1772791573417166800,23.227166748046876,3.2710258960723877,3.6884381771087646,-1.036643385887146
1772791573437267700,23.247267822265623,3.455477714538574,2.107422351837158,-1.6055694818496704
1772791573457368600,23.26736865234375,3.6489126682281494,0.8941123485565186,-1.5816147327423096
1772791573477469400,23.287469482421876,3.5123703479766846,-0.10360444337129593,-1.2708014249801636
1772791573497570300,23.3075703125,3.6159749031066895,-0.524010956287384,-2.121795177459717
1772791573517671200,23.327671142578126,3.8429465293884277,-0.23775124549865723,-3.574652910232544
1772791573537772000,23.34777197265625,3.8477373123168945,-0.2760789096355438,-3.3692405223846436
1772791573557873000,23.367872802734375,3.6728675365448,-0.7485870718955994,-1.5480780601501465
1772791573577973800,23.387973876953126,2.997342586517334,-1.130665898323059,0.19702811539173126
1772791573598074600,23.40807470703125,1.7115694284439087,-1.1258748769760132,0.1401354968547821
1772791573618175500,23.428175537109375,0.4970617890357971,-0.6246210336685181,-0.5581464767456055
1772791573638276400,23.4482763671875,-0.8785417675971985,1.3097279071807861,-0.05150279030203819
1772791573658377500,23.46837744140625,2.5481903553009033,9.81068229675293,-1.8391286134719849
1772791573678478800,23.488478759765623,16.55754852294922,21.574277877807617,5.40300178527832
1772791573698580200,23.508580322265626,30.902271270751953,28.480443954467773,27.450387954711914
1772791573718681300,23.528681396484377,33.17079162597656,31.537073135375977,39.353519439697266
1772791573738782700,23.54878271484375,35.557884216308594,24.664445877075195,41.26571273803711
1772791573758884000,23.568884033203126,31.49275779724121,12.198974609375,33.27798843383789
1772791573778985500,23.5889853515625,18.849422454833984,6.902571201324463,19.973499298095703
1772791573799086600,23.609086669921876,8.650073051452637,5.737171173095703,16.320993423461914
1772791573819188000,23.62918798828125,2.089456081390381,2.985964059829712,15.006475448608398
1772791573839289300,23.649289306640625,1.886439323425293,1.1953438520431519,9.026163101196289
1772791573859390700,23.669390625,1.7067784070968628,-1.1067110300064087,7.315192699432373
1772791573879491800,23.689491943359375,-0.510236918926239,-2.3391847610473633,6.339633941650391
1772791573899593200,23.70959326171875,-2.6985065937042236,-1.9235693216323853,2.893139123916626
1772791573919694600,23.729694580078124,-3.832765579223633,-2.128981590270996,0.5270052552223206
1772791573939796000,23.7497958984375,-3.0668113231658936,-3.079387664794922,0.07246322929859161
1772791573959897000,23.76989697265625,-1.4223153591156006,-3.6716697216033936,0.04910730943083763
1772791573979998500,23.78999853515625,-0.3114122152328491,-3.877082109451294,0.1443275809288025
1772791574000099800,23.810099853515624,0.23655350506305695,-3.800426721572876,-0.11857619136571884
1772791574020201200,23.830201171875,0.5862933993339539,-3.256054162979126,-0.25691506266593933
1772791574040302300,23.85030224609375,0.4024403989315033,-2.931466817855835,0.24972863495349884
1772791574060403700,23.87040380859375,0.548564612865448,-2.4110491275787354,0.3982483148574829
1772791574080505000,23.890505126953126,0.8653666377067566,-1.9954335689544678,0.6371973156929016
1772791574100606500,23.9106064453125,0.9270501732826233,-1.4845978021621704,2.161919355392456
1772791574120707600,23.93070751953125,0.08563835918903351,-0.7294232249259949,2.9793765544891357
1772791574140809000,23.95080908203125,-0.43418049812316895,0.3976494371891022,2.2242019176483154
1772791574160910300,23.970910400390625,-0.06587565690279007,1.4911854267120361,1.9708799123764038
1772791574181011700,23.99101171875,2.420631170272827,3.15783953666687,3.8639068603515625
1772791574201113000,24.011113037109375,6.295916557312012,4.562189102172852,9.610060691833496
1772791574221214500,24.03121435546875,12.875697135925293,5.292809963226318,14.380656242370605
1772791574241315800,24.05131591796875,17.918777465820312,6.983418941497803,16.273683547973633
1772791574261417200,24.071417236328124,17.095932006835938,8.640491485595703,17.560054779052734
1772791574281518600,24.0915185546875,14.307594299316406,7.670921325683594,19.806415557861328
1772791574301620200,24.1116201171875,14.567503929138184,3.8692967891693115,23.70745277404785
1772791574321721300,24.131721435546876,18.793128967285156,0.9605869054794312,21.064041137695312
1772791574341823000,24.151822998046875,20.09746551513672,-0.10899427533149719,12.095969200134277
1772791574361924000,24.171924072265625,17.93734359741211,-0.4479544758796692,4.275330543518066
1772791574382025700,24.192025634765624,15.62630558013916,0.19702811539173126,-0.48149117827415466
1772791574402127000,24.212127197265627,13.881797790527344,0.5407792925834656,-1.5384961366653442
1772791574422228500,24.232228515625,13.15417194366455,0.7605644464492798,-0.4485533535480499
1772791574442329900,24.252329833984376,13.305685997009277,1.261818289756775,0.15870045125484467
1772791574462431200,24.27243115234375,13.55122184753418,1.3480556011199951,0.264101505279541
1772791574482532600,24.29253271484375,15.096904754638672,1.4624396562576294,0.9522027373313904
1772791574502634000,24.312634033203125,15.181943893432617,2.2792978286743164,1.3013436794281006
1772791574522735400,24.3327353515625,13.971628189086914,2.327207326889038,3.438110589981079
1772791574542836700,24.352836669921874,13.829696655273438,2.5996930599212646,7.285848140716553
1772791574562938000,24.372938232421873,13.324250221252441,3.0769922733306885,9.231575012207031
1772791574583039500,24.39303955078125,12.478646278381348,2.6607778072357178,10.370625495910645
1772791574603140900,24.413140869140626,11.244975090026855,1.7391173839569092,11.957630157470703
1772791574623242200,24.4332421875,9.099225044250488,0.9941235780715942,12.72298526763916
1772791574643343600,24.453343505859376,6.52827787399292,0.6168357133865356,11.40367603302002
1772791574663445000,24.473445068359375,4.036980152130127,0.95579594373703,10.313733100891113
1772791574683546400,24.49354638671875,1.887038230895996,1.3899763822555542,10.643710136413574
1772791574703647700,24.513647705078125,0.6389939188957214,1.1701912879943848,10.571846008300781
1772791574723749000,24.5337490234375,1.4283040761947632,0.9791518449783325,9.816671371459961
1772791574743850500,24.5538505859375,2.860201358795166,0.9312422871589661,9.276490211486816
1772791574763951900,24.573951904296877,3.073399066925049,0.9408242106437683,7.718231678009033
1772791574784053200,24.59405322265625,1.6594678163528442,1.2139087915420532,5.044878005981445
1772791574804154600,24.614154541015626,0.8420107364654541,1.5816147327423096,3.013511896133423
1772791574824256000,24.634256103515625,0.17067784070968628,2.512856960296631,2.9129018783569336
1772791574844357400,24.654357421875,-0.16468915343284607,2.4553654193878174,3.711195230484009
1772791574864458800,24.674458740234375,4.060935020446777,0.5785080790519714,4.954448699951172
1772791574884560100,24.69456005859375,5.993487358093262,-0.6869034767150879,9.39506721496582
1772791574904661500,24.71466162109375,9.765767097473145,-1.9571059942245483,12.344499588012695
1772791574924763000,24.734762939453127,14.42557144165039,-4.3214430809021,14.433357238769531
1772791574944864300,24.7548642578125,14.459108352661133,-0.8204513788223267,11.698918342590332
1772791574964965600,24.774965576171876,13.584159851074219,0.6791181564331055,9.151327133178711
1772791574985066800,24.795066650390623,10.664072036743164,-0.973762035369873,7.894898414611816
1772791575005168000,24.815168212890626,9.590897560119629,0.10540105402469635,6.52288818359375
1772791575025269500,24.83526953125,8.021859169006348,0.6641464233398438,5.6677021980285645
1772791575045371000,24.855370849609375,4.689748287200928,1.1654002666473389,5.146685600280762
1772791575065472300,24.87547216796875,7.100198268890381,1.815173864364624,5.729984760284424
1772791575085573600,24.89557373046875,11.675562858581543,1.4474679231643677,5.40479850769043
1772791575105675000,24.915675048828124,4.902346611022949,2.3116366863250732,4.329228401184082
1772791575125776400,24.9357763671875,8.480592727661133,0.18624845147132874,3.9896695613861084
1772791575145877800,24.955877685546874,14.586668014526367,-2.5266308784484863,4.711906433105469
1772791575165979100,24.975979248046876,12.700827598571777,-3.1805965900421143,5.127521991729736
1772791575186080500,24.99608056640625,10.673054695129395,-4.402889728546143,6.431859970092773
1772791575206182000,25.016181884765626,9.586106300354004,-3.0991504192352295,5.723996162414551
1772791575226283000,25.036282958984376,10.016094207763672,-0.7396039962768555,3.085376262664795
1772791575246384400,25.05638427734375,9.250739097595215,1.1612082719802856,1.9283602237701416
1772791575266485800,25.07648583984375,7.794887065887451,1.6768349409103394,2.602687358856201
1772791575286587100,25.096587158203125,8.239248275756836,2.0541229248046875,1.8235580921173096
1772791575306688500,25.1166884765625,8.597970962524414,2.178687810897827,1.45525324344635
1772791575326790000,25.136789794921874,8.555451393127441,2.0445408821105957,3.2141332626342773
1772791575346891300,25.156891357421873,10.167608261108398,2.0259759426116943,4.385522365570068
1772791575366992600,25.17699267578125,10.058614730834961,2.249953269958496,3.2434780597686768
1772791575387093800,25.19709375,8.39974594116211,2.717670440673828,1.1115020513534546
1772791575407195100,25.217195068359374,8.182355880737305,3.2572519779205322,1.1642025709152222
1772791575427296500,25.237296630859376,8.338661193847656,3.2428791522979736,2.254145383834839
1772791575447398000,25.25739794921875,8.451847076416016,3.3961896896362305,2.5937044620513916
1772791575467499300,25.277499267578126,9.926862716674805,3.2524609565734863,3.048246383666992
1772791575487600600,25.2976005859375,10.347270011901855,3.2907886505126953,2.211625576019287
1772791575507702000,25.317701904296875,8.905790328979492,3.778268575668335,1.322304129600525
1772791575527803400,25.337803466796874,7.511621952056885,4.284313201904297,1.1791743040084839
1772791575547904500,25.357904541015625,7.43556547164917,4.599318981170654,1.7241456508636475
1772791575568006000,25.378005859375,8.966875076293945,4.332222938537598,2.177489995956421
1772791575588107300,25.398107177734374,9.562750816345215,4.3034772872924805,1.9433319568634033
1772791575608208600,25.418208740234373,8.565033912658691,4.614290714263916,1.5079537630081177
1772791575628310000,25.43831005859375,7.945802211761475,4.8053297996521,1.33607816696167
1772791575648411400,25.458411376953126,7.997903823852539,4.776584148406982,1.2115132808685303
1772791575668513300,25.47851318359375,8.191937446594238,4.857431411743164,1.0731743574142456
1772791575688615200,25.498615234375,7.761350631713867,4.895759105682373,0.9917281270027161
1772791575708716800,25.518716796875,7.317587852478027,4.895759105682373,0.5425758957862854
1772791575728818700,25.538818603515626,7.865553855895996,4.905341148376465,0.6282142400741577
1772791575748920600,25.558920654296877,8.290751457214355,4.681364059448242,1.4121346473693848
1772791575769022200,25.579022216796876,7.270277500152588,4.427443027496338,1.6037728786468506
1772791575789124000,25.5991240234375,7.28884220123291,5.344911575317383,-0.43717482686042786
1772791575809226000,25.61922607421875,6.589362621307373,5.703035354614258,-0.7192424535751343
1772791575829328000,25.639327880859376,7.7242207527160645,4.738256454467773,0.7958977222442627
1772791575849429500,25.659429443359375,9.26451301574707,4.6999287605285645,0.6767227053642273
