time,seconds_elapsed,z,y,x
1772791550368633300,0.17863330078125,-1.1400983333587646,-1.1363698244094849,-0.5809680819511414
1772791550388735000,0.19873486328125,-1.182442545890808,-0.6032054424285889,-0.7013428807258606
1772791550408836600,0.218836669921875,-1.135837197303772,-0.3494064211845398,-0.8688555359840393
1772791550428938200,0.238938232421875,-1.021321415901184,-0.7419560551643372,-1.1711241006851196
1772791550449040000,0.259039794921875,-0.7704518437385559,-1.376320481300354,-1.4683326482772827
1772791550469141800,0.279141845703125,-0.480433851480484,-2.4306650161743164,-1.9716696739196777
1772791550489243400,0.299243408203125,-0.21598218381404877,-2.7720820903778076,-2.1064255237579346
1772791550509345000,0.319344970703125,0.26418536901474,-1.8024258613586426,-1.3221251964569092
1772791550529446700,0.33944677734375,1.6905732154846191,-1.9904448986053467,-0.8392944931983948
1772791550549548300,0.35954833984375,4.295408725738525,-3.258108377456665,-1.625192642211914
1772791550569650200,0.379650146484375,1.8799238204956055,-2.8274757862091064,-1.863811731338501
1772791550589751800,0.399751708984375,-0.9414266347885132,-2.8770103454589844,-1.9391790628433228
1772791550609853400,0.419853515625,-0.6578001976013184,-2.412022829055786,-1.7900421619415283
1772791550629955000,0.439955078125,-0.6253097057342529,-0.5816338658332825,-2.457429885864258
1772791550650056000,0.460055908203125,-0.3904190957546234,1.8061542510986328,-3.547194480895996
1772791550670156500,0.480156494140625,-0.9392961263656616,0.9395624399185181,-3.791672468185425
1772791550690257200,0.500257080078125,-1.0703234672546387,-0.8024097681045532,-3.729088068008423
1772791550710357500,0.520357421875,-0.6551370620727539,-1.9116153717041016,-3.366365909576416
1772791550730458000,0.5404580078125,-0.5898897051811218,-1.803224802017212,-3.3799479007720947
1772791550750558500,0.560558349609375,-0.9161266088485718,-1.3736573457717896,-3.1660964488983154
1772791550770659000,0.5806591796875,-1.235439419746399,-1.2452930212020874,-2.856903553009033
1772791550790759400,0.600759521484375,-1.4309152364730835,-0.8740487098693848,-2.7178866863250732
1772791550810860000,0.620860107421875,-1.4655362367630005,-0.057257913053035736,-2.8302719593048096
1772791550830960600,0.640960693359375,-1.4689984321594238,0.3134537935256958,-3.1314752101898193
1772791550851061000,0.66106103515625,-1.4863089323043823,0.24234744906425476,-3.393796443939209
1772791550871161600,0.68116162109375,-1.321459412574768,0.19121479988098145,-3.204179525375366
1772791550891262000,0.701261962890625,-1.0735193490982056,0.39361485838890076,-2.7919225692749023
1772791550911362600,0.721362548828125,-0.830905556678772,1.1009498834609985,-2.5839297771453857
1772791550931463000,0.741462890625,-0.5834981203079224,1.3907015323638916,-2.6105613708496094
1772791550951563500,0.7615634765625,-0.24128219485282898,1.4088109731674194,-2.25103497505188
1772791550971664100,0.7816640625,0.09241160750389099,0.9781782031059265,-1.6861790418624878
1772791550991764500,0.801764404296875,0.2756369411945343,0.5062664747238159,-1.2747209072113037
1772791551011865000,0.821864990234375,0.3379548490047455,0.6005423069000244,-1.3583441972732544
1772791551031965400,0.84196533203125,0.6543381214141846,1.4351762533187866,-1.7453011274337769
1772791551052066000,0.862066162109375,0.990695059299469,2.1241354942321777,-1.9839200973510742
1772791551072166400,0.88216650390625,1.9294586181640625,1.5859110355377197,-2.418813943862915
1772791551092267000,0.90226708984375,2.2825934886932373,0.7182539105415344,-3.1828742027282715
1772791551112367600,0.92236767578125,1.7941701412200928,-0.18056216835975647,-3.5330796241760254
1772791551132468000,0.942468017578125,1.539838433265686,-1.158474087715149,-2.9674246311187744
1772791551152569600,0.962569580078125,1.4370404481887817,-1.9632806777954102,-1.8973674774169922
1772791551172671200,0.982671142578125,0.8966856002807617,-1.4847110509872437,-1.084837794303894
1772791551192773000,1.002773193359375,0.12170635908842087,-0.3153179883956909,-0.3932153880596161
1772791551212875000,1.022875,-0.31185588240623474,0.3760380148887634,1.270726203918457
1772791551232977000,1.042976806640625,-0.9121319055557251,0.887630820274353,3.630551338195801
1772791551253078500,1.06307861328125,-2.0255985260009766,1.7779247760772705,5.955755233764648
1772791551273180400,1.083180419921875,-3.124950647354126,2.0991017818450928,8.552867889404297
1772791551293282300,1.1032822265625,-4.0269622802734375,2.549175500869751,11.518827438354492
1772791551313384200,1.12338427734375,-4.529767036437988,2.569948196411133,13.401947021484375
1772791551333486000,1.143486083984375,-4.667452335357666,1.473259449005127,13.355607986450195
1772791551353587700,1.163587646484375,-4.70606803894043,-0.43329593539237976,11.487401962280273
1772791551373689600,1.183689697265625,-4.096470832824707,-1.827193260192871,8.512654304504395
1772791551393791500,1.20379150390625,-2.9033756256103516,-1.1094719171524048,5.507812023162842
1772791551413893400,1.223893310546875,-1.5931016206741333,0.6998781561851501,3.1290783882141113
1772791551433995300,1.243995361328125,-0.28788745403289795,1.6719311475753784,0.9530113935470581
1772791551454097200,1.26409716796875,1.3672657012939453,1.1102708578109741,-1.0116008520126343
1772791551474198800,1.28419873046875,2.8067030906677246,-0.19254638254642487,-2.6113603115081787
1772791551494300700,1.30430078125,3.8426718711853027,-1.1331740617752075,-3.6180343627929688
1772791551514402600,1.324402587890625,4.2943434715271,-1.115863561630249,-4.628969669342041
1772791551534504400,1.34450439453125,4.319110870361328,-0.7187865376472473,-5.832184791564941
1772791551554606000,1.364606201171875,4.37423849105835,-0.7150581479072571,-6.442580699920654
1772791551574708000,1.3847080078125,4.578768730163574,-0.9379645586013794,-6.366147994995117
1772791551594809900,1.404809814453125,4.96838903427124,-0.8391613364219666,-6.707298755645752
1772791551614911700,1.424911865234375,4.873847007751465,0.49135279655456543,-8.217309951782227
1772791551635013600,1.445013671875,3.6091127395629883,2.7015082836151123,-11.280474662780762
1772791551655114500,1.465114501953125,2.091378688812256,4.641353130340576,-14.903702735900879
1772791551675215000,1.485215087890625,1.6919047832489014,3.6735613346099854,-15.937007904052734
1772791551695316000,1.50531591796875,1.6929700374603271,-0.8844350576400757,-12.222967147827148
1772791551715416800,1.525416748046875,-0.12942951917648315,-1.4474267959594727,-6.094239234924316
1772791551735517700,1.545517578125,-2.2887187004089355,3.3811464309692383,-1.3900357484817505
1772791551755618300,1.565618408203125,-2.4200124740600586,4.149467945098877,2.032123327255249
1772791551775719200,1.58571923828125,-1.9835206270217896,4.86745548248291,2.831070899963379
1772791551795820000,1.605820068359375,-1.3680646419525146,6.540718078613281,4.387154579162598
1772791551815921000,1.6259208984375,-1.3054804801940918,7.27921199798584,6.381860733032227
1772791551836021500,1.646021484375,-1.1052109003067017,5.68504524230957,7.429280757904053
1772791551856122400,1.666122314453125,-1.3656678199768066,3.268761157989502,9.083102226257324
1772791551876223200,1.68622314453125,-3.1747515201568604,-0.8287750482559204,10.65410041809082
1772791551896323800,1.70632373046875,-5.593698978424072,-5.6738600730896,11.53986644744873
1772791551916424700,1.7264248046875,-7.74260139465332,-8.663521766662598,12.133750915527344
1772791551936525600,1.746525634765625,-8.175631523132324,-7.952991008758545,10.987793922424316
1772791551956626400,1.76662646484375,-6.054425239562988,-3.9220340251922607,7.719298839569092
1772791551976727000,1.78672705078125,-1.0434256792068481,-1.1459572315216064,3.4864742755889893
1772791551996828000,1.806827880859375,2.651707172393799,-0.9528782367706299,-0.6781733632087708
1772791552016928800,1.8269287109375,2.539055585861206,-0.8799076676368713,-3.5618417263031006
1772791552037029600,1.847029541015625,2.1979050636291504,-1.3398351669311523,-5.339233875274658
1772791552057130200,1.867130126953125,2.982471466064453,-1.2937625646591187,-5.401285648345947
1772791552077231000,1.887231201171875,2.614689350128174,-1.6088142395019531,-5.257474899291992
1772791552097332000,1.90733203125,0.6700507402420044,-2.6186840534210205,-5.504882335662842
1772791552117432800,1.927432861328125,-0.38642433285713196,-3.2123022079467773,-5.247088432312012
1772791552137533400,1.947533447265625,0.23515692353248596,-2.896984100341797,-5.843369960784912
1772791552157635600,1.967635498046875,0.8005455136299133,-1.8210680484771729,-8.068172454833984
1772791552177737700,1.98773779296875,0.6575338840484619,-0.19174742698669434,-11.282605171203613
1772791552197840000,2.00783984375,1.614673137664795,3.237069606781006,-17.576183319091797
1772791552217942000,2.02794189453125,3.080742120742798,8.519445419311523,-24.705991744995117
1772791552238044200,2.048044189453125,4.487422466278076,9.584176063537598,-23.68227195739746
1772791552258146300,2.068146240234375,3.2732884883880615,10.025727272033691,-12.446938514709473
1772791552278248200,2.088248291015625,-2.514554500579834,6.456562042236328,3.2310774326324463
1772791552298350300,2.108350341796875,-9.315996170043945,-1.5004236698150635,11.146517753601074
1772791552318452500,2.128452392578125,-11.050777435302734,-4.094074249267578,12.527365684509277
1772791552338554600,2.1485546875,-8.963393211364746,0.003195790573954582,12.771577835083008
1772791552358656800,2.16865673828125,-7.113296985626221,1.13823401927948,14.455759048461914
1772791552378759000,2.188759033203125,-6.084518909454346,0.09321055561304092,14.768946647644043
1772791552398861000,2.208861083984375,-4.832568168640137,-1.6064174175262451,14.880000114440918
1772791552418963000,2.228962890625,-3.1949915885925293,-3.577421188354492,12.656262397766113
1772791552439065000,2.249065185546875,-1.1278477907180786,-1.9084196090698242,10.251164436340332
1772791552459167200,2.269167236328125,2.5720787048339844,1.1161298751831055,7.009034633636475
1772791552479269400,2.289269287109375,6.700507640838623,3.5947318077087402,3.006040573120117
1772791552499371500,2.30937158203125,9.192691802978516,3.894070863723755,0.2443448156118393
1772791552519473700,2.3294736328125,10.25582504272461,2.3723418712615967,-1.0960229635238647
1772791552539575800,2.349575927734375,11.252644538879395,0.3645864427089691,-1.1080071926116943
1772791552559677700,2.369677734375,10.882732391357422,0.8940224051475525,-1.571396827697754
1772791552579779800,2.38977978515625,8.576703071594238,1.0301098823547363,-3.199918508529663
1772791552599882000,2.409882080078125,5.939642906188965,2.541452407836914,-6.74484920501709
1772791552619984100,2.429984130859375,4.223769664764404,3.0639641284942627,-8.962461471557617
1772791552640086000,2.4500859375,4.314849853515625,4.260521411895752,-9.821596145629883
1772791552660187400,2.4701875,5.796631336212158,6.887727737426758,-10.922014236450195
1772791552680288800,2.490288818359375,6.766021251678467,11.7948637008667,-13.52871322631836
1772791552700390100,2.51039013671875,6.334323406219482,15.712370872497559,-15.71756362915039
1772791552720491300,2.5304912109375,5.0139288902282715,14.47559928894043,-15.322617530822754
1772791552740592600,2.550592529296875,4.28156042098999,9.937843322753906,-8.804535865783691
1772791552760694000,2.570694091796875,2.1776649951934814,6.773478031158447,1.0909630060195923
1772791552780795100,2.590795166015625,-1.0836392641067505,3.586209774017334,8.033552169799805
1772791552800896500,2.610896484375,-3.4642369747161865,-0.6178528666496277,10.764354705810547
1772791552820998000,2.630997802734375,-3.8629119396209717,-2.816556692123413,11.388333320617676
1772791552841099300,2.651099365234375,-3.5907371044158936,-1.7022911310195923,11.580080032348633
1772791552861200600,2.67120068359375,-3.3574442863464355,-0.2790990471839905,12.086080551147461
1772791552881301800,2.6913017578125,-3.3811464309692383,0.015446321107447147,13.015789031982422
1772791552901403100,2.711403076171875,-4.017108917236328,-0.31425273418426514,13.904218673706055
1772791552941605600,2.751605712890625,-5.668799877166748,-2.4453125,12.614185333251953
1772791552961707000,2.77170703125,-5.127912521362305,-0.9001476764678955,8.407193183898926
1772791552981808400,2.791808349609375,-3.04026198387146,1.5600783824920654,3.308575391769409
1772791553001909800,2.81190966796875,0.2221074402332306,3.487672805786133,-0.8265113234519958
1772791553022011000,2.832010986328125,3.518299102783203,4.091943740844727,-2.9620983600616455
1772791553042112300,2.8521123046875,6.220340251922607,3.9518613815307617,-3.5618417263031006
1772791553062213600,2.872213623046875,8.189745903015137,2.975813627243042,-4.115246295928955
1772791553082315000,2.89231494140625,8.735426902770996,2.5262725353240967,-5.424455165863037
1772791553102416100,2.912416015625,7.480014324188232,3.96171498298645,-8.281225204467773
1772791553122517500,2.932517578125,6.910630702972412,5.409142017364502,-11.222151756286621
1772791553142618600,2.95261865234375,6.411022186279297,7.237666606903076,-14.431790351867676
1772791553162718500,2.972718505859375,5.309539794921875,7.964975357055664,-16.631027221679688
1772791553182818800,2.99281884765625,3.7033886909484863,5.637374401092529,-14.783860206604004
1772791553202919000,3.0129189453125,2.1337227821350098,3.593932867050171,-9.726521492004395
1772791553223019000,3.03301904296875,0.331563264131546,4.874645709991455,-4.535226345062256
1772791553243119000,3.053119140625,-1.6831163167953491,6.084252834320068,0.40812909603118896
1772791553263219200,3.07321923828125,-3.325486421585083,6.087714672088623,3.8465335369110107
1772791553283319300,3.0933193359375,-4.105792045593262,6.359889507293701,5.624191761016846
1772791553303419400,3.11341943359375,-4.576638221740723,5.587573528289795,8.133153915405273
1772791553323519500,3.13351953125,-5.057072162628174,3.510576009750366,10.254892349243164
1772791553343619600,3.15361962890625,-4.710861682891846,1.5433005094528198,11.460238456726074
1772791553363719700,3.1737197265625,-3.387537956237793,1.2357057332992554,11.614967346191406
1772791553383819800,3.19381982421875,-1.6897742748260498,2.070073366165161,10.610957145690918
1772791553403920000,3.213919921875,-0.07536739110946655,2.556898832321167,9.087363243103027
1772791553424020000,3.23402001953125,1.4663352966308594,2.618950366973877,7.357109546661377
1772791553444120000,3.2541201171875,3.399522304534912,3.0346693992614746,5.617267608642578
1772791553464220200,3.27422021484375,5.624325275421143,2.9750146865844727,4.349337577819824
1772791553484320300,3.2943203125,8.248068809509277,1.3241225481033325,4.850277900695801
1772791553504420400,3.31442041015625,10.996981620788574,-2.3704776763916016,8.947813987731934
1772791553524520400,3.3345205078125,12.724839210510254,-6.154027462005615,12.197667121887207
1772791553544620500,3.35462060546875,13.954686164855957,-3.4945969581604004,8.810395240783691
1772791553564720600,3.374720703125,13.249747276306152,-2.108689069747925,3.2808785438537598
1772791553584820700,3.39482080078125,10.696044921875,-6.791587829589844,2.069141149520874
1772791553604920800,3.4149208984375,9.400684356689453,-7.083203315734863,2.641453981399536
1772791553625021000,3.43502099609375,7.365764617919922,-2.4066965579986572,1.4765883684158325
1772791553645121500,3.45512158203125,4.859199523925781,3.7928707599639893,-2.4153518676757812
1772791553665222700,3.47522265625,2.317747116088867,4.408326625823975,-6.079858303070068
1772791553685323800,3.49532373046875,1.453818440437317,3.180344343185425,-9.849559783935547
1772791553705425000,3.5154248046875,1.2144004106521606,5.063197612762451,-11.315095901489258
1772791553725526000,3.535526123046875,-0.7994802594184875,10.184718132019043,-13.0160551071167
1772791553745627100,3.555627197265625,-0.43622541427612305,16.178157806396484,-14.018468856811523
1772791553765728300,3.575728271484375,1.934518575668335,17.00293731689453,-13.25440788269043
1772791553785829400,3.595829345703125,3.279680013656616,14.008748054504395,-10.960895538330078
1772791553805930500,3.615930419921875,3.470628499984741,10.225197792053223,-5.349620342254639
1772791553826031900,3.636031982421875,2.061018705368042,7.405712127685547,3.1929943561553955
1772791553846133000,3.656133056640625,-1.1270488500595093,4.156658172607422,9.641034126281738
1772791553866234000,3.676234130859375,-4.373971939086914,1.4117405414581299,11.62269115447998
1772791553886335200,3.696335205078125,-5.526054382324219,0.28975167870521545,12.877837181091309
1772791553906436400,3.716436279296875,-5.1212544441223145,0.033289484679698944,14.060546875
1772791553926537500,3.736537353515625,-5.148951053619385,-1.029044508934021,14.586254119873047
1772791553946638600,3.756638671875,-5.85921573638916,-1.775261640548706,13.080770492553711
1772791553966739700,3.77673974609375,-5.5223259925842285,-2.281261920928955,10.090043067932129
1772791553986840800,3.7968408203125,-4.599541664123535,-3.690072774887085,6.466548919677734
1772791554006942200,3.816942138671875,-3.616569757461548,-3.3715591430664062,3.674226999282837
1772791554027043300,3.837043212890625,-1.8090838193893433,-0.8242476582527161,0.7234470844268799
1772791554047144400,3.85714453125,1.1891003847122192,1.8269269466400146,-2.8827362060546875
1772791554067245600,3.87724560546875,4.882635593414307,3.18593692779541,-5.01699161529541
1772791554087346700,3.8973466796875,8.481095314025879,3.336138963699341,-5.599690914154053
1772791554107447800,3.91744775390625,10.669679641723633,2.890592575073242,-5.9578857421875
1772791554127549000,3.937548828125,10.912825584411621,2.8149588108062744,-6.703836441040039
1772791554147650000,3.957650146484375,9.324518203735352,2.442915678024292,-7.25377893447876
1772791554167751000,3.9777509765625,7.697594165802002,1.808284878730774,-8.307857513427734
1772791554187851800,3.997851806640625,5.991042137145996,3.3886032104492188,-10.990989685058594
1772791554207953000,4.017952880859375,3.0250821113586426,4.930039405822754,-15.046980857849121
1772791554228053800,4.0380537109375,1.6924374103546143,3.992074966430664,-17.03289794921875
1772791554248154600,4.058154541015625,1.7829848527908325,-0.0966726616024971,-14.448036193847656
1772791554268255700,4.078255859375,1.396294116973877,0.06684528291225433,-8.425834655761719
1772791554288356600,4.098356689453125,0.5856286287307739,6.9292731285095215,-1.9623485803604126
1772791554308457700,4.118457763671875,-0.7507444620132446,7.0115647315979,1.8867148160934448
1772791554328558600,4.13855859375,-2.8168230056762695,3.6740939617156982,2.5224108695983887
1772791554348659500,4.158659423828125,-3.8298885822296143,2.45729660987854,3.1314752101898193
1772791554368760600,4.178760498046875,-2.6580986976623535,4.219775199890137,6.258822917938232
1772791554388861400,4.198861328125,-0.15472953021526337,6.011814594268799,10.118804931640625
1772791554408962300,4.21896240234375,1.5547521114349365,6.31141996383667,11.708976745605469
1772791554429063400,4.2390634765625,1.9670090675354004,6.098367214202881,13.478912353515625
1772791554449164300,4.259164306640625,1.9068217277526855,3.352916955947876,15.551383018493652
1772791554469265200,4.27926513671875,0.7683213353157043,-1.70095956325531,16.843280792236328
1772791554489366300,4.2993662109375,-0.933437168598175,-6.227797031402588,17.196949005126953
1772791554509467100,4.319467041015625,-1.9654111862182617,-7.622493267059326,15.498652458190918
1772791554529568000,4.339568115234375,-0.9147950410842896,-4.8181867599487305,10.034648895263672
1772791554549669000,4.359669189453125,0.5097286105155945,-0.41518646478652954,3.190863847732544
1772791554569770000,4.37977001953125,1.2575435638427734,3.7534561157226562,-1.4851105213165283
1772791554589871000,4.39987109375,2.300969123840332,6.289848327636719,-3.9139113426208496
1772791554609972000,4.419971923828125,3.7236287593841553,5.912212371826172,-5.054275989532471
1772791554630072800,4.44007275390625,4.6349616050720215,3.2261505126953125,-5.473457336425781
1772791554650174500,4.460174560546875,4.959334373474121,-0.8865655660629272,-4.844152927398682
1772791554670276400,4.4802763671875,5.2352375984191895,-4.253597259521484,-3.648128032684326
1772791554710480400,4.52048046875,5.673060894012451,-5.146021842956543,-2.637725591659546
1772791554730582300,4.540582275390625,5.2525482177734375,-2.9563724994659424,-3.7495944499969482
1772791554750684400,4.560684326171875,4.340682506561279,0.8037413358688354,-6.334989070892334
1772791554770786300,4.580786376953125,3.296724319458008,4.665854454040527,-9.337433815002441
1772791554790888200,4.60088818359375,2.6466472148895264,6.116743087768555,-10.730798721313477
1772791554810990000,4.620989990234375,2.24131441116333,5.498357772827148,-10.641316413879395
1772791554831092200,4.64109228515625,1.5488932132720947,5.4834442138671875,-10.464749336242676
1772791554851194000,4.661194091796875,0.4724443852901459,5.730052471160889,-10.44504165649414
1772791554871296000,4.6812958984375,-1.0175930261611938,4.636826038360596,-10.33132553100586
1772791554891398100,4.701398193359375,-2.5113587379455566,1.7363795042037964,-6.882800579071045
1772791554911500000,4.7215,-3.9268276691436768,2.7462494373321533,0.20679427683353424
1772791554931602000,4.741601806640625,-4.754803657531738,3.941741466522217,6.098766803741455
1772791554951703800,4.761703857421875,-5.144690036773682,2.512690305709839,9.90921401977539
1772791554971806000,4.781805908203125,-4.795283794403076,1.6120100021362305,11.842667579650879
1772791554991907800,4.801907958984375,-3.6807518005371094,1.4234583377838135,13.162528991699219
1772791555012009700,4.822009765625,-2.2762017250061035,0.8306392431259155,13.555078506469727
1772791555032111900,4.84211181640625,-1.4764552116394043,-0.17257268726825714,12.86718463897705
1772791555052213800,4.8622138671875,-1.6133415699005127,-2.7201504707336426,11.514034271240234
1772791555072315600,4.882315673828125,-1.9726017713546753,-5.923398017883301,9.363533020019531
1772791555092417500,4.90241748046875,-1.8708690404891968,-6.6757402420043945,6.833266258239746
1772791555112519700,4.922519775390625,-1.1566098928451538,-4.973449230194092,4.173569202423096
1772791555132621600,4.94262158203125,0.034621063619852066,-2.540919780731201,1.7194684743881226
1772791555152722700,4.96272265625,1.4559489488601685,-0.541686475276947,-0.30533117055892944
1772791555172823600,4.982823486328125,2.8202850818634033,0.772316038608551,-1.624526858329773
1772791555192924400,5.00292431640625,3.9702372550964355,1.1052109003067017,-2.1728713512420654
1772791555213025300,5.023025390625,4.701807022094727,0.9853687882423401,-2.22933030128479
1772791555233126100,5.043126220703125,4.931903839111328,0.688160240650177,-2.209090232849121
1772791555253227000,5.06322705078125,4.552403450012207,0.30652958154678345,-2.3425145149230957
1772791555273327900,5.083327880859375,3.769434928894043,-0.07297055423259735,-2.5518388748168945
1772791555293428700,5.1034287109375,3.0663609504699707,-0.6138581037521362,-2.4277355670928955
1772791555313529600,5.123529541015625,2.5686166286468506,-1.3930983543395996,-1.805088996887207
1772791555333630500,5.14363037109375,2.2607555389404297,-2.2056281566619873,-0.7757781744003296
1772791555353731000,5.16373095703125,2.8956525325775146,-2.837329387664795,-0.32570433616638184
1772791555373832200,5.183832275390625,5.209404945373535,-2.397641897201538,-1.5808510780334473
1772791555393932800,5.203932861328125,6.319941997528076,0.6902907490730286,-4.416049957275391
1772791555414034000,5.224033935546875,5.236835479736328,3.6730287075042725,-7.265097141265869
1772791555434134500,5.244134521484375,4.485291957855225,4.129227638244629,-7.542864799499512
1772791555454235400,5.2642353515625,4.519646644592285,3.141728401184082,-5.960948467254639
1772791555474336300,5.284336181640625,4.1808929443359375,2.9097673892974854,-3.4748895168304443
1772791555494437000,5.30443701171875,3.6541202068328857,2.837329387664795,-0.7267760634422302
1772791555514538000,5.3245380859375,3.103379011154175,2.1787302494049072,1.2357057332992554
1772791555534638800,5.344638916015625,2.153430223464966,1.264734148979187,1.8255953788757324
1772791555554739700,5.36473974609375,0.6010749340057373,0.3507380187511444,1.2492878437042236
1772791555574840600,5.384840576171875,-1.0080056190490723,-0.4761728048324585,0.3771032989025116
1772791555594941400,5.40494140625,-1.897234320640564,-1.1664636135101318,0.2047969102859497
1772791555615042300,5.425042236328125,-2.152897596359253,-1.517734169960022,0.5360938906669617
1772791555635143200,5.44514306640625,-2.124934434890747,-1.3877720832824707,0.8005455136299133
1772791555655244800,5.465244873046875,-1.9776617288589478,-1.2540814876556396,0.7281076312065125
1772791555675346700,5.4853466796875,-1.6572837829589844,-1.198155164718628,0.4306327700614929
1772791555715550200,5.52555029296875,-0.9667266607284546,-0.5555348992347717,-0.3568632900714874
1772791555735652000,5.545652099609375,-0.6838991641998291,-0.4114580452442169,-0.3853590786457062
1772791555755753700,5.565753662109375,-0.5097286105155945,-0.34967276453971863,-0.26684850454330444
1772791555775855600,5.585855712890625,-0.5089296698570251,-0.20586217939853668,-0.2569948136806488
1772791555795957200,5.605957275390625,-0.5488770604133606,-0.14540846645832062,-0.23648850619792938
1772791555816059100,5.62605908203125,-0.533164381980896,-0.14700636267662048,-0.15659373998641968
1772791555836161000,5.6461611328125,-0.3848264515399933,-0.23648850619792938,-0.14620742201805115
1772791555856262700,5.6662626953125,-0.2143842875957489,-0.08655266463756561,-0.3163832724094391
1772791555876364500,5.686364501953125,-0.057257913053035736,0.18988321721553802,-0.4540685713291168
1772791555896466200,5.706466064453125,0.03861580416560173,0.4761728048324585,-0.45433488488197327
1772791555916568000,5.726568115234375,0.1081242486834526,0.6458160281181335,-0.30226853489875793
1772791555936670000,5.746669921875,0.13182635605335236,0.6511423587799072,-0.06977476179599762
1772791555956771600,5.766771484375,0.07882949709892273,0.5459475517272949,0.1062600389122963
1772791555976873500,5.78687353515625,0.006125265266746283,0.39734330773353577,0.2239716500043869
1772791556017077000,5.827076904296875,-0.12117372453212738,0.12410320341587067,0.24048323929309845
1772791556037178600,5.8471787109375,-0.07270423322916031,0.049268439412117004,0.22716744244098663
1772791556057280500,5.867280517578125,0.05512738600373268,0.027963167056441307,0.20932428538799286
1772791556077382400,5.88738232421875,0.18455690145492554,0.03169158846139908,0.1837579607963562
1772791556097484000,5.907484130859375,0.27830010652542114,0.052996858954429626,0.16165374219417572
1772791556117586000,5.9275859375,0.30599695444107056,0.09827055782079697,0.11638004332780838
1772791556137687600,5.9476875,0.2599242925643921,0.12436951696872711,0.061518967151641846
1772791556157789000,5.967788818359375,0.11904320120811462,0.20266638696193695,0.010918950662016869
1772791556177890300,5.987890380859375,-0.06418212503194809,0.3283674716949463,-0.005592633504420519
1772791556197991700,6.00799169921875,-0.2383527159690857,0.35047170519828796,0.04447475075721741
1772791556218093000,6.028093017578125,-0.388022243976593,0.20426428318023682,0.13315793871879578
1772791556238194400,6.0481943359375,-0.49747806787490845,-0.013582110404968262,0.2210421860218048
1772791556278397000,6.08839697265625,-0.5707149505615234,-0.2846916913986206,0.10599371790885925
1772791556298498300,6.108498291015625,-0.5645896792411804,-0.3502053916454315,-0.15100111067295074
1772791556318599700,6.128599609375,-0.572845458984375,-0.41705065965652466,-0.44394856691360474
1772791556338701000,6.148701171875,-0.5201148986816406,-0.5227780938148499,-0.6737791895866394
1772791556358802400,6.168802490234375,-0.446878045797348,-0.5973465442657471,-0.8008118271827698
1772791556378903800,6.18890380859375,-0.3406180143356323,-0.6285054683685303,-0.8692550659179688
1772791556399005200,6.209005126953125,-0.224504292011261,-0.6082654595375061,-0.8665918707847595
1772791556419106600,6.2291064453125,-0.14034846425056458,-0.41651803255081177,-0.9435571432113647
1772791556439208000,6.2492080078125,-0.019441058859229088,-0.1651158481836319,-1.0985530614852905
1772791556459309300,6.269309326171875,0.13049478828907013,0.060187388211488724,-1.2404993772506714
1772791556479410700,6.28941064453125,0.22184112668037415,0.24101586639881134,-1.2900341749191284
1772791556499511800,6.30951171875,0.2378200888633728,0.36964643001556396,-1.1827088594436646
1772791556519613200,6.32961328125,0.18082848191261292,0.516120195388794,-1.0074729919433594
1772791556539714600,6.349714599609375,0.10998845845460892,0.5446159839630127,-0.7347655296325684
1772791556559816000,6.36981591796875,0.06418212503194809,0.4234422445297241,-0.3800327479839325
1772791556579917300,6.389917236328125,0.0330231711268425,0.2556632459163666,-0.06631265580654144
1772791556600018700,6.410018798828125,0.011984214186668396,0.16618111729621887,0.10679266601800919
1772791556620120000,6.4301201171875,0.030093694105744362,0.14008215069770813,0.22237375378608704
1772791556640221200,6.45022119140625,0.08841687440872192,0.1794968992471695,0.25859272480010986
1772791556660322300,6.470322265625,0.1842905879020691,0.2535327076911926,0.21811270713806152
1772791556680423200,6.490423095703125,0.3006706237792969,0.2934800982475281,0.1789642721414566
1772791556700524000,6.51052392578125,0.37550538778305054,0.3656516969203949,0.19068217277526855
1772791556720625200,6.530625244140625,0.41332224011421204,0.5065327882766724,0.2564621865749359
1772791556740726000,6.55072607421875,0.4924180507659912,0.555801272392273,0.5566002130508423
1772791556760827000,6.570826904296875,0.7677887082099915,0.2508695721626282,0.7182539105415344
1772791556780928000,6.590927978515625,0.6769749522209167,0.48842331767082214,0.41465383768081665
1772791556801028900,6.61102880859375,0.46445488929748535,0.7938876152038574,0.05086633190512657
1772791556821129700,6.631129638671875,0.3856253921985626,0.8101329207420349,-0.13475583493709564
1772791556841230800,6.65123095703125,0.2617885172367096,0.9922930002212524,-0.14727267622947693
1772791556861331700,6.671331787109375,0.027164220809936523,1.2117372751235962,0.11158635467290878
1772791556881432800,6.691432861328125,-0.2793653607368469,1.1190593242645264,0.639957070350647
1772791556901533700,6.71153369140625,-0.6490117907524109,0.7555381655693054,1.0495508909225464
1772791556921634600,6.731634521484375,-0.9816403388977051,0.3555316925048828,1.0950908660888672
1772791556941735400,6.7517353515625,-1.2492878437042236,-0.05672528222203255,0.8865655660629272
1772791556961836500,6.77183642578125,-1.3968267440795898,-0.36724960803985596,0.5366265177726746
1772791556981937400,6.7919375,-1.3693962097167969,-0.47350963950157166,0.15020215511322021
1772791557002038300,6.812038330078125,-1.2133351564407349,-0.21278639137744904,-0.2125200778245926
1772791557022139400,6.832139404296875,-0.8873645067214966,0.28975167870521545,-0.5885580778121948
1772791557042240300,6.852240234375,-0.43436118960380554,0.7768434286117554,-0.8697876930236816
1772791557062341000,6.872341064453125,-0.12436951696872711,1.1984214782714844,-1.0034782886505127
1772791557082442200,6.892442138671875,0.07403581589460373,1.5542194843292236,-1.0796445608139038
1772791557102543000,6.912543212890625,0.2798979878425598,1.9126806259155273,-1.2357057332992554
1772791557122644000,6.93264404296875,0.4234422445297241,2.0833890438079834,-1.2618046998977661
1772791557142745000,6.9527451171875,0.41518646478652954,1.9560900926589966,-1.0002824068069458
1772791557162846500,6.972846435546875,0.14034846425056458,1.669001579284668,-0.5488770604133606
1772791557182947800,6.99294775390625,-0.5097286105155945,1.4333120584487915,0.004793685860931873
1772791557203049200,7.01304931640625,-1.4413015842437744,1.2223899364471436,0.966992974281311
1772791557223150600,7.033150634765625,-2.373140811920166,0.7621960639953613,1.8903101682662964
1772791557243251700,7.053251708984375,-3.133206367492676,0.4181159436702728,2.339052438735962
1772791557263353000,7.07335302734375,-3.3166980743408203,0.31238853931427,2.584861993789673
1772791557283454500,7.093454345703125,-3.0120325088500977,0.5968139171600342,2.49537992477417
1772791557303555800,7.113555908203125,-2.4636881351470947,1.274321436882019,1.9558237791061401
1772791557323657200,7.1336572265625,-1.7036226987838745,1.998700737953186,1.274321436882019
1772791557343758600,7.153758544921875,-0.7880287170410156,2.6647567749023438,0.5760412216186523
1772791557363860000,7.17385986328125,0.12357056885957718,3.212568521499634,-0.12410320341587067
1772791557383961300,7.19396142578125,0.9629982113838196,3.5281527042388916,-0.7227813005447388
1772791557404062700,7.214062744140625,1.6354458332061768,3.609645366668701,-1.182442545890808
1772791557424163800,7.234163818359375,2.144641876220703,3.4333443641662598,-1.5409036874771118
1772791557444265200,7.25426513671875,2.556366205215454,2.7129597663879395,-1.9012290239334106
1772791557464366600,7.27436669921875,2.8727493286132812,1.5387731790542603,-2.104694366455078
1772791557484468000,7.294468017578125,3.4123053550720215,-0.29800745844841003,-2.0439743995666504
1772791557504569300,7.3145693359375,3.7057855129241943,-1.983254313468933,-1.9606175422668457
1772791557524670700,7.334670654296875,3.266896963119507,-2.944654703140259,-2.061018705368042
1772791557544772000,7.354772216796875,2.6807355880737305,-2.7667555809020996,-2.8549063205718994
1772791557564873500,7.37487353515625,1.5755248069763184,-1.557415246963501,-4.9398932456970215
1772791557584974800,7.394974853515625,-0.0918789803981781,0.4138548672199249,-8.655265808105469
1772791557605076000,7.415075927734375,-1.5353111028671265,2.444247245788574,-12.73495864868164
1772791557625177300,7.43517724609375,-1.4674005508422852,4.585693359375,-14.980534553527832
1772791557645278700,7.45527880859375,-0.3494064211845398,5.544430255889893,-15.330739974975586
1772791557665379800,7.4753798828125,0.20612849295139313,3.4940643310546875,-11.821762084960938
1772791557685480700,7.495480712890625,-0.1904158592224121,0.9712539911270142,-5.769999980926514
1772791557705581800,7.515581787109375,-1.0178593397140503,2.834932565689087,0.07829686999320984
1772791557725683000,7.535682861328125,-1.1768498420715332,4.667984962463379,4.577970027923584
1772791557745784000,7.5557841796875,-1.101216197013855,4.849345684051514,6.906103610992432
1772791557765885200,7.57588525390625,-1.675925850868225,4.418447017669678,7.592399597167969
1772791557785986300,7.595986328125,-2.750776767730713,2.867156744003296,8.123433113098145
1772791557806087400,7.61608740234375,-3.578486442565918,0.7776423692703247,9.073648452758789
1772791557826188500,7.6361884765625,-3.8115129470825195,-0.709465503692627,9.627585411071777
1772791557846289700,7.65628955078125,-3.414968490600586,-0.7803055047988892,9.241427421569824
1772791557866390800,7.676390869140625,-2.5614261627197266,0.48735806345939636,7.686142444610596
1772791557886491600,7.69649169921875,-1.517201542854309,2.3305301666259766,5.252015590667725
1772791557906592800,7.7165927734375,-0.600275993347168,4.006722450256348,2.822415590286255
1772791557926694000,7.73669384765625,0.03142527490854263,4.658397197723389,0.9592698216438293
1772791557946795000,7.756794921875,0.4207790791988373,4.340682506561279,-0.09001477062702179
1772791557966896000,7.776896240234375,0.37736961245536804,3.385673761367798,-0.3320958912372589
1772791557986997200,7.796997314453125,0.053529493510723114,2.0447733402252197,-0.25140219926834106
1772791558007098400,7.817098388671875,-0.5086633563041687,0.6418212652206421,-0.3597927689552307
1772791558027199500,7.837199462890625,-0.8426234722137451,0.015446321107447147,-0.9699224233627319
1772791558047300600,7.857300537109375,-0.7390265464782715,0.48416227102279663,-2.0197396278381348
1772791558067401700,7.877401611328125,-0.3997401297092438,0.9699224233627319,-2.8788747787475586
1772791558087502600,7.897502685546875,-0.19201375544071198,0.3241064250469208,-2.966758966445923
1772791558107603700,7.917603759765625,0.37017908692359924,-1.3851089477539062,-2.2951102256774902
1772791558127704800,7.937704833984375,0.8673908114433289,-2.7308030128479004,-1.8445037603378296
1772791558147806000,7.957805908203125,0.8484823703765869,-3.3020505905151367,-2.770484209060669
1772791558167906800,7.97790673828125,0.5898897051811218,-4.209655284881592,-6.046701908111572
1772791558188008000,7.998008056640625,-0.26098957657814026,-3.454383373260498,-11.005237579345703
1772791558208109000,8.018109130859376,-0.8202528953552246,-1.9318554401397705,-15.223947525024414
1772791558228210000,8.0382099609375,-1.0546108484268188,-2.85037899017334,-11.477682113647461
1772791558248311000,8.05831103515625,-2.6200156211853027,3.1377336978912354,2.214949131011963
1772791558268412000,8.078411865234376,-6.793185710906982,0.5597959756851196,11.52348804473877
1772791558288513000,8.098512939453125,-11.316560745239258,-3.8346824645996094,12.750938415527344
1772791558308614000,8.11861376953125,-11.424951553344727,-6.1351189613342285,12.636422157287598
1772791558328715000,8.138715087890626,-9.42119026184082,-5.8528242111206055,11.745062828063965
1772791558348816100,8.158816162109375,-7.158038139343262,-4.83762788772583,9.407608032226562
1772791558368917000,8.1789169921875,-4.821382522583008,-3.2498526573181152,3.9966025352478027
1772791558389018000,8.19901806640625,-2.7941861152648926,0.5182507038116455,-1.6903069019317627
1772791558409119000,8.219118896484375,-0.3307643234729767,3.8677055835723877,-4.430164813995361
1772791558429220000,8.23922021484375,2.397109270095825,4.75986385345459,-4.50952672958374
1772791558449321200,8.2593212890625,4.2972731590271,2.9718189239501953,-3.1281464099884033
1772791558469422000,8.279422119140625,5.29196310043335,0.7198518514633179,-1.5361100435256958
1772791558489523200,8.299523193359375,5.7950334548950195,-0.5693833827972412,-0.5131906867027283
1772791558509624000,8.3196240234375,6.190512657165527,-1.1246519088745117,-0.20559586584568024
1772791558529725200,8.33972509765625,6.7175517082214355,-1.4650036096572876,-0.26525062322616577
1772791558569927200,8.37992724609375,7.107438087463379,-3.380347490310669,0.6332991719245911
1772791558590028300,8.4000283203125,5.683713436126709,-4.468247890472412,1.0159951448440552
1772791558610129200,8.420129150390625,3.9356160163879395,-4.431230068206787,0.32463905215263367
1772791558630230300,8.440230224609374,3.5228264331817627,-2.4109575748443604,-1.957155466079712
1772791558650331400,8.460331298828125,3.293262243270874,0.3451453745365143,-5.405413627624512
1772791558670433000,8.48043310546875,3.133206367492676,2.873281955718994,-8.578300476074219
1772791558690534400,8.500534423828125,4.750809192657471,7.056039333343506,-12.563185691833496
1772791558710635800,8.5206357421875,4.91459321975708,12.647873878479004,-17.994430541992188
1772791558730737200,8.540737060546874,3.4953958988189697,15.158966064453125,-19.112159729003906
1772791558770940200,8.580940185546876,0.9012129306793213,1.0058751106262207,-8.087214469909668
1772791558791041500,8.60104150390625,-0.5193159580230713,-3.4498560428619385,-3.5595781803131104
1772791558811143000,8.621142822265625,-1.996037483215332,-4.770782470703125,0.16431689262390137
1772791558831244300,8.641244384765624,-3.601655960083008,-3.6115095615386963,2.7350640296936035
1772791558851346000,8.661345947265625,-5.125781536102295,-2.238917589187622,4.450138568878174
1772791558871447300,8.681447265625,-5.630184173583984,-1.9994996786117554,6.077328205108643
1772791558891548700,8.701548583984374,-5.04242467880249,-1.6450332403182983,6.810495853424072
1772791558911650000,8.721650146484375,-4.038147926330566,-0.1813611090183258,6.527135848999023
1772791558931751700,8.741751708984374,-3.0530452728271484,1.4413015842437744,5.9364471435546875
1772791558951853000,8.76185302734375,-2.209090232849121,1.9776617288589478,5.433110237121582
1772791558971954400,8.781954345703125,-1.259141445159912,1.9483669996261597,5.403016567230225
1772791558992055800,8.802055908203124,-0.3856253921985626,2.0594208240509033,5.817936897277832
1772791559012157200,8.8221572265625,0.04846949130296707,2.1150808334350586,6.526070594787598
1772791559032258800,8.8422587890625,0.04207791015505791,1.1041456460952759,6.837926387786865
1772791559052360200,8.862360107421875,-0.21411797404289246,-0.6988128423690796,6.263483047485352
1772791559072461600,8.882461669921875,-0.48496121168136597,-1.9781943559646606,5.109802722930908
1772791559092563000,8.90256298828125,-1.0894982814788818,-2.7941861152648926,3.634679079055786
1772791559112664600,8.92266455078125,-1.7193353176116943,-3.0269463062286377,2.7363955974578857
1772791559132766000,8.942765869140626,-1.7299879789352417,-2.1060259342193604,1.9853849411010742
1772791559152867800,8.962867919921875,-0.730238139629364,-0.224504292011261,0.6964160203933716
1772791559172969700,8.9829697265625,1.2540814876556396,1.4397037029266357,-0.7105307579040527
1772791559193071900,9.00307177734375,2.6370599269866943,3.3276169300079346,-2.692986249923706
1772791559213173800,9.023173828125,2.548110246658325,5.859748363494873,-5.717002868652344
1772791559233276000,9.04327587890625,2.8181545734405518,7.57748556137085,-6.646445274353027
1772791559253377800,9.063377685546875,2.6394567489624023,8.183088302612305,-7.416364669799805
1772791559273479700,9.083479736328124,1.3725920915603638,7.840073108673096,-6.8027729988098145
1772791559293581800,9.103581787109375,-0.5864275693893433,5.381711483001709,-4.303398132324219
1772791559313684000,9.12368408203125,-1.929724931716919,2.1025638580322266,-0.17097479104995728
1772791559333785900,9.143785888671875,-2.641587257385254,0.00026631588116288185,3.2386674880981445
1772791559353887700,9.1638876953125,-3.1800780296325684,-0.5723128318786621,5.075448036193848
1772791559373990000,9.183989990234375,-3.3478569984436035,-0.5211801528930664,5.964410305023193
1772791559394091800,9.204091796875,-3.098052740097046,-0.36005908250808716,6.375868320465088
1772791559414194000,9.22419384765625,-2.567018747329712,-0.19494321942329407,6.319409370422363
1772791559434295800,9.2442958984375,-1.7739300727844238,0.28549063205718994,5.6541523933410645
1772791559454398000,9.26439794921875,-0.6340981125831604,1.1371687650680542,4.221905708312988
1772791559474499800,9.284499755859375,0.49747806787490845,2.0487680435180664,2.2453091144561768
1772791559494602000,9.30460205078125,0.9922930002212524,2.5451807975769043,0.41278961300849915
1772791559514704000,9.324703857421875,0.627173900604248,2.196573495864868,-0.8639287352561951
1772791559534806000,9.344805908203124,-0.19867165386676788,0.6998781561851501,-1.4554163217544556
1772791559554908000,9.364907958984375,-0.9302413463592529,-1.5004236698150635,-1.584845781326294
1772791559575010000,9.385010009765624,-1.021854043006897,-3.102313756942749,-1.5920363664627075
1772791559595112000,9.40511181640625,-0.639957070350647,-3.504983425140381,-1.455682635307312
1772791559615214000,9.425214111328126,-0.24447797238826752,-2.60749888420105,-1.028511881828308
1772791559635316000,9.44531591796875,-0.03861580416560173,-1.0796445608139038,-0.7150581479072571
1772791559655416600,9.46541650390625,0.03408843278884888,0.6663223505020142,-0.7432876229286194
1772791559675517000,9.485516845703126,0.21651481091976166,2.1204071044921875,-0.870586633682251
1772791559695617000,9.505616943359374,0.5739107131958008,2.9057726860046387,-1.0077393054962158
1772791559715717400,9.52571728515625,1.0380992889404297,3.2320096492767334,-1.2631362676620483
1772791559735817700,9.545817626953125,1.493499517440796,3.302849531173706,-1.7829848527908325
1772791559755918000,9.56591796875,1.8349164724349976,3.100982189178467,-2.5321314334869385
1772791559776018400,9.586018310546875,2.0053586959838867,2.6668872833251953,-3.3806138038635254
1772791559796118800,9.606118896484375,2.119608163833618,1.9904448986053467,-4.175034046173096
1772791559816219100,9.62621923828125,2.2445101737976074,1.1507508754730225,-4.895684719085693
1772791559836319200,9.6463193359375,2.2636849880218506,0.4298338294029236,-5.492232322692871
1772791559856419600,9.666419677734375,2.1435766220092773,-0.012783162295818329,-5.863743305206299
1772791559876520000,9.68652001953125,1.9323880672454834,0.025832640007138252,-6.111949443817139
1772791559896620300,9.706620361328126,1.5419689416885376,0.6394244432449341,-6.246438980102539
1772791559936821000,9.746821044921875,0.12650004029273987,1.8969680070877075,-4.541750907897949
1772791559956921000,9.766921142578125,-0.5981454849243164,1.9243985414505005,-2.8125619888305664
1772791559977021400,9.787021484375,-1.3307805061340332,1.6152057647705078,-1.22864830493927
1772791559997121800,9.807121826171874,-2.0477027893066406,1.3179973363876343,-0.024900535121560097
1772791560017222100,9.82722216796875,-2.5331966876983643,1.1124014854431152,0.6270407438278198
1772791560037322500,9.847322509765625,-2.6176187992095947,1.0141308307647705,0.8550071120262146
1772791560057422600,9.867422607421876,-2.3494386672973633,0.9792435169219971,0.7647260427474976
1772791560077523000,9.88752294921875,-1.9406437873840332,0.9033434391021729,0.4147869944572449
1772791560097623300,9.907623291015625,-1.556882619857788,0.8567382097244263,0.003595264395698905
1772791560117723600,9.9277236328125,-1.2950941324234009,0.7848328948020935,-0.3769701421260834
1772791560137824000,9.947823974609374,-1.175518274307251,0.5795033574104309,-0.7362302541732788
1772791560157925600,9.967925537109375,-1.1752519607543945,0.25140219926834106,-0.9998829960823059
1772791560178027500,9.988027587890626,-1.2604730129241943,-0.20106849074363708,-1.136502981185913
1772791560218230800,10.028230712890625,-1.2173298597335815,-1.083905577659607,-1.0712556838989258
1772791560238332400,10.04833251953125,-1.0245171785354614,-1.3550151586532593,-0.9455545544624329
1772791560258434000,10.06843408203125,-0.7286402583122253,-1.4407689571380615,-0.7692534327507019
1772791560278536000,10.088535888671874,-0.33422642946243286,-1.4540847539901733,-0.4438154101371765
1772791560298637600,10.108637451171875,0.10599371790885925,-1.4564815759658813,-0.015579478815197945
1772791560318739200,10.1287392578125,0.52837073802948,-1.3773857355117798,0.17137427628040314
1772791560338840800,10.1488408203125,0.8327697515487671,-1.2239878177642822,-0.12343741208314896
1772791560358942500,10.1689423828125,1.0325067043304443,-1.2114709615707397,-0.4595280587673187
1772791560379044400,10.18904443359375,1.1424951553344727,-1.304947853088379,-0.37670382857322693
1772791560399146000,10.20914599609375,1.177382469177246,-1.3622057437896729,-0.04593949019908905
1772791560419247600,10.22924755859375,1.123054027557373,-1.2407656908035278,0.09893634915351868
1772791560439349200,10.249349365234375,1.0929603576660156,-0.9922930002212524,0.1327584683895111
1772791560459451000,10.269450927734376,1.2082751989364624,-0.5824328064918518,0.36791539192199707
1772791560479552800,10.289552734375,1.4618078470230103,0.070840023458004,0.6414217948913574
1772791560499654400,10.309654296875,1.974199652671814,1.2399667501449585,0.4384891092777252
1772791560519756000,10.329756103515624,2.831470489501953,2.8202850818634033,-0.5245091319084167
1772791560539857700,10.349857666015625,3.744401216506958,3.607248544692993,-1.400155782699585
1772791560559959600,10.36995947265625,4.007521152496338,2.845851421356201,-1.4531526565551758
1772791560580061200,10.390061279296875,3.4671664237976074,0.9835045337677002,-0.6273070573806763
1772791560600162800,10.410162841796875,2.6144230365753174,-0.7060034275054932,0.7647260427474976
1772791560620264400,10.430264404296874,2.003760576248169,-1.4514214992523193,1.9192054271697998
1772791560640366000,10.450365966796875,1.7816532850265503,-1.3643362522125244,2.4965782165527344
1772791560660467200,10.47046728515625,1.780854344367981,-1.153680443763733,2.7375941276550293
1772791560680568300,10.490568359375,1.612276315689087,-1.31906259059906,2.888328790664673
1772791560700669400,10.51066943359375,0.9795098304748535,-1.7840501070022583,2.6510415077209473
1772791560720770600,10.5307705078125,0.16058847308158875,-2.4003050327301025,1.9700716733932495
1772791560740871700,10.55087158203125,-0.3115895688533783,-2.8562378883361816,0.9572724103927612
1772791560760972800,10.570972900390625,-0.3795001208782196,-2.9571714401245117,-0.7530081272125244
1772791560781074000,10.591073974609374,-0.5281043648719788,-3.1486525535583496,-3.115762710571289
1772791560801174800,10.6111748046875,-0.984569787979126,-4.695415496826172,-3.5908701419830322
1772791560821276000,10.63127587890625,-1.5563499927520752,-5.331111431121826,1.119991421699524
1772791560841377000,10.651376953125,-1.8634122610092163,-1.2085415124893188,8.388018608093262
1772791560861478100,10.67147802734375,-1.185371994972229,2.7414557933807373,11.871429443359375
1772791560881579300,10.691579345703126,-0.3406180143356323,4.248537063598633,12.201128959655762
1772791560901680400,10.711680419921874,-0.10572740435600281,4.012048721313477,12.270637512207031
1772791560921781500,10.731781494140625,-0.7893602848052979,2.42214298248291,12.520708084106445
1772791560941882600,10.751882568359376,-2.4349260330200195,-0.3752390742301941,12.50845718383789
1772791560961983700,10.771983642578125,-4.513521671295166,-4.050930976867676,11.310302734375
1772791560982084900,10.7920849609375,-5.853622913360596,-6.503966331481934,9.438633918762207
1772791561002185700,10.812185791015626,-5.2120680809021,-5.1212544441223145,6.3664140701293945
1772791561022286800,10.832286865234375,-2.807502031326294,-1.2136014699935913,2.3013687133789062
1772791561042388000,10.852387939453125,-0.348341166973114,1.547827959060669,-1.0494177341461182
1772791561062489000,10.872489013671874,1.0980204343795776,2.2253355979919434,-2.919487953186035
1772791561082590200,10.892590087890625,1.6951005458831787,1.971802830696106,-3.58953857421875
1772791561102691300,10.91269140625,2.0261311531066895,1.3062794208526611,-3.3083090782165527
1772791561122792400,10.93279248046875,2.1992366313934326,0.5632581114768982,-3.051846742630005
1772791561142893600,10.9528935546875,2.2213406562805176,-0.036485277116298676,-3.3618385791778564
1772791561162995000,10.972994873046876,2.254364013671875,-0.5512738823890686,-4.346141815185547
1772791561183096600,10.9930966796875,2.3161492347717285,-1.2492878437042236,-5.223386764526367
1772791561203198000,11.013197998046875,2.3473081588745117,-2.033588171005249,-5.521393775939941
1772791561223299300,11.03329931640625,2.3965766429901123,-2.8293399810791016,-5.628719329833984
1772791561243401000,11.05340087890625,2.233591318130493,-3.4069790840148926,-5.645763397216797
1772791561263502300,11.07350244140625,1.8492975234985352,-3.4064464569091797,-6.103560447692871
1772791561283603700,11.093603759765625,1.9441059827804565,-2.26448392868042,-8.451401710510254
1772791561303705300,11.113705322265625,3.179811716079712,0.6873612999916077,-13.082634925842285
1772791561323806700,11.133806640625,2.720949411392212,1.5856447219848633,-18.25661849975586
1772791561343908000,11.153908203125,1.0769814252853394,0.6021401882171631,-14.575334548950195
1772791561364009700,11.174009765625,-0.41278961300849915,1.2588751316070557,-2.449706554412842
1772791561384111000,11.194111083984374,-0.7049381136894226,2.5936503410339355,6.046036243438721
1772791561404212500,11.21421240234375,0.25140219926834106,4.209122657775879,8.760061264038086
1772791561424313900,11.23431396484375,1.2655330896377563,5.174251079559326,9.157937049865723
1772791561444415500,11.25441552734375,1.0996183156967163,4.353199481964111,9.050079345703125
1772791561464516900,11.274516845703126,0.2900179922580719,1.9773954153060913,9.042356491088867
1772791561484618200,11.2946181640625,-0.4857601523399353,-0.27403903007507324,8.506794929504395
1772791561504720000,11.314719970703125,-1.1715235710144043,-0.8783097863197327,7.474021911621094
1772791561524821200,11.3348212890625,-1.629320502281189,-0.15020215511322021,5.858017444610596
1772791561544922600,11.354922607421875,-1.790441632270813,1.2863056659698486,3.647329092025757
1772791561565024300,11.375024169921875,-1.6303858757019043,2.6061673164367676,1.3753883838653564
1772791561585125600,11.395125732421874,-1.3094751834869385,3.1198904514312744,-0.25606271624565125
1772791561605227000,11.41522705078125,-1.0604698657989502,2.1872522830963135,-0.9711208343505859
1772791561625328600,11.43532861328125,-0.6146570444107056,1.3100078105926514,-1.6441011428833008
1772791561645430000,11.455429931640625,0.03914843499660492,0.40613171458244324,-1.9807243347167969
1772791561665531400,11.475531494140625,0.6293044090270996,-0.6708496809005737,-2.074467658996582
1772791561685632800,11.4956328125,1.0900309085845947,-1.5174678564071655,-2.0049591064453125
1772791561705734100,11.515734130859375,1.4120068550109863,-2.010418653488159,-1.8536916971206665
1772791561725835500,11.53583544921875,1.4626067876815796,-2.0594208240509033,-1.7112126350402832
1772791561745937000,11.55593701171875,1.4162678718566895,-1.7409069538116455,-1.6054853200912476
1772791561766038300,11.576038330078125,1.3781846761703491,-1.2218573093414307,-1.4859094619750977
1772791561786140000,11.596139892578124,1.4154689311981201,-0.8242476582527161,-1.3871062994003296
1772791561806241300,11.6162412109375,1.4045499563217163,-0.20506322383880615,-1.2201261520385742
1772791561826342700,11.6363427734375,1.4229257106781006,0.8708529472351074,-1.608148455619812
1772791561846444000,11.656444091796875,1.440502643585205,1.0799108743667603,-3.5802175998687744
1772791561866545400,11.67654541015625,0.3049316704273224,-3.677556037902832,-7.339266300201416
1772791561886646800,11.696646728515624,-1.5840468406677246,-10.095235824584961,-10.55636215209961
1772791561906748200,11.716748046875,0.12357056885957718,-2.8591673374176025,-2.830005645751953
1772791561926849500,11.736849609375,0.7858981490135193,1.810149073600769,3.5922017097473145
1772791561946951000,11.756950927734374,-0.36165696382522583,2.5806009769439697,8.076162338256836
1772791561967052300,11.77705224609375,-1.5915037393569946,1.4346436262130737,10.43012809753418
1772791561987154000,11.79715380859375,-1.814942717552185,2.332394599914551,10.340645790100098
1772791562007255300,11.81725537109375,-1.6429026126861572,3.2554452419281006,8.869251251220703
1772791562027356700,11.837356689453125,-1.7845827341079712,3.3521180152893066,7.884947299957275
1772791562047458000,11.8574580078125,-2.0602197647094727,2.811763048171997,6.953108310699463
1772791562067559400,11.877559326171875,-1.8407753705978394,2.177398681640625,5.757083415985107
1772791562087660800,11.897660888671876,-1.108939290046692,1.8122795820236206,4.708864212036133
1772791562107762200,11.91776220703125,-0.34194958209991455,1.466068983078003,3.7264249324798584
1772791562127863600,11.937863525390625,0.2756369411945343,0.8146602511405945,2.8134942054748535
1772791562147964700,11.957964599609374,0.6418212652206421,0.28788745403289795,2.012948513031006
1772791562168065500,11.9780654296875,0.9139961004257202,0.18242637813091278,1.0851041078567505
1772791562188166400,11.99816650390625,1.18830144405365,0.3430148661136627,0.0576573871076107
1772791562208267000,12.01826708984375,1.3624720573425293,0.5981454849243164,-0.9258471727371216
1772791562228368000,12.038367919921875,1.426387906074524,0.74248868227005,-1.8193368911743164
1772791562248468700,12.05846875,1.4218604564666748,0.5992107391357422,-2.3628876209259033
1772791562268569600,12.078569580078126,1.4010878801345825,0.07004107534885406,-2.463022470474243
1772791562288670500,12.09867041015625,1.2966920137405396,-0.746749758720398,-2.3200109004974365
1772791562308771300,12.118771240234375,1.0985530614852905,-1.6034879684448242,-2.2286643981933594
1772791562328872200,12.1388720703125,0.946220338344574,-2.227466106414795,-2.2521002292633057
1772791562348973000,12.15897314453125,0.9696561098098755,-2.4642207622528076,-2.4851267337799072
1772791562369074000,12.179073974609375,0.9957550764083862,-2.22933030128479,-2.9804742336273193
1772791562389174800,12.1991748046875,0.7321023344993591,-2.0738017559051514,-3.5695648193359375
1772791562409275400,12.219275390625,0.3025348484516144,-2.1944427490234375,-4.062781810760498
1772791562429376300,12.239376220703125,-0.24341271817684174,-3.506314992904663,-5.268660068511963
1772791562449477000,12.25947705078125,-0.88150554895401,-7.421957492828369,-10.188313484191895
1772791562469578000,12.279577880859375,-0.4287685751914978,-8.360986709594727,-18.512815475463867
1772791562489678800,12.299678955078125,0.16484953463077545,-0.0045273699797689915,-23.157363891601562
1772791562509779700,12.31977978515625,0.8040076494216919,5.640037536621094,-20.2281551361084
1772791562529880600,12.339880615234375,-0.3512706458568573,5.268260955810547,-13.663469314575195
1772791562549981400,12.3599814453125,-2.981672525405884,1.2753868103027344,-5.810879230499268
1772791562570082300,12.380082275390626,-4.3545308113098145,-3.622694969177246,-0.28003114461898804
1772791562590183000,12.400182861328124,-3.863710880279541,-5.6743927001953125,1.9809906482696533
1772791562610283800,12.42028369140625,-2.874879837036133,-4.420310974121094,2.215348720550537
1772791562630384600,12.440384521484376,-1.7174711227416992,-2.2791314125061035,1.7860474586486816
1772791562650485000,12.460485107421874,-0.5414201617240906,-0.6964160203933716,1.1716567277908325
1772791562670585300,12.48058544921875,0.587492823600769,0.12650004029273987,0.2874879837036133
1772791562690685700,12.500685791015625,1.5805847644805908,0.5904223322868347,-0.613724946975708
1772791562710786000,12.5207861328125,2.1718060970306396,0.8362318873405457,-0.9663271903991699
1772791562730886400,12.540886474609374,2.459160804748535,0.8862992525100708,-0.5724459886550903
1772791562750986500,12.560986572265625,2.5201470851898193,0.8135949969291687,0.14207951724529266
1772791562771086800,12.5810869140625,2.390451431274414,0.7091991901397705,0.8126628994941711
1772791562791187200,12.601187255859376,2.086052179336548,0.4159854054450989,1.4230588674545288
1772791562811287600,12.62128759765625,1.790441632270813,-0.08761792629957199,1.8992316722869873
1772791562831387600,12.6413876953125,1.5113426446914673,-0.7358307838439941,2.160487651824951
1772791562851488000,12.661488037109375,1.110803484916687,-1.111602544784546,2.0116169452667236
1772791562871588400,12.68158837890625,0.6293044090270996,-0.9009466171264648,1.737311601638794
1772791562891688700,12.701688720703125,0.28788745403289795,-0.4375569820404053,1.6915053129196167
1772791562911789000,12.7217890625,0.07217160612344742,0.027963167056441307,1.650758981704712
1772791562931889200,12.74188916015625,-0.057790547609329224,0.4245075285434723,1.7695358991622925
1772791562951989500,12.761989501953124,-0.14460952579975128,0.6812360286712646,1.7370452880859375
1772791562972089900,12.78208984375,-0.14540846645832062,0.657001256942749,1.3290493488311768
1772791562992190200,12.802190185546875,-0.42717066407203674,1.1941604614257812,-0.8246471285820007
1772791563012290600,12.82229052734375,0.1890842765569687,1.745966911315918,-1.746632695198059
1772791563032390700,12.842390625,1.2737888097763062,1.4913688898086548,2.165281295776367
1772791563052491000,12.862490966796875,2.514021873474121,1.9702048301696777,7.13127326965332
1772791563072591400,12.88259130859375,3.2320096492767334,3.7260255813598633,8.681498527526855
1772791563092691700,12.902691650390626,3.660778045654297,3.940143346786499,9.482842445373535
1772791563112791800,12.922791748046874,3.8975329399108887,3.6514570713043213,11.372087478637695
1772791563132892200,12.94289208984375,2.9044411182403564,3.4013864994049072,12.360651969909668
1772791563152993000,12.962992919921875,1.40801203250885,2.730536699295044,12.057051658630371
1772791563173093600,12.98309375,0.8367645144462585,2.7023072242736816,10.567014694213867
1772791563193194500,13.003194580078125,0.8870981931686401,3.295659065246582,8.313183784484863
1772791563213295400,13.02329541015625,0.7848328948020935,3.4557149410247803,6.2457733154296875
1772791563233396200,13.043396240234374,0.3475422263145447,2.1742029190063477,4.88623046875
1772791563253497000,13.0634970703125,0.11930951476097107,0.8029423952102661,3.387138605117798
1772791563273597700,13.08359765625,0.3211769461631775,0.0918789803981781,1.6145399808883667
1772791563293698600,13.103698486328126,0.5054675340652466,0.17017585039138794,0.12876373529434204
1772791563313799400,13.12379931640625,0.6197170615196228,0.19068217277526855,-1.0781798362731934
1772791563333900300,13.143900390625,0.5472791194915771,-0.06737791746854782,-1.962614893913269
1772791563354001200,13.164001220703126,0.28975167870521545,-0.6069338917732239,-2.4262707233428955
1772791563374101800,13.184101806640625,0.005592633504420519,-1.0269140005111694,-2.841723680496216
1772791563394202600,13.20420263671875,-0.20266638696193695,-1.1022814512252808,-3.5080459117889404
1772791563414303500,13.224303466796876,-0.438355952501297,-1.1483540534973145,-4.346408367156982
1772791563434404400,13.244404296875,-0.7321023344993591,-1.3174647092819214,-4.990626335144043
1772791563454505200,13.264505126953125,-0.8761792778968811,-1.669001579284668,-5.281976222991943
1772791563474605800,13.284605712890626,-0.8996150493621826,-2.1867196559906006,-5.265996932983398
1772791563494706700,13.304706787109374,-0.7355644702911377,-2.378999710083008,-5.118191719055176
1772791563514807600,13.3248076171875,-0.2071937620639801,-2.099368095397949,-5.050014972686768
1772791563534908400,13.344908447265626,0.35286855697631836,-2.174469232559204,-5.635110855102539
1772791563555009300,13.36500927734375,0.5137233138084412,-3.8527917861938477,-8.043937683105469
1772791563575110100,13.385110107421875,-0.37736961245536804,-3.3310790061950684,-9.099081993103027
1772791563595210800,13.405210693359376,-1.2138677835464478,0.7704518437385559,-6.90623664855957
1772791563615311600,13.4253115234375,-0.3073285222053528,1.957155466079712,-3.185537338256836
1772791563635412500,13.44541259765625,-0.10945582389831543,0.3693801164627075,1.1186598539352417
1772791563655513600,13.465513671875,0.07936213165521622,-0.045007385313510895,5.125115871429443
1772791563675614500,13.485614501953124,0.3502053916454315,0.885233998298645,6.455097675323486
1772791563695715600,13.505715576171875,0.455133855342865,1.1598056554794312,5.731783390045166
1772791563715816700,13.525816650390626,0.17310532927513123,0.9131971597671509,6.272671222686768
1772791563735917800,13.545917724609374,-0.2846916913986206,0.06418212503194809,7.199716567993164
1772791563756019000,13.56601904296875,-0.5723128318786621,-0.3957453966140747,6.712891101837158
1772791563776119800,13.586119873046876,-0.6090644001960754,-0.1302284598350525,5.088897228240967
1772791563796221000,13.606220947265625,-0.6953507661819458,0.4719117283821106,3.518965005874634
1772791563816322000,13.626322021484375,-0.6535391807556152,0.4761728048324585,2.3783340454101562
1772791563836423200,13.646423095703126,-0.5097286105155945,0.14274531602859497,1.7434369325637817
1772791563856524300,13.666524169921875,-0.3073285222053528,-0.22929798066616058,1.3863073587417603
1772791563876625200,13.686625244140625,-0.22423797845840454,-0.3933485448360443,1.2475566864013672
1772791563896726300,13.706726318359374,-0.25300008058547974,0.06977476179599762,0.9010797739028931
1772791563916827400,13.726827392578125,-0.28309378027915955,0.4647212028503418,0.4739091098308563
1772791563936928500,13.746928466796875,-0.4311653971672058,0.6098633408546448,0.20626164972782135
1772791563957029400,13.767029296875,-0.46498751640319824,0.5885580778121948,0.1705753207206726
1772791563977130500,13.787130615234375,-0.40986013412475586,0.43143174052238464,0.22863218188285828
1772791563997231600,13.807231689453126,-0.3909517228603363,0.040746331214904785,0.1830921620130539
1772791564017332700,13.827332763671874,-0.6407560110092163,-0.560594916343689,-0.0342215895652771
1772791564037433900,13.847433837890625,-0.9289097785949707,-1.0910961627960205,-0.5519396662712097
1772791564057534700,13.86753466796875,-0.9480845332145691,-1.0998846292495728,-1.3777852058410645
1772791564077635800,13.8876357421875,-0.9233171343803406,-1.0551434755325317,-2.0920443534851074
1772791564097737000,13.907737060546875,-0.9459540247917175,-1.0447572469711304,-2.4142866134643555
1772791564117838000,13.927838134765626,-1.0380992889404297,-1.063931941986084,-2.1887171268463135
1772791564137939000,13.94793896484375,-1.3094751834869385,-1.4737920761108398,-1.816141128540039
1772791564158040600,13.96804052734375,-1.309208869934082,-2.6234776973724365,-1.7005600929260254
1772791564178142000,13.988141845703124,-0.6929539442062378,-3.637608528137207,-3.374621629714966
1772791564198243600,14.00824365234375,0.6625939011573792,-5.06559419631958,-7.708646297454834
1772791564218345000,14.028344970703126,1.0871014595031738,-2.4666175842285156,-10.323601722717285
1772791564238446300,14.0484462890625,0.5158538818359375,5.086367130279541,-5.197554111480713
1772791564258548000,14.0685478515625,0.8713855743408203,4.114047527313232,4.325103282928467
1772791564278649300,14.0886494140625,0.15686005353927612,0.5872265100479126,10.146235466003418
1772791564298750700,14.108750732421875,0.5342296361923218,0.10199898481369019,9.694297790527344
1772791564318852400,14.128852294921876,-0.05938844010233879,0.27696850895881653,9.560074806213379
1772791564338953700,14.14895361328125,-1.210405707359314,-0.1267663538455963,9.6618070602417
1772791564379156700,14.18915673828125,-2.8573031425476074,-2.164881706237793,8.841553688049316
1772791564399258000,14.209258056640625,-3.5273537635803223,-3.278348445892334,7.144589424133301
1772791564419359500,14.229359375,-3.769434928894043,-4.3593244552612305,5.0697221755981445
1772791564439461000,14.249461181640624,-3.664506435394287,-4.695948123931885,3.3178963661193848
1772791564459562500,14.2695625,-3.4916675090789795,-4.477036476135254,2.386589765548706
1772791564479663900,14.289663818359376,-3.341465473175049,-5.861878871917725,2.4518370628356934
1772791564499765500,14.309765625,-2.8860652446746826,-6.915956974029541,3.2414636611938477
1772791564519867000,14.329866943359375,-1.755288004875183,-6.435789585113525,3.577021837234497
1772791564539968300,14.34996826171875,0.3760380148887634,-4.968921661376953,1.5181336402893066
1772791564560070000,14.37006982421875,2.911365270614624,-2.6980462074279785,-0.7410239577293396
1772791564580171300,14.390171142578126,4.835231304168701,-1.2932299375534058,-1.295227289199829
1772791564600272600,14.410272705078125,6.116210460662842,-0.9488834738731384,-0.3676490783691406
1772791564620374300,14.430374267578125,7.17827844619751,-1.6511584520339966,0.7897597551345825
1772791564640476000,14.450475830078124,8.132488250732422,-2.140913486480713,1.2925641536712646
1772791564660578000,14.470578125,9.060066223144531,-2.1054933071136475,1.3546156883239746
1772791564680680400,14.490680419921874,9.87392807006836,-1.9510301351547241,1.561276912689209
1772791564700782800,14.510782958984375,10.634259223937988,-1.1835078001022339,1.9173412322998047
1772791564720885000,14.530885009765624,10.360753059387207,0.13821794092655182,2.0949738025665283
1772791564740987400,14.5509873046875,7.636075496673584,0.5486106872558594,1.8105485439300537
1772791564761089800,14.57108984375,6.0389790534973145,-0.8165245056152344,1.2504862546920776
1772791564781192200,14.591192138671875,7.779885768890381,1.4535521268844604,-1.3556809425354004
1772791564801294300,14.61129443359375,10.225996971130371,8.90107536315918,-7.698526382446289
1772791564821396700,14.631396728515625,7.556713104248047,14.530194282531738,-14.894647598266602
1772791564841499100,14.6514990234375,1.631983757019043,12.240676879882812,-7.021817684173584
1772791564861601300,14.671601318359375,0.4316980540752411,7.109302520751953,4.533361911773682
1772791564881703700,14.69170361328125,-1.6791216135025024,9.118922233581543,3.5826144218444824
1772791564901806000,14.71180615234375,-2.7422547340393066,11.498987197875977,1.0792450904846191
1772791564921908500,14.731908447265624,-2.4181482791900635,9.800424575805664,3.8856818675994873
1772791564942010600,14.7520107421875,-1.1142656803131104,6.5295329093933105,6.8479132652282715
1772791564962113000,14.772113037109374,-0.8189213275909424,3.8144423961639404,7.991207599639893
1772791564982215400,14.79221533203125,-0.9645960927009583,2.6652894020080566,7.554715633392334
1772791565002317800,14.81231787109375,-0.5701823234558105,2.6802029609680176,6.116876125335693
1772791565022420000,14.832419921875,-0.19867165386676788,2.3883209228515625,4.899280071258545
1772791565042522400,14.8525224609375,0.04767054319381714,1.8490312099456787,4.416449546813965
1772791565062624800,14.872624755859375,0.06498107314109802,1.475656270980835,4.126964092254639
1772791565082727000,14.892726806640624,-0.06657896935939789,1.6972310543060303,3.226017475128174
1772791565102829300,14.912829345703125,-0.05193159729242325,1.80562162399292,2.3647518157958984
1772791565122931700,14.932931640625,0.08868318796157837,1.5483605861663818,2.00815486907959
1772791565143033600,14.95303369140625,0.3129211664199829,0.8828371167182922,2.0299928188323975
1772791565163134700,14.973134765625,0.6356959939002991,0.5504749417304993,2.1439759731292725
1772791565183235800,14.99323583984375,0.7078676223754883,0.6197170615196228,1.77646005153656
1772791565203337000,15.0133369140625,0.5406212210655212,0.3235737979412079,1.067527174949646
1772791565223438000,15.03343798828125,0.3241064250469208,-0.10998845845460892,0.5087965130805969
1772791565243539200,15.053539306640625,0.20373165607452393,-0.02024000696837902,0.5572659969329834
1772791565263640300,15.073640380859375,0.16405057907104492,-0.052996858954429626,0.550341784954071
1772791565283741400,15.093741455078124,0.2143842875957489,-0.2966758906841278,0.3189132809638977
1772791565303842600,15.113842529296875,0.1081242486834526,-0.3201116919517517,0.044874224811792374
1772791565323943400,15.133943359375,0.0966726616024971,0.07217160612344742,-0.18522270023822784
1772791565344044500,15.15404443359375,0.12809793651103973,0.541686475276947,-0.35220274329185486
1772791565364145700,15.174145751953125,0.20559586584568024,0.3885548710823059,-0.1897500604391098
1772791565384246800,15.194246826171875,0.21465060114860535,-0.2844253480434418,0.27523747086524963
1772791565404348000,15.214347900390624,0.09534108638763428,-0.7169223427772522,0.35406696796417236
1772791565424449000,15.234448974609375,0.00426105409860611,-0.16857795417308807,-0.10426266491413116
1772791565444550100,15.254550048828126,-0.07483476400375366,0.4958801567554474,-0.3801659345626831
1772791565464651300,15.2746513671875,-0.09880319237709045,0.40613171458244324,-0.3127880096435547
1772791565484752400,15.29475244140625,0.06631265580654144,-0.0029294746927917004,-0.1572595238685608
1772791565504853500,15.314853515625,0.24234744906425476,-0.33662328124046326,-0.1452753096818924
1772791565524954600,15.33495458984375,0.38828855752944946,0.10652635246515274,-0.3735080361366272
1772791565545055700,15.3550556640625,0.46871596574783325,0.7281076312065125,-1.0446240901947021
1772791565565156900,15.375156982421874,0.516120195388794,0.2679137885570526,-0.8496808409690857
1772791565585258000,15.395258056640625,0.23489060997962952,-0.30413272976875305,-0.4478101432323456
1772791565605359000,15.415359130859375,0.021571585908532143,-0.36485275626182556,-0.1380847841501236
1772791565625460200,15.435460205078124,0.057790547609329224,0.03249053657054901,-0.05313001945614815
1772791565645561300,15.455561279296875,0.22610218822956085,0.46924859285354614,-0.20493006706237793
1772791565665663200,15.475663330078126,0.22903165221214294,0.4063980281352997,-0.27656903862953186
1772791565685764900,15.495764892578125,0.11078740656375885,0.10998845845460892,-0.24168166518211365
1772791565705866500,15.515866455078125,-0.11691267043352127,-0.22903165221214294,0.03235737979412079
1772791565725968400,15.535968505859374,-0.10306424647569656,-0.10306424647569656,0.09334371984004974
1772791565746070000,15.556070068359375,0.26205483078956604,0.2583264112472534,-0.1591237336397171
1772791565766171600,15.576171630859376,0.48735806345939636,0.2756369411945343,-0.15326479077339172
1772791565786273500,15.5962734375,0.4253064692020416,-0.0026631588116288185,0.09174582362174988
1772791565806375200,15.616375244140626,0.18216006457805634,-0.22024323046207428,0.19614164531230927
1772791565826476800,15.636476806640625,0.06045370548963547,-0.11265161633491516,0.26032376289367676
1772791565846578700,15.65657861328125,0.03994738310575485,-0.012516846880316734,0.3609911799430847
1772791565866680300,15.676680419921874,0.11584740877151489,-0.06258422881364822,0.27523747086524963
1772791565886782200,15.6967822265625,0.16351795196533203,-0.1536642611026764,0.10106687992811203
1772791565906883800,15.7168837890625,0.06631265580654144,-0.19787269830703735,0.05446159839630127
1772791565926985500,15.7369853515625,-0.032756853848695755,-0.16058847308158875,0.07576686888933182
1772791565947087400,15.75708740234375,0.02689790353178978,-0.05432844161987305,0.06165212765336037
1772791565967189000,15.77718896484375,0.05326317623257637,0.09693898260593414,-0.049934227019548416
1772791565987290600,15.79729052734375,-0.01038631983101368,0.21092218160629272,-0.13342425227165222
1772791566007392500,15.817392578125,-0.023702112957835197,0.21864533424377441,-0.10892319679260254
1772791566027494100,15.837494140625,0.0029294746927917004,0.11664635688066483,-0.015712637454271317
1772791566047596000,15.857595947265626,-0.015446321107447147,0.06924212723970413,0.023435797542333603
1772791566067697700,15.87769775390625,-0.06791055202484131,0.1315600425004959,-0.04633896425366402
1772791566087799300,15.89779931640625,-0.1225053071975708,0.1771000623703003,-0.0846884474158287
1772791566107901200,15.917901123046875,-0.12996214628219604,-0.03435475006699562,-0.009587371721863747
1772791566128002800,15.9380029296875,-0.06045370548963547,-0.31265485286712646,0.09773793071508408
1772791566148104200,15.958104248046874,0.032756853848695755,-0.7137265801429749,0.22503691911697388
1772791566168205000,15.978205078125,0.06578002125024796,-1.3278509378433228,0.40213698148727417
1772791566188306000,15.998305908203125,0.011451583355665207,-2.0429091453552246,0.6263749599456787
1772791566208407000,16.018406982421876,-0.05752423033118248,-2.7361292839050293,0.9246487617492676
1772791566228508000,16.0385078125,-0.06178528442978859,-3.3782169818878174,1.1653982400894165
1772791566248608800,16.05860888671875,-0.2173137664794922,-3.8562538623809814,1.2910994291305542
1772791566268710000,16.0787099609375,-0.26338639855384827,-4.036816120147705,1.2370373010635376
1772791566288810800,16.098810791015627,0.1531316339969635,-3.8120455741882324,1.024250864982605
1772791566308911600,16.11891162109375,0.5571328401565552,-2.467949151992798,1.0474203824996948
1772791566329012700,16.1390126953125,1.4250563383102417,-1.3693962097167969,0.5318328142166138
1772791566349113600,16.159113525390627,1.9651448726654053,-0.19893796741962433,-0.18482321500778198
1772791566369214500,16.17921435546875,2.3214755058288574,-0.4538022577762604,-0.8506129384040833
1772791566389315600,16.199315673828124,2.5214786529541016,-1.3571457862854004,-1.2876372337341309
1772791566409416400,16.21941650390625,2.159022808074951,-2.601639747619629,-1.8450363874435425
1772791566429517300,16.239517333984374,1.0836392641067505,-3.487672805786133,-2.4258713722229004
1772791566449618400,16.259618408203124,0.6008086204528809,-2.662626266479492,-2.8730156421661377
1772791566469719300,16.27971923828125,0.5384907126426697,-1.725993275642395,-3.2256178855895996
1772791566489820200,16.299820068359374,0.27590325474739075,-0.8396939635276794,-3.5459959506988525
1772791566509921300,16.31992138671875,0.24208113551139832,-0.10945582389831543,-4.602470874786377
1772791566550123000,16.360123046875,0.7728486657142639,0.13262531161308289,-1.810149073600769
1772791566570224000,16.38022412109375,-0.17097479104995728,0.7105307579040527,-0.6828339099884033
1772791566590325000,16.400324951171875,-0.9456877112388611,0.30413272976875305,-0.43915489315986633
1772791566610425900,16.42042578125,-1.296425700187683,-0.13289162516593933,-0.18881796300411224
1772791566630527000,16.44052685546875,-1.718536376953125,-0.7984150052070618,0.09480845183134079
1772791566650627600,16.460627685546875,-1.9235996007919312,-1.6010910272598267,0.2972085177898407
1772791566670728000,16.48072802734375,-1.8474332094192505,-2.5382566452026367,0.09480845183134079
1772791566690828300,16.500828369140624,-1.6327826976776123,-3.182741165161133,-0.22983060777187347
1772791566710929000,16.520928955078126,-1.4450299739837646,-2.6700830459594727,-0.2215748131275177
1772791566731029200,16.541029296875,-1.0852372646331787,-1.602156400680542,-0.08255792409181595
1772791566751129900,16.5611298828125,-0.2047969102859497,-1.1438267230987549,-0.2910832464694977
1772791566771230200,16.581230224609374,0.8175897598266602,-1.3888373374938965,-0.9520792961120605
1772791566791330600,16.60133056640625,1.4122731685638428,-1.6114773750305176,-1.8010942935943604
1772791566811431200,16.62143115234375,1.951562762260437,-1.567801594734192,-2.352368116378784
1772791566831531500,16.641531494140626,2.8615641593933105,-1.6157383918762207,-2.4801998138427734
1772791566851632000,16.661632080078125,3.8658413887023926,-2.2647502422332764,-2.095107078552246
1772791566871732500,16.681732421875,3.2905991077423096,-2.1949753761291504,-1.3872394561767578
1772791566891833000,16.7018330078125,0.9773792624473572,-1.3883047103881836,-0.43276330828666687
1772791566911933400,16.721933349609376,-2.0279953479766846,0.01784316450357437,0.8953539729118347
1772791566932033800,16.74203369140625,-5.637374401092529,1.4338446855545044,3.287137031555176
1772791566952134400,16.762134521484374,-7.447790145874023,2.6815345287323,4.04320764541626
1772791566972234800,16.78223486328125,-7.878422737121582,5.3630690574646,2.108156442642212
1772791566992335400,16.80233544921875,-9.456344604492188,7.049381256103516,2.4319965839385986
1772791567012435700,16.822435791015625,-11.320821762084961,5.6219282150268555,5.375319957733154
1772791567032536000,16.8425361328125,-12.030553817749023,3.774761199951172,6.923946380615234
1772791567052636700,16.86263671875,-10.9951171875,3.1939263343811035,6.313284397125244
1772791567072737000,16.882737060546877,-9.48617172241211,3.216296911239624,4.1982035636901855
1772791567092837600,16.902837646484375,-7.312235355377197,2.809366226196289,1.5504910945892334
1772791567112938000,16.92293798828125,-3.75691819190979,1.8767280578613281,-0.37870118021965027
1772791567133038300,16.943038330078124,-0.5571328401565552,1.1387667655944824,-1.0772477388381958
1772791567153139500,16.963139404296875,0.9507476687431335,1.0149297714233398,-1.3113393783569336
1772791567173240600,16.983240478515626,1.2466245889663696,0.8074697256088257,-1.38857102394104
1772791567193341700,17.003341796875,1.1733877658843994,-0.17337164282798767,-1.2317109107971191
1772791567213443000,17.023443115234375,1.6189342737197876,-1.083905577659607,-0.7664570808410645
1772791567233544200,17.043544189453126,2.463155508041382,-1.3275846242904663,-0.22663481533527374
1772791567253645300,17.063645263671877,3.1782138347625732,-1.3691298961639404,-0.52837073802948
1772791567273746400,17.083746337890624,3.693002223968506,-1.9899122714996338,-1.5164026021957397
1772791567293847600,17.10384765625,3.6266896724700928,-3.087399959564209,-2.281794548034668
1772791567313949000,17.123948974609377,3.4160337448120117,-3.6820833683013916,-2.3108229637145996
1772791567334050000,17.144050048828124,4.12310266494751,-3.595797061920166,-1.9608838558197021
1772791567354151200,17.164151123046874,4.325502395629883,-3.461041212081909,-1.4924341440200806
1772791567374252300,17.184252197265625,3.768369674682617,-3.4605085849761963,-0.8772445321083069
1772791567394353700,17.204353759765624,3.0072388648986816,-3.63814115524292,-0.5888243913650513
1772791567414454800,17.224454833984375,3.1963231563568115,-4.446676254272461,-0.663126528263092
1772791567434556000,17.244555908203125,3.0322725772857666,-2.0173428058624268,-1.3326447010040283
1772791567454657000,17.264656982421876,1.2780499458312988,2.2863218784332275,-3.8533244132995605
1772791567474758100,17.284758056640626,0.13342425227165222,2.448241949081421,-5.489569187164307
1772791567494859300,17.304859375,-1.1113362312316895,0.24048323929309845,-1.9129469394683838
1772791567514960600,17.324960693359376,-1.9294586181640625,-1.1166625022888184,4.065311908721924
1772791567535061800,17.345061767578127,-1.1741867065429688,-1.5632742643356323,5.0741167068481445
1772791567555163000,17.365162841796874,0.6431528329849243,-0.5083970427513123,0.7952192425727844
1772791567575264000,17.385263916015624,1.5440994501113892,-0.06711160391569138,-2.7140252590179443
1772791567595365400,17.405365478515623,1.686312198638916,-0.6609960198402405,-3.6653053760528564
1772791567615466500,17.425466552734374,1.396294116973877,-2.328932285308838,-3.5595781803131104
1772791567635567600,17.445567626953125,1.4522205591201782,-3.8104476928710938,-3.494330644607544
1772791567655668700,17.465668701171875,1.7835174798965454,-3.807518243789673,-4.012847900390625
1772791567675769900,17.485769775390626,2.0511648654937744,-3.08207368850708,-4.356128692626953
1772791567695871000,17.50587109375,2.1747355461120605,-2.678072452545166,-3.1987199783325195
1772791567715972000,17.52597216796875,1.6769911050796509,-2.7244114875793457,-1.2506194114685059
1772791567736073200,17.5460732421875,0.7597991824150085,-3.2314767837524414,0.7832350134849548
1772791567776275500,17.586275390625,0.8045402765274048,-4.038147926330566,3.5547842979431152
1772791567796376600,17.60637646484375,1.9989670515060425,-3.995537281036377,3.079144239425659
1772791567816477700,17.626477783203125,3.300452709197998,-3.932420253753662,1.8602163791656494
1772791567836579000,17.6465791015625,4.2501349449157715,-3.820034980773926,0.8535423874855042
1772791567856680200,17.66668017578125,4.920452117919922,-3.783017158508301,0.6961497068405151
1772791567876781300,17.68678125,4.532430171966553,-3.7715654373168945,0.9699224233627319
1772791567896882400,17.70688232421875,2.365417718887329,-4.01630973815918,0.6103960275650024
1772791567916983600,17.726983642578126,0.24208113551139832,-4.284756183624268,-0.11265161633491516
1772791567937084700,17.747084716796873,-0.8868318796157837,-3.686610698699951,0.066046342253685
1772791567957185800,17.767185791015624,-1.0154623985290527,-3.304713726043701,0.2942790389060974
1772791567977287000,17.787286865234375,0.034621063619852066,-3.5984601974487305,0.027963167056441307
1772791567997388000,17.807387939453125,1.6937689781188965,-4.63362979888916,0.2881537973880768
1772791568017489200,17.8274892578125,1.8871142864227295,-4.27783203125,-0.003728422336280346
1772791568037590300,17.84759033203125,0.530767560005188,-2.496711492538452,-0.669784426689148
1772791568057691400,17.86769140625,-1.1289130449295044,1.5193320512771606,0.1086568832397461
1772791568077792500,17.88779248046875,-2.5023040771484375,5.1173930168151855,2.342780828475952
1772791568097893600,17.9078935546875,-3.1449241638183594,5.6281867027282715,4.7441511154174805
1772791568117994800,17.927994873046874,-3.2487874031066895,3.5719616413116455,6.704768657684326
1772791568138095900,17.948095947265625,-2.5553009510040283,1.7607474327087402,6.579333782196045
1772791568158197500,17.968197509765623,-1.4346436262130737,1.1849725246429443,5.227514266967773
1772791568178299400,17.98829931640625,-0.8609992265701294,1.8162742853164673,3.873298168182373
1772791568198400800,18.00840087890625,-0.6934865713119507,1.9805911779403687,3.2447926998138428
1772791568218502400,18.02850244140625,-1.219460368156433,1.135304570198059,3.384608507156372
1772791568238604300,18.048604248046875,-2.787794589996338,-0.5193159580230713,5.466666221618652
1772791568258705700,18.06870556640625,-4.32789945602417,-3.4330780506134033,7.087730884552002
1772791568278807600,18.0888076171875,-4.982769966125488,-3.6306843757629395,5.714872360229492
1772791568298909200,18.1089091796875,-4.934566974639893,-2.7355966567993164,4.355862617492676
1772791568319010600,18.129010498046874,-3.9987330436706543,-1.9720691442489624,3.436540126800537
1772791568339112400,18.149112548828125,-2.9885969161987305,-1.2772510051727295,3.0357346534729004
1772791568359214000,18.169214111328124,-2.2325260639190674,-0.6841654777526855,2.8447861671447754
1772791568379315500,18.1893154296875,-2.0357186794281006,-0.27297377586364746,2.4362576007843018
1772791568399417300,18.209417236328125,-2.140380620956421,-0.37444013357162476,2.038914442062378
1772791568419519000,18.22951904296875,-2.0058913230895996,-1.0655298233032227,1.9214690923690796
1772791568439620600,18.24962060546875,-1.262869954109192,-2.175001859664917,1.9811238050460815
1772791568459722200,18.26972216796875,-0.01012000348418951,-3.005640983581543,1.7579511404037476
1772791568479824000,18.289823974609376,1.121189832687378,-3.153712749481201,1.319595217704773
1772791568499925500,18.309925537109375,1.9883143901824951,-2.4258713722229004,0.8772445321083069
1772791568520027100,18.330027099609374,2.760364055633545,-0.872983455657959,0.2269011288881302
1772791568540128800,18.350128662109373,3.109504222869873,0.4809664785861969,-0.4684496223926544
1772791568560230400,18.37023046875,3.6093790531158447,0.9765803217887878,-0.8420908451080322
1772791568580332000,18.39033203125,4.059985637664795,1.121189832687378,-1.6271899938583374
1772791568600433700,18.41043359375,4.393679618835449,1.4990921020507812,-2.6770071983337402
1772791568620535300,18.430535400390625,5.157207012176514,2.0967049598693848,-3.3079094886779785
1772791568640637000,18.450636962890623,6.022733688354492,2.577138900756836,-3.4557149410247803
1772791568660739300,18.4707392578125,6.358025550842285,2.8197524547576904,-3.4408011436462402
1772791568680841700,18.490841796875,6.293576717376709,2.7486462593078613,-3.254379987716675
1772791568700944000,18.51094384765625,5.951627254486084,2.5513062477111816,-2.9582366943359375
1772791568721046300,18.53104638671875,5.258939743041992,2.2045629024505615,-2.787261962890625
1772791568741148700,18.551148681640626,4.291946887969971,1.9385132789611816,-2.6101620197296143
1772791568761250800,18.571250732421873,3.209639072418213,1.827725887298584,-2.1813933849334717
1772791568781353200,18.591353271484376,2.1454408168792725,1.7419722080230713,-1.6484953165054321
1772791568801455600,18.61145556640625,1.2908331155776978,1.5813837051391602,-1.1590067148208618
1772791568821558000,18.63155810546875,0.7281076312065125,1.3483573198318481,-0.6378265619277954
1772791568841660200,18.65166015625,0.43675804138183594,0.95847088098526,-0.10253161191940308
1772791568861762600,18.671762451171876,0.34967276453971863,0.36112433671951294,0.31851378083229065
1772791568881865000,18.691864990234375,0.5046685934066772,-0.38456013798713684,0.6354296803474426
1772791568901967400,18.71196728515625,0.8719182014465332,-0.996820330619812,0.948617160320282
1772791568922069500,18.732069580078125,1.2652667760849,-1.3603415489196777,1.1416962146759033
1772791568942172000,18.752171875,1.5486268997192383,-1.932121753692627,0.6500770449638367
1772791568962274300,18.7722744140625,1.6780563592910767,-2.7760767936706543,-0.8442213535308838
1772791568982376700,18.792376708984374,1.9057564735412598,-2.547311305999756,-2.4431819915771484
1772791569002478800,18.812478759765625,2.3417155742645264,-2.098036527633667,-3.160104274749756
1772791569022581200,18.832581298828124,2.2583587169647217,-2.182724952697754,-3.920968770980835
1772791569042683600,18.85268359375,1.577122688293457,-1.6652731895446777,-4.021369934082031
1772791569062786000,18.8727861328125,0.7337002754211426,-0.5099949240684509,-3.511641263961792
1772791569082888200,18.89288818359375,0.29214853048324585,1.0796445608139038,-2.462090253829956
1772791569102990600,18.912990478515624,0.21598218381404877,2.16434907913208,-1.4050825834274292
1772791569123093000,18.933093017578123,-0.017576847225427628,2.7361292839050293,-0.7110633850097656
1772791569143195000,18.95319482421875,0.018642112612724304,2.9033756256103516,0.5366265177726746
1772791569163296300,18.973296142578125,-0.17097479104995728,2.7558367252349854,2.830671548843384
1772791569183397400,18.9933974609375,-1.0575404167175293,2.1694092750549316,5.285305023193359
1772791569203498800,19.013498779296874,-2.383793354034424,1.0740519762039185,6.985998153686523
1772791569223600000,19.03360009765625,-3.8426718711853027,-0.37870118021965027,7.497324466705322
1772791569243701200,19.053701171875,-5.164131164550781,-1.5358437299728394,6.950045585632324
1772791569263802600,19.073802734375,-5.831785202026367,-2.420278787612915,5.936713695526123
1772791569283904000,19.093904052734374,-5.438170433044434,-3.2152316570281982,5.452018737792969
1772791569304005000,19.114005126953124,-5.074382781982422,-3.7590487003326416,5.360938549041748
1772791569324106500,19.1341064453125,-5.563072204589844,-3.886347770690918,4.827241897583008
1772791569344208000,19.154207763671874,-6.16707706451416,-3.5638391971588135,3.8408076763153076
1772791569364309000,19.17430908203125,-6.213682174682617,-2.999782085418701,3.0274789333343506
1772791569384410400,19.194410400390623,-6.022467136383057,-2.1161460876464844,3.7489285469055176
1772791569404511700,19.21451171875,-5.255211353302002,-1.9150774478912354,4.755868911743164
1772791569424612900,19.23461279296875,-3.3443949222564697,-2.9553072452545166,4.525505542755127
1772791569444714200,19.25471435546875,-1.9302575588226318,-3.7230961322784424,3.687675952911377
1772791569464815600,19.274815673828126,-0.9254477024078369,-3.5167012214660645,2.781935691833496
1772791569484916700,19.294916748046877,0.4977443814277649,-2.598310947418213,1.55448579788208
1772791569505018000,19.31501806640625,1.6445006132125854,-1.157275676727295,-1.2620710134506226
1772791569525119500,19.335119384765626,2.1337227821350098,0.8030755519866943,-3.5992591381073
1772791569545220600,19.355220703125,2.9545083045959473,2.191380262374878,-3.338003158569336
1772791569565322000,19.375322021484376,3.8282907009124756,2.4190802574157715,-2.071138620376587
1772791569585423400,19.39542333984375,4.4714436531066895,1.5032199621200562,-1.2178624868392944
1772791569605524500,19.4155244140625,4.782234191894531,0.6819018125534058,-0.6093307137489319
1772791569625625900,19.4356259765625,4.892755508422852,0.3452785313129425,-0.15286532044410706
1772791569645727200,19.455727294921875,4.786495208740234,0.5383575558662415,0.0282294824719429
1772791569665829000,19.4758291015625,4.524706840515137,1.0898977518081665,0.06418212503194809
1772791569685930800,19.4959306640625,4.287153244018555,1.6369105577468872,-0.09108003228902817
1772791569706032600,19.51603271484375,4.1934099197387695,1.9756643772125244,-0.45007383823394775
1772791569726134300,19.53613427734375,4.157989978790283,1.9738001823425293,-1.044490933418274
1772791569746236200,19.556236083984373,3.828024387359619,1.9492990970611572,-1.7158732414245605
1772791569766338000,19.576338134765624,3.3752875328063965,1.988847017288208,-2.0612850189208984
1772791569786439700,19.596439697265627,2.9915263652801514,2.014413356781006,-2.090846061706543
1772791569806541600,19.61654150390625,2.626673460006714,1.9054901599884033,-1.8815217018127441
1772791569826643200,19.636643310546877,2.271674394607544,1.5901721715927124,-1.4554163217544556
1772791569846745000,19.6567451171875,1.8588848114013672,1.0420939922332764,-0.9326382279396057
1772791569866846700,19.6768466796875,1.3771194219589233,0.3824295997619629,-0.39228329062461853
1772791569886948600,19.696948486328125,0.9653950929641724,-0.33768853545188904,0.1536642611026764
1772791569927152000,19.737152099609375,1.5044183731079102,-1.3385035991668701,1.492700457572937
1772791569947254000,19.75725390625,1.810681700706482,-1.7041553258895874,1.6389079093933105
1772791569967355600,19.777355712890625,1.753423810005188,-1.719069004058838,0.8101329207420349
1772791569987457500,19.79745751953125,1.7177374362945557,-0.9431576728820801,0.08016107976436615
1772791570007559200,19.81755908203125,1.3347752094268799,-0.941293478012085,-0.8663255572319031
1772791570027661000,19.8376611328125,0.3542001247406006,-1.30561363697052,-2.790724039077759
1772791570047762700,19.8577626953125,-0.62477707862854,-1.3807146549224854,-4.001396179199219
1772791570067864600,19.877864501953123,-1.421327829360962,-0.4406196177005768,-3.7350802421569824
1772791570087966500,19.897966552734374,-2.103362798690796,0.8376966118812561,-2.2655491828918457
1772791570108068000,19.918068115234377,-3.1531801223754883,1.9245316982269287,-0.3217095732688904
1772791570128170000,19.938169921875,-4.779837608337402,2.158090829849243,1.4269205331802368
1772791570148270800,19.958270751953126,-5.7710652351379395,1.3596757650375366,2.393913507461548
1772791570168371000,19.978370849609377,-6.36521577835083,0.12330425530672073,2.620281934738159
1772791570188471000,19.998470947265623,-6.6983771324157715,-0.6788392066955566,2.4242734909057617
1772791570208571100,20.018571044921874,-6.760162353515625,-0.8972182273864746,2.2487711906433105
1772791570228671200,20.038671142578124,-6.446974754333496,-0.7656581401824951,2.303898572921753
1772791570268871400,20.078871337890625,-6.368411540985107,-0.554469645023346,1.7994964122772217
1772791570288971500,20.098971435546876,-6.445643424987793,-0.6524739265441895,1.2050793170928955
1772791570309071600,20.119071533203126,-5.866139888763428,-0.1555284708738327,1.3901689052581787
1772791570329171700,20.139171630859376,-4.898614406585693,0.6119939088821411,2.190448045730591
1772791570349271800,20.159271728515623,-4.087682247161865,1.3502215147018433,3.2477221488952637
1772791570369372000,20.179371826171874,-3.2589075565338135,1.5161362886428833,3.6147055625915527
1772791570389472000,20.199471923828124,-2.200035572052002,1.334242582321167,2.6061673164367676
1772791570409572000,20.219572021484375,-0.8183887004852295,0.9930919408798218,0.630103349685669
1772791570429672200,20.239672119140625,0.16484953463077545,0.3661843240261078,-0.658332884311676
1772791570449772300,20.259772216796875,0.5374254584312439,-0.6918886303901672,-0.6032054424285889
1772791570469872400,20.279872314453126,0.2537990212440491,-1.5291857719421387,0.8186550140380859
1772791570489972500,20.299972412109376,0.06737791746854782,-1.6429026126861572,2.140913486480713
1772791570510072600,20.320072509765627,1.1132004261016846,-1.5339794158935547,1.4223930835723877
1772791570530172700,20.340172607421874,3.5060486793518066,0.21651481091976166,0.18722006678581238
1772791570550272800,20.360272705078124,4.255461692810059,3.3491885662078857,-1.4426331520080566
1772791570570372900,20.380372802734374,2.0149459838867188,5.132173538208008,-3.4629054069519043
1772791570590473000,20.400472900390625,-0.49508121609687805,4.291946887969971,-4.564121723175049
1772791570610573000,20.420572998046875,-0.937698245048523,1.5499584674835205,-2.8336009979248047
1772791570630673200,20.440673095703126,-0.11744530498981476,0.0684431791305542,-0.587492823600769
1772791570650773800,20.460773681640624,0.6050696969032288,0.4703138470649719,-0.2143842875957489
1772791570690975200,20.500975341796874,2.2282650470733643,2.135586977005005,-2.162484884262085
1772791570711075800,20.521075927734376,2.6575660705566406,1.9592859745025635,-2.655968189239502
1772791570731176700,20.5411767578125,2.6245429515838623,1.3382372856140137,-2.7880609035491943
1772791570751277600,20.561277587890626,2.460758686065674,0.7342329025268555,-2.806436777114868
1772791570791479000,20.60147900390625,2.3315954208374023,0.28549063205718994,-2.8644936084747314
1772791570811580000,20.621579833984374,2.4192135334014893,0.5787044167518616,-3.0040431022644043
1772791570831680500,20.641680419921876,2.78539776802063,0.8298403024673462,-3.2439937591552734
1772791570851781400,20.661781494140627,3.4242897033691406,0.497211754322052,-3.5723612308502197
1772791570891982800,20.70198291015625,3.7380096912384033,-4.527369976043701,-3.5127065181732178
1772791570912083700,20.722083740234375,1.4668679237365723,-4.038547039031982,-4.072768688201904
1772791570932184300,20.742184326171873,-1.3800488710403442,1.2800472974777222,-5.9961018562316895
1772791570952285200,20.76228515625,-2.490586042404175,6.126463890075684,-5.86587381362915
1772791570972385800,20.7823857421875,-1.8788585662841797,7.034600734710693,-3.60298752784729
1772791570992486700,20.802486572265625,-1.5805847644805908,6.9951863288879395,-1.914278507232666
1772791571012587500,20.82258740234375,-1.4945647716522217,7.1587042808532715,-1.3094751834869385
1772791571032688000,20.842688232421875,-1.9587533473968506,6.380528926849365,0.16911058127880096
1772791571052789000,20.8627890625,-3.6498591899871826,6.8830671310424805,1.9419753551483154
1772791571072889600,20.8828896484375,-5.271989345550537,7.909448623657227,2.2410480976104736
1772791571092990500,20.902990478515626,-5.848563194274902,8.560590744018555,3.4320127964019775
1772791571113091000,20.923091064453125,-6.8893256187438965,7.969635963439941,4.197670936584473
1772791571133192000,20.94319189453125,-7.794799327850342,6.3693437576293945,5.133504867553711
1772791571153293800,20.9632939453125,-7.793201446533203,5.379714012145996,5.582247257232666
1772791571173396200,20.983396240234374,-6.582263469696045,4.401402473449707,5.159071445465088
1772791571193498600,21.00349853515625,-4.499672889709473,2.8269431591033936,4.072768688201904
1772791571213600800,21.023600830078124,-2.7648913860321045,2.1030964851379395,2.6543703079223633
1772791571233703200,21.043703125,-1.675925850868225,1.2263846397399902,0.9158602952957153
1772791571253805600,21.0638056640625,-0.6266412734985352,0.1363537311553955,-0.5052012205123901
1772791571294010000,21.104010009765624,2.440518617630005,-0.4274369776248932,-1.1147983074188232
1772791571314112500,21.124112548828126,3.4855422973632812,-0.7677887082099915,-0.9890971779823303
1772791571334215000,21.14421484375,3.821366548538208,-1.3070783615112305,-1.4442310333251953
1772791571354317000,21.164317138671876,3.5244243144989014,-2.099900722503662,-1.9821890592575073
1772791571374419500,21.18441943359375,2.8943209648132324,-3.006173610687256,-1.9728680849075317
1772791571394521600,21.204521484375,2.3638198375701904,-3.556914806365967,-1.4391710758209229
1772791571414624000,21.2246240234375,1.9670090675354004,-3.6019222736358643,-0.7038728594779968
1772791571434726400,21.244726318359376,1.5542194843292236,-3.4463937282562256,-0.061518967151641846
1772791571454828800,21.264828857421875,1.0522140264511108,-3.250385284423828,0.6841654777526855
1772791571474931000,21.284930908203126,1.5741931200027466,-2.9039082527160645,1.708150029182434
1772791571495033300,21.305033447265625,2.0362513065338135,-2.001363754272461,3.255178928375244
1772791571515135700,21.3251357421875,1.9062891006469727,-1.0085382461547852,3.280212640762329
1772791571535238000,21.34523779296875,1.0620677471160889,-0.6780402064323425,-0.10998845845460892
1772791571555340300,21.36534033203125,-1.0578067302703857,0.4886896312236786,-0.7880287170410156
1772791571575442700,21.385442626953125,-3.209639072418213,1.4713952541351318,0.631434977054596
1772791571595544800,21.405544921875,-3.59100341796875,1.6202658414840698,0.2814958989620209
1772791571615647200,21.425647216796875,-3.519896984100342,2.6013734340667725,-1.5635405778884888
1772791571635749600,21.44574951171875,-4.289017200469971,3.789674997329712,-2.295642852783203
1772791571655850200,21.465850341796877,-4.912196636199951,3.7225635051727295,-1.2740551233291626
1772791571675951000,21.485951171875,-5.014461517333984,2.910832643508911,0.2527337670326233
1772791571696051700,21.5060517578125,-5.0413594245910645,1.946769118309021,1.3086762428283691
1772791571716152600,21.526152587890625,-4.734297275543213,1.2415646314620972,1.3600752353668213
1772791571736253200,21.546253173828124,-4.024299144744873,1.3435636758804321,0.9992172122001648
1772791571756354000,21.56635400390625,-3.0655620098114014,1.7579511404037476,0.5195822715759277
1772791571776454700,21.58645458984375,-2.121206045150757,1.4303826093673706,0.026098955422639847
1772791571796555300,21.60655517578125,-1.5462299585342407,0.03675159066915512,0.28602325916290283
1772791571816656100,21.62665625,-1.0926940441131592,-0.38695698976516724,1.2141340970993042
1772791571836756700,21.6467568359375,-0.37257590889930725,-0.13262531161308289,1.6058847904205322
1772791571856857600,21.666857666015623,0.633831799030304,-0.0045273699797689915,1.2293140888214111
1772791571876958200,21.686958251953126,1.3563467264175415,-0.18828532099723816,0.4540685713291168
1772791571897059000,21.70705908203125,1.8290574550628662,-0.5760412216186523,-0.11371687799692154
1772791571917159700,21.72715966796875,2.0173428058624268,-0.9986845254898071,-0.22770008444786072
1772791571937260300,21.74726025390625,2.127331256866455,-1.2314445972442627,-0.08495476841926575
1772791571957361200,21.767361083984376,2.310556650161743,-1.1526151895523071,0.07643266022205353
1772791571977461800,21.787461669921875,2.641587257385254,-0.6554033756256104,0.4159854054450989
1772791571997562600,21.807562744140625,3.7763590812683105,0.1765674352645874,0.5621927976608276
1772791572017663200,21.827663330078124,6.707697868347168,0.07430212944746017,0.3435474932193756
1772791572037763800,21.847763916015627,8.839822769165039,-3.22934627532959,0.727841317653656
1772791572057864700,21.86786474609375,6.23818302154541,-5.736710548400879,-1.190698266029358
1772791572077965300,21.88796533203125,4.60300350189209,-2.058089017868042,-4.7071332931518555
1772791572098066200,21.908066162109375,2.649310350418091,2.73533034324646,-6.143640995025635
1772791572118166800,21.928166748046873,0.7211834192276001,2.6815345287323,-3.150516986846924
1772791572138267400,21.948267333984376,0.06338317692279816,0.14966952800750732,1.3347752094268799
1772791572158368300,21.9683681640625,0.32703590393066406,-1.381646752357483,3.3622379302978516
1772791572178469000,21.98846923828125,0.5363602042198181,-1.1592730283737183,2.4218766689300537
1772791572198570000,22.008570068359376,0.5930854678153992,-0.09134634584188461,0.1880190074443817
1772791572218670800,22.0286708984375,0.4130559265613556,0.6303696632385254,-1.5158699750900269
1772791572238771700,22.048771728515625,0.1765674352645874,0.7510107755661011,-2.157691240310669
1772791572258872600,22.06887255859375,0.10173266381025314,0.4791022837162018,-2.09031343460083
1772791572278973400,22.088973388671874,0.10572740435600281,0.17736637592315674,-1.810149073600769
1772791572299074300,22.10907421875,0.17097479104995728,0.1302284598350525,-1.4884394407272339
1772791572319175200,22.129175048828124,-0.011451583355665207,0.19121479988098145,-1.121189832687378
1772791572339276000,22.149276123046874,-0.45060646533966064,0.22077587246894836,-0.7547392249107361
1772791572359377000,22.169376953125,-0.8916255831718445,0.3512706458568573,-0.45540016889572144
1772791572379477800,22.189477783203124,-1.1038793325424194,0.666854977607727,-0.3331611752510071
1772791572399578600,22.20957861328125,-1.1640666723251343,0.9904287457466125,-0.3243727385997772
1772791572419679500,22.229679443359377,-1.170724630355835,1.217063546180725,-0.2719085216522217
1772791572439780400,22.2497802734375,-1.121189832687378,1.3976256847381592,0.051132649183273315
1772791572459881200,22.269881103515626,-1.0309088230133057,1.6503595113754272,0.5829654932022095
1772791572479982000,22.289982177734377,-0.8849676847457886,1.9699385166168213,1.168327808380127
1772791572500082700,22.310082763671875,-0.8583360910415649,2.066877603530884,1.641038417816162
1772791572520183600,22.33018359375,-0.8788424134254456,2.312953472137451,2.3353240489959717
1772791572540284400,22.350284423828125,-0.46791699528694153,2.7768757343292236,2.903109312057495
1772791572560385300,22.37038525390625,0.9928256273269653,1.182442545890808,2.3925819396972656
1772791572580486100,22.390486083984374,-0.47350963950157166,-0.10918951034545898,0.6175865530967712
1772791572600587000,22.4105869140625,-2.5454471111297607,2.0469038486480713,-2.296708106994629
1772791572620688000,22.43068798828125,-3.0059072971343994,4.48262882232666,-2.731868267059326
1772791572640789000,22.4507890625,-3.922300338745117,5.047484874725342,-0.1880190074443817
1772791572660890600,22.470890625,-4.786229133605957,4.477835178375244,2.140380620956421
1772791572680992300,22.4909921875,-4.451469898223877,3.6045854091644287,2.291914463043213
1772791572701094000,22.511093994140627,-4.003260135650635,3.6618432998657227,1.5984278917312622
1772791572721195500,22.531195556640625,-3.473025321960449,3.5430665016174316,0.8625971674919128
1772791572741297200,22.551297119140624,-2.825345277786255,3.0250821113586426,0.660729706287384
1772791572761398800,22.571398681640623,-2.130793333053589,2.09856915473938,0.623445451259613
1772791572781500700,22.591500732421874,-1.5779216289520264,1.3986910581588745,0.3446127474308014
1772791572801602300,22.611602294921877,-1.0479530096054077,1.1438267230987549,-0.1771000623703003
1772791572821704000,22.631703857421876,-0.536892831325531,1.284175157546997,-0.7731149792671204
1772791572841805600,22.6518056640625,-0.1225053071975708,1.5020215511322021,-1.1936278343200684
1772791572861907200,22.6719072265625,0.23435798287391663,1.3225246667861938,-1.2652667760849
1772791572882008800,22.6920087890625,0.4580633044242859,0.5259738564491272,-1.0351698398590088
1772791572902110500,22.7121103515625,0.7677887082099915,-0.4090611934661865,-0.6223801970481873
1772791572922212400,22.73221240234375,1.3004204034805298,-1.0426266193389893,-0.11265161633491516
1772791572942314000,22.75231396484375,1.6194669008255005,-1.5480942726135254,0.22130849957466125
1772791572962415600,22.77241552734375,1.2767183780670166,-2.1896491050720215,0.20506322383880615
1772791572982517200,22.792517333984375,0.9712539911270142,-2.720416784286499,0.021837901324033737
1772791573002619000,22.812618896484373,1.1438267230987549,-2.867689371109009,-0.1723063737154007
1772791573022720500,22.832720458984376,1.5214626789093018,-2.896451473236084,-0.3416832685470581
1772791573042822100,22.852822265625,1.782718539237976,-2.9348011016845703,-0.03728422522544861
1772791573062923800,22.872923828125,1.999233365058899,-2.961965322494507,0.6279728412628174
1772791573083025700,22.893025634765625,3.429349660873413,-4.445877552032471,1.185904622077942
1772791573103127300,22.913127197265624,5.1529459953308105,-7.935147762298584,1.4170668125152588
1772791573123229000,22.93322900390625,5.899163246154785,-7.323420524597168,0.6809697151184082
1772791573143330300,22.953330322265625,5.221389293670654,-3.2005841732025146,-2.929208278656006
1772791573163431200,22.97343115234375,3.21736216545105,-0.24634219706058502,-4.899413108825684
1772791573183532000,22.993531982421874,2.154229164123535,-0.12357056885957718,-3.28314208984375
1772791573203633000,23.0136328125,2.0338544845581055,-1.3001540899276733,-1.2141340970993042
1772791573223733800,23.033733642578124,2.573676586151123,-2.1478376388549805,-1.04928457736969
1772791573243834600,23.053834716796874,2.6794040203094482,-1.689241647720337,-1.7568858861923218
1772791573263935500,23.073935546875,2.000298500061035,-0.6418212652206421,-1.70095956325531
1772791573284036400,23.094036376953124,1.7169384956359863,-0.6250433921813965,-0.8173234462738037
1772791573304137200,23.11413720703125,1.559279441833496,-0.8910929560661316,-0.02263684943318367
1772791573324238000,23.134238037109377,1.1645992994308472,-1.1313098669052124,0.20639480650424957
1772791573344339000,23.1543388671875,0.8588687181472778,-0.9677919149398804,-0.13235899806022644
1772791573364439800,23.174439697265626,0.709465503692627,-0.639957070350647,-0.6412886381149292
1772791573384540700,23.194540771484377,0.4263717234134674,-0.24820640683174133,-1.0134650468826294
1772791573404641500,23.2146416015625,0.14620742201805115,-0.02689790353178978,-1.2504862546920776
1772791573424742400,23.234742431640626,0.012783162295818329,0.15686005353927612,-1.297624111175537
1772791573464944000,23.274944091796876,-0.054861072450876236,0.7187865376472473,-0.6347638964653015
1772791573485045000,23.295044921875,-0.17763268947601318,0.9803087711334229,-0.13675320148468018
1772791573505145900,23.315145751953125,-0.009853687137365341,1.2644678354263306,0.46698489785194397
1772791573525246700,23.335246826171876,0.46338963508605957,1.6687352657318115,1.2363715171813965
1772791573545347600,23.35534765625,0.7978823781013489,1.9465028047561646,2.088315963745117
1772791573565448400,23.375448486328125,0.6974812746047974,1.8817880153656006,2.9120309352874756
1772791573585549300,23.39554931640625,0.3057306408882141,1.9121479988098145,3.650524854660034
1772791573605650200,23.415650146484374,0.0023968429304659367,2.0596871376037598,4.051863193511963
1772791573625751000,23.4357509765625,0.07190528512001038,2.494314432144165,4.087549209594727
1772791573645852200,23.45585205078125,0.5771065354347229,3.9875476360321045,3.66650390625
1772791573665953500,23.47595361328125,1.678855299949646,2.423208236694336,1.967941164970398
1772791573686054700,23.4960546875,0.7922897338867188,-0.8604665994644165,0.7125281691551208
1772791573706156000,23.516156005859376,-1.2988225221633911,0.29587695002555847,0.5844302177429199
1772791573726257400,23.53625732421875,-2.8336009979248047,3.5795516967773438,0.1375521570444107
1772791573746358800,23.55635888671875,-4.306860446929932,5.36972713470459,1.5950989723205566
1772791573766460000,23.5764599609375,-4.916191101074219,5.535375595092773,3.455315351486206
1772791573786561300,23.596561279296875,-4.548941612243652,3.965709686279297,3.8284239768981934
1772791573806662700,23.61666259765625,-4.418447017669678,3.064230442047119,2.6523730754852295
1772791573826764000,23.636763916015624,-3.938279151916504,3.7763590812683105,1.2997546195983887
1772791573846865200,23.656865234375,-3.0035104751586914,3.5686328411102295,0.6528733968734741
1772791573866966500,23.676966552734374,-2.613091468811035,2.48419451713562,0.2270342856645584
1772791573887068000,23.69706787109375,-2.4181482791900635,1.4413015842437744,-0.3548659086227417
1772791573907169300,23.717169189453124,-1.9582207202911377,0.9627318978309631,-1.2403662204742432
1772791573927270400,23.7372705078125,-1.3752552270889282,0.8708529472351074,-2.137850761413574
1772791573947371800,23.757371826171877,-0.8737823963165283,0.8343676328659058,-2.643850803375244
1772791573967473200,23.77747314453125,-0.5230444073677063,0.5145222544670105,-2.6284046173095703
1772791573987574500,23.797574462890626,-0.23196113109588623,0.164583221077919,-2.32800030708313
1772791574007676000,23.817676025390625,0.058589495718479156,-0.3289000988006592,-1.9298580884933472
1772791574027777000,23.837777099609376,0.31984537839889526,-0.8556729555130005,-1.6475632190704346
1772791574047878400,23.85787841796875,0.5938844084739685,-1.2460919618606567,-1.4355757236480713
1772791574067979800,23.877979736328125,0.960867702960968,-1.3110730648040771,-1.1527483463287354
1772791574088081200,23.8980810546875,1.2458256483078003,-1.3038825988769531,-0.7511439323425293
1772791574128283600,23.93828369140625,1.0127992630004883,-1.6745942831039429,-0.34847432374954224
1772791574148385000,23.958385009765625,1.1869698762893677,-1.9081532955169678,-0.5029375553131104
1772791574168486400,23.978486328125,1.7486300468444824,-2.3848586082458496,-0.7391597032546997
1772791574188587800,23.998587890625,2.008021831512451,-3.5603771209716797,-1.1519492864608765
1772791574208689200,24.018689208984377,1.7638100385665894,-3.709780216217041,-1.4358420372009277
1772791574228790500,24.03879052734375,1.5385068655014038,-3.851193904876709,-1.149286150932312
1772791574248892000,24.058891845703126,1.2996214628219604,-5.02138614654541,-1.358077883720398
1772791574268993300,24.0789931640625,1.3030836582183838,-6.379330635070801,-2.6941845417022705
1772791574289094700,24.0990947265625,1.304947853088379,-6.136184215545654,-4.7903571128845215
1772791574309196000,24.119196044921875,0.8732497692108154,-3.399522304534912,-6.0004963874816895
1772791574329297400,24.13929736328125,0.17363795638084412,-0.8873645067214966,-5.839641571044922
1772791574349398800,24.159398681640624,-0.36538538336753845,-0.27830010652542114,-5.075581073760986
1772791574369500200,24.179500244140623,-0.4263717234134674,-0.6865623593330383,-4.012714385986328
1772791574389601800,24.199601806640626,-0.12170635908842087,-1.6698005199432373,-3.007105827331543
1772791574409703200,24.219703125,0.1555284708738327,-2.6509082317352295,-2.2049622535705566
1772791574429804500,24.239804443359375,0.28549063205718994,-3.0237505435943604,-1.4126726388931274
1772791574449906000,24.259906005859374,0.300137996673584,-2.8466503620147705,-0.5157207250595093
1772791574470007300,24.28000732421875,0.09853687882423401,-2.5089619159698486,0.5647228360176086
1772791574490108700,24.300108642578124,-0.15153373777866364,-2.595248222351074,1.6558189392089844
1772791574510210000,24.3202099609375,-0.3150516748428345,-2.9366652965545654,2.0526297092437744
1772791574530311400,24.3403115234375,-0.6189181208610535,-2.5427839756011963,2.0861854553222656
1772791574550412800,24.360412841796876,-1.0117340087890625,-1.5907047986984253,1.8923075199127197
1772791574570514200,24.38051416015625,-1.2554130554199219,-0.480433851480484,1.5162694454193115
1772791574590615600,24.400615478515626,-1.336639404296875,0.6868286728858948,1.347691535949707
1772791574610717000,24.420717041015624,-1.500157356262207,1.7779247760772705,1.523992657661438
1772791574630818300,24.440818359375,-1.6855132579803467,2.390984058380127,1.7857811450958252
1772791574650919700,24.460919677734374,-1.5760574340820312,2.5017714500427246,1.8845843076705933
1772791574671021000,24.48102099609375,-1.2727235555648804,2.4074954986572266,1.7269253730773926
1772791574691122400,24.501122314453124,-1.0423603057861328,2.398174524307251,1.2661988735198975
1772791574711223800,24.521223876953126,-0.755271852016449,2.373673439025879,0.813195526599884
1772791574731325200,24.5413251953125,-0.3110569417476654,2.180860757827759,0.8209186792373657
1772791574751426600,24.561426513671876,0.047936856746673584,1.626923680305481,1.1540799140930176
1772791574771528000,24.58152783203125,0.5502086281776428,0.7078676223754883,1.260872483253479
1772791574791629300,24.60162939453125,1.3331773281097412,0.16618111729621887,0.9679250717163086
1772791574831832000,24.64183203125,2.8903262615203857,0.10120003670454025,-0.8598008155822754
1772791574851933400,24.661933349609374,3.4272191524505615,0.8926908373832703,-2.059021234512329
1772791574872034600,24.68203466796875,3.473557949066162,0.8474171161651611,-2.8350656032562256
1772791574892136000,24.702135986328123,2.6794040203094482,1.1001509428024292,-3.3732900619506836
1772791574912237600,24.722237548828126,1.168327808380127,0.612526535987854,-3.3381364345550537
1772791574932338700,24.742338623046876,-0.055926334112882614,0.6138581037521362,-1.9373148679733276
1772791574952440000,24.762440185546875,-0.16298532485961914,1.0740519762039185,-0.02809632569551468
1772791574972541400,24.78254150390625,0.016777900978922844,1.5459636449813843,1.0366345643997192
1772791574992642800,24.802642822265625,0.22477060556411743,1.644234299659729,1.4555494785308838
1772791575012744200,24.822744140625,0.35926011204719543,1.2311782836914062,1.6973642110824585
1772791575032845600,24.842845458984375,0.5640570521354675,2.123070240020752,1.9668759107589722
1772791575052947000,24.862947021484374,0.7568697333335876,4.332959175109863,2.3801982402801514
1772791575073048300,24.88304833984375,0.9696561098098755,2.801643133163452,1.3412998914718628
1772791575093149700,24.903149658203127,1.235439419746399,2.257826089859009,-0.03981422260403633
1772791575113251000,24.9232509765625,1.3736573457717896,4.48555850982666,-0.448076456785202
1772791575133352400,24.9433525390625,0.957139253616333,3.0964548587799072,-0.8198534250259399
1772791575153453800,24.963453857421875,0.3430148661136627,0.711862325668335,-0.33782169222831726
1772791575173555200,24.98355517578125,0.08655266463756561,-0.0636494979262352,0.21185427904129028
1772791575193656600,25.003656494140625,-0.3081274628639221,0.003462106455117464,0.747948169708252
1772791575213757700,25.0237578125,-0.6213149428367615,0.7057371139526367,1.4747241735458374
1772791575233859000,25.043859130859374,-0.3289000988006592,1.0061414241790771,2.0526297092437744
1772791575253960400,25.06396044921875,0.1957421749830246,1.0649971961975098,2.1117517948150635
1772791575274061800,25.084061767578124,0.2162484973669052,0.43329593539237976,1.6973642110824585
1772791575294163200,25.1041630859375,0.29081693291664124,-0.29268115758895874,1.3863073587417603
1772791575314264600,25.1242646484375,0.4087948799133301,-0.2617885172367096,1.2630031108856201
1772791575334366000,25.144365966796876,0.2900179922580719,0.21358533203601837,1.2779167890548706
1772791575354467000,25.164467041015627,0.026098955422639847,0.45912858843803406,1.4334452152252197
1772791575374568400,25.184568359375,0.0402136966586113,0.38109803199768066,1.3479578495025635
1772791575394669800,25.204669921875,0.2258358597755432,0.0684431791305542,1.112268328666687
1772791575414771200,25.224771240234375,0.3193127512931824,0.03169158846139908,0.9402282238006592
1772791575434872600,25.24487255859375,0.3235737979412079,0.15153373777866364,0.7583344578742981
1772791575454974000,25.264973876953125,0.24634219706058502,0.3944138288497925,0.8060050010681152
1772791575475075300,25.285075439453124,0.11185266822576523,0.4418180584907532,1.1503514051437378
1772791575515277800,25.32527783203125,0.2708432376384735,0.24660851061344147,1.2278493642807007
1772791575535379200,25.345379150390624,0.40506646037101746,0.41278961300849915,0.8486155271530151
1772791575555480600,25.36548046875,0.3896201252937317,0.5803022980690002,0.5833649635314941
1772791575575582000,25.38558203125,0.28921905159950256,0.5800359845161438,0.6803039312362671
1772791575595683300,25.405683349609376,0.260456919670105,0.5217128396034241,0.8099997639656067
1772791575615784700,25.42578466796875,0.26977798342704773,0.47590649127960205,0.7532744407653809
1772791575635886000,25.445885986328125,0.2966758906841278,0.48602649569511414,0.6321007609367371
1772791575655987700,25.46598779296875,0.27537062764167786,0.3387537896633148,0.5348954200744629
1772791575676089600,25.486089599609375,0.24714113771915436,0.30466535687446594,0.4688491225242615
1772791575696191500,25.50619140625,0.3494064211845398,0.5046685934066772,0.30000483989715576
1772791575716293000,25.526293212890625,0.4846948981285095,0.5760412216186523,0.12769846618175507
1772791575736395000,25.54639501953125,0.4846948981285095,0.5741770267486572,0.11811109632253647
1772791575756497000,25.566496826171875,0.41332224011421204,0.7161234021186829,0.19188059866428375
1772791575776598800,25.586598876953126,0.24767376482486725,0.7283739447593689,0.30160272121429443
1772791575796700400,25.606700439453125,0.3861580193042755,-0.005326317623257637,0.02996053732931614
1772791575816802300,25.62680224609375,0.5653886198997498,0.08202528953552246,-0.37084487080574036
1772791575836904200,25.646904296875,0.6287717819213867,0.3296990692615509,-0.40866172313690186
