time,seconds_elapsed,z,y,x
1772717665346248700,0.084248779296875,-0.43901506066322327,0.2050042748451233,0.24806275963783264
1772717665366120700,0.10412060546875,-0.43858447670936584,0.047240592539310455,0.3103971779346466
1772717665385993700,0.12399365234375,-0.46755722165107727,-0.12277092784643173,0.3927008807659149
1772717665405865700,0.14386572265625,-0.47778740525245667,-0.25257113575935364,0.454643577337265
1772717665425738500,0.163738525390625,-0.5108758211135864,-0.20521971583366394,0.6821300387382507
1772717665445611800,0.18361181640625,-0.6014867424964905,-0.2566773295402527,0.9629337191581726
1772717665465483800,0.20348388671875,-0.654881477355957,-0.37817105650901794,1.268931269645691
1772717665485356800,0.223356689453125,-0.6399540305137634,-0.47570177912712097,1.457944631576538
1772717665505228800,0.243228759765625,-0.6605677008628845,-0.840146005153656,1.3870916366577148
1772717665525101600,0.2631015625,-0.7511424422264099,-1.190445065498352,1.329367995262146
1772717665544973600,0.2829736328125,-0.6562092900276184,-1.6226211786270142,1.2127375602722168
1772717665564846800,0.302846923828125,-0.6180347800254822,-1.7500017881393433,1.1727378368377686
1772717665584718600,0.322718505859375,-0.7761374711990356,-1.698914885520935,1.2060749530792236
1772717665604591600,0.342591552734375,-1.025398850440979,-1.7797412872314453,1.1069157123565674
1772717665624464000,0.3624638671875,-1.2545212507247925,-1.2515305280685425,0.3117542862892151
1772717665644336600,0.382336669921875,-1.1060817241668701,-0.4903787672519684,-0.17534950375556946
1772717665664208600,0.402208740234375,-0.5493210554122925,-0.29860132932662964,-0.6392198801040649
1772717665684082000,0.42208203125,0.378877729177475,-0.13045690953731537,-0.7064192295074463
1772717665703953700,0.44195361328125,1.0603145360946655,-0.28187066316604614,-0.5294913053512573
1772717665723826700,0.46182666015625,1.1505801677703857,-0.9288931488990784,-0.3609958291053772
1772717665743698700,0.48169873046875,1.1171573400497437,-1.321062684059143,0.3595207631587982
1772717665763571700,0.50157177734375,1.1879676580429077,-2.200510263442993,1.5298489332199097
1772717665783444700,0.52144482421875,1.5325746536254883,-3.549924373626709,2.5526413917541504
1772717665803316500,0.54131640625,2.171170711517334,-4.900597095489502,2.657379388809204
1772717665823189800,0.561189697265625,3.059539556503296,-5.061187744140625,2.0495665073394775
1772717665843061800,0.581061767578125,3.9789958000183105,-5.081846237182617,1.3088477849960327
1772717665862934500,0.6009345703125,5.195682048797607,-5.260063648223877,0.7289407849311829
1772717665882806800,0.620806884765625,7.108428478240967,-4.540547847747803,0.30270472168922424
1772717665902679800,0.6406796875,8.080716133117676,-3.433309316635132,-0.8181580305099487
1772717665922551600,0.660551513671875,7.227578163146973,-2.5972647666931152,-2.1098499298095703
1772717665942424800,0.6804248046875,5.612233638763428,-2.1388070583343506,-2.7991719245910645
1772717665962296800,0.700296875,4.170344829559326,-2.5394787788391113,-2.2953860759735107
1772717665982169600,0.720169677734375,3.420057535171509,-2.9571619033813477,-1.1650501489639282
1772717666002041600,0.74004150390625,3.2978575229644775,-2.8816964626312256,-0.3701545000076294
1772717666021914600,0.75991455078125,3.4724392890930176,-2.6092605590820312,-0.3575768768787384
1772717666041786600,0.77978662109375,3.690520763397217,-2.1773126125335693,-0.7142513990402222
1772717666061659600,0.79965966796875,3.928870439529419,-1.755495309829712,-1.0506248474121094
1772717666081532700,0.81953271484375,4.230569839477539,-1.5386544466018677,-1.3064824342727661
1772717666101404700,0.83940478515625,4.6573567390441895,-1.6368014812469482,-1.2454127073287964
1772717666121277700,0.859277587890625,5.043721675872803,-1.7138104438781738,-0.8319627046585083
1772717666141149400,0.8791494140625,5.195529460906982,-1.501784324645996,-0.3282659649848938
1772717666161022700,0.899022705078125,5.17201566696167,-0.8137269616127014,-0.2118290811777115
1772717666180894700,0.918894775390625,5.021921157836914,-0.04268040135502815,-0.5404998660087585
1772717666200767500,0.938767578125,4.614459037780762,0.5823825001716614,-0.8277685642242432
1772717666220639700,0.9586396484375,3.782350540161133,0.9529406428337097,-0.8132274746894836
1772717666240512500,0.978512451171875,2.6716604232788086,0.9496134519577026,-0.5164969563484192
1772717666260384500,0.998384521484375,1.5965856313705444,0.7014387249946594,-0.201671302318573
1772717666280257800,1.0182578125,0.7222461104393005,0.40279242396354675,-0.01047012023627758
1772717666300129500,1.038129638671875,0.17934951186180115,0.3041553795337677,0.08134543150663376
1772717666320002600,1.05800244140625,-0.07478111237287521,0.3525194823741913,0.14744511246681213
1772717666339874600,1.07787451171875,-0.16666504740715027,0.40131568908691406,0.14914622902870178
1772717666359747600,1.09774755859375,-0.23744091391563416,0.33442193269729614,0.10355296730995178
1772717666379620600,1.11762060546875,-0.3698258101940155,0.1464294195175171,0.058291006833314896
1772717666399492600,1.13749267578125,-0.6209225654602051,-0.10917560756206512,0.06863094866275787
1772717666419365600,1.15736572265625,-0.970000147819519,-0.3623487651348114,0.19797396659851074
1772717666439237600,1.177237548828125,-1.3484009504318237,-0.5545019507408142,0.3809669613838196
1772717666459110400,1.1971103515625,-1.6320394277572632,-0.5919498801231384,0.5360164642333984
1772717666478982700,1.216982666015625,-1.9586182832717896,-0.6063767671585083,0.7197537422180176
1772717666498855700,1.236855712890625,-2.4624383449554443,-0.6401605606079102,0.9969560503959656
1772717666518727400,1.2567275390625,-3.0915236473083496,-0.6165684461593628,1.2135322093963623
1772717666538600700,1.2766005859375,-3.624499797821045,-0.5019211769104004,1.1317344903945923
1772717666558472700,1.29647265625,-3.969402551651001,-0.3135208785533905,0.7813045382499695
1772717666578345500,1.316345458984375,-4.191064834594727,-0.10857313126325607,0.34377211332321167
1772717666598217500,1.336217529296875,-4.455786228179932,0.05098128691315651,0.03341035172343254
1772717666618090800,1.3560908203125,-4.667230129241943,0.12792590260505676,-0.08302833884954453
1772717666637962500,1.37596240234375,-4.7367682456970215,0.15651075541973114,-0.01977860927581787
1772717666657835800,1.395835693359375,-4.575537204742432,0.15288963913917542,0.10740567743778229
1772717666677707800,1.415707763671875,-4.160258769989014,0.0741594210267067,0.30372995138168335
1772717666697580500,1.43558056640625,-3.646343231201172,-0.0455128476023674,0.5204924941062927
1772717666717453800,1.455453857421875,-3.135929822921753,-0.22614510357379913,0.67693692445755
1772717666737325600,1.47532568359375,-2.6959125995635986,-0.35909828543663025,0.7786080241203308
1772717666757198600,1.495198486328125,-2.354292631149292,-0.41578787565231323,0.8560698628425598
1772717666777070600,1.515070556640625,-2.0178887844085693,-0.4101817011833191,0.8472983837127686
1772717666796943600,1.534943603515625,-1.6406234502792358,-0.39985817670822144,0.7247547507286072
1772717666816815600,1.554815673828125,-1.2399367094039917,-0.3420303761959076,0.5336570739746094
1772717666836688600,1.574688720703125,-0.8766652345657349,-0.20451773703098297,0.3427213132381439
1772717666856560600,1.594560546875,-0.6255515813827515,-0.07555584609508514,0.16207198798656464
1772717666876433700,1.61443359375,-0.3822544515132904,0.0013157306239008904,0.002226316835731268
1772717666896305700,1.6343056640625,-0.09969870746135712,0.032853223383426666,-0.05025831237435341
1772717666916178700,1.6541787109375,0.2310711145401001,0.08876240998506546,0.0199111457914114
1772717666936050700,1.67405078125,0.6231197118759155,0.10178914666175842,0.14378200471401215
1772717666955923700,1.693923828125,0.9899305701255798,0.09867222607135773,0.22033944725990295
1772717666975795700,1.713795654296875,1.2943580150604248,0.1894993633031845,0.17912709712982178
1772717666995668700,1.733668701171875,1.5409902334213257,0.31212565302848816,0.06896590441465378
1772717667015541800,1.753541748046875,1.6825740337371826,0.482261061668396,-0.046940647065639496
1772717667035413800,1.773413818359375,1.5863738059997559,0.6958945989608765,-0.18992802500724792
1772717667055286500,1.79328662109375,1.3185476064682007,1.0344575643539429,-0.32822945713996887
1772717667075158500,1.813158447265625,1.192284345626831,1.382567048072815,-0.3871978521347046
1772717667095031800,1.83303173828125,1.4051064252853394,1.5134004354476929,-0.47543054819107056
1772717667114903800,1.85290380859375,1.833400011062622,1.3385521173477173,-0.6214706301689148
1772717667134776600,1.872776611328125,2.216512441635132,0.854561984539032,-0.7169287800788879
1772717667154648800,1.89264892578125,2.4771573543548584,0.28374695777893066,-0.6373191475868225
1772717667174521600,1.912521484375,2.567171573638916,-0.1282206028699875,-0.4060390293598175
1772717667194393600,1.9323935546875,2.6108672618865967,-0.298305481672287,-0.23863503336906433
1772717667214267000,1.952266845703125,2.7177817821502686,-0.2865992486476898,-0.16959407925605774
1772717667234138600,1.972138671875,2.8939831256866455,-0.19088366627693176,-0.13847510516643524
1772717667254011600,1.99201171875,3.0045058727264404,-0.0359194353222847,-0.20516982674598694
1772717667273883600,2.011883544921875,2.810690402984619,0.18188367784023285,-0.3343854546546936
1772717667293756700,2.031756591796875,2.5206446647644043,0.29610925912857056,-0.37634795904159546
1772717667313629700,2.051629638671875,2.3514726161956787,0.21596260368824005,-0.2269667237997055
1772717667333501700,2.071501708984375,2.2819323539733887,0.09141291677951813,-0.10133221000432968
1772717667353374700,2.091374755859375,2.211686849594116,0.02863221801817417,-0.12000761926174164
1772717667373246700,2.111246826171875,2.0989584922790527,-0.15076255798339844,-0.10292499512434006
1772717667393119500,2.131119384765625,1.89859938621521,-0.5925105810165405,0.03213929012417793
1772717667412991700,2.15099169921875,1.608053207397461,-1.062868595123291,0.3712101876735687
1772717667432864800,2.17086474609375,0.6481193900108337,-1.1315313577651978,0.8353058099746704
1772717667452736500,2.190736572265625,-0.40542662143707275,-0.7826284766197205,1.023450493812561
1772717667472609800,2.21060986328125,-0.6974137425422668,-0.41718533635139465,0.9320342540740967
1772717667492481800,2.230481689453125,-0.5249926447868347,-0.1389985829591751,0.6923097968101501
1772717667512354600,2.2503544921875,-0.48496636748313904,-0.0572674423456192,0.48209887742996216
1772717667532226800,2.270226806640625,-0.7924754619598389,-0.22633464634418488,0.5074662566184998
1772717667552099600,2.290099609375,-1.149228811264038,-0.4454101026058197,0.6188783049583435
1772717667571971600,2.3099716796875,-1.3578168153762817,-0.5406038165092468,0.6908586621284485
1772717667591844900,2.329844970703125,-1.4613351821899414,-0.5133115649223328,0.7197284698486328
1772717667611717600,2.349717529296875,-1.66304612159729,-0.4318276345729828,0.7613632082939148
1772717667631589600,2.369589599609375,-1.9575892686843872,-0.36080968379974365,0.815068244934082
1772717667651463000,2.389462890625,-2.29960036277771,-0.38108354806900024,0.875093936920166
1772717667671334700,2.409334716796875,-2.6301629543304443,-0.3164181113243103,0.850287675857544
1772717667691207700,2.429207763671875,-2.8687093257904053,-0.1826213300228119,0.7458488941192627
1772717667711079700,2.44907958984375,-2.983053684234619,-0.04464124143123627,0.6576667428016663
1772717667730952700,2.46895263671875,-3.1550252437591553,-0.010594325140118599,0.6290417909622192
1772717667750824700,2.48882470703125,-3.6057496070861816,0.07147838920354843,0.6113764047622681
1772717667770697500,2.508697509765625,-4.274164199829102,0.39483943581581116,0.5226372480392456
1772717667790569700,2.52856982421875,-4.76446533203125,0.944003701210022,0.3124504089355469
1772717667810442800,2.54844287109375,-4.796369552612305,1.4041779041290283,0.09312739223241806
1772717667830314800,2.568314697265625,-4.3603925704956055,1.3888007402420044,0.10933656245470047
1772717667850187800,2.588187744140625,-3.7335033416748047,1.1122647523880005,0.3737211525440216
1772717667870059800,2.608059814453125,-3.1002414226531982,0.6142432689666748,0.7513204216957092
1772717667889932500,2.6279326171875,-2.6520047187805176,0.06758912652730942,1.081600308418274
1772717667909804500,2.647804443359375,-2.3704633712768555,-0.31297141313552856,1.295984148979187
1772717667929677800,2.667677734375,-2.0715579986572266,-0.4323725402355194,1.3204174041748047
1772717667949551000,2.687551025390625,-1.6640232801437378,-0.3647845387458801,1.1736040115356445
1772717667969423000,2.707423095703125,-1.158994197845459,-0.31335198879241943,0.9020305871963501
1772717667989295900,2.7272958984375,-0.6377768516540527,-0.34204694628715515,0.5558599829673767
1772717668009168100,2.747168212890625,-0.3039780855178833,-0.35155773162841797,0.29107579588890076
1772717668029041200,2.767041259765625,-0.22456887364387512,-0.33607417345046997,0.2115887850522995
1772717668048913000,2.786912841796875,-0.15590737760066986,-0.23324161767959595,0.21851903200149536
1772717668068786200,2.8067861328125,0.08295203000307083,-0.08665406703948975,0.16145408153533936
1772717668088658200,2.826658203125,0.4980792701244354,-0.028802791610360146,0.02773081138730049
1772717668108531000,2.846531005859375,1.0073421001434326,-0.10681169480085373,-0.13817451894283295
1772717668128403000,2.86640283203125,1.5140546560287476,-0.29116958379745483,-0.23041130602359772
1772717668148276000,2.88627587890625,1.8103045225143433,-0.49989473819732666,-0.230852410197258
1772717668168148000,2.90614794921875,1.8484470844268799,-0.5494690537452698,-0.2510968744754791
1772717668188021200,2.926021240234375,1.79300057888031,-0.3545069694519043,-0.4602542817592621
1772717668207893200,2.945893310546875,1.8384722471237183,-0.09785983711481094,-0.803062379360199
1772717668227766000,2.96576611328125,2.069918155670166,0.07942678034305573,-1.129908800125122
1772717668247639300,2.985639404296875,2.4405126571655273,0.18475276231765747,-1.2210073471069336
1772717668267511000,3.005510986328125,2.8307442665100098,0.2648455798625946,-1.0066031217575073
1772717668287384000,3.025384033203125,3.0373406410217285,0.3374347686767578,-0.6097915172576904
1772717668307256000,3.045256103515625,3.088733434677124,0.3966194689273834,-0.3408621549606323
1772717668327129000,3.065129150390625,3.1387581825256348,0.4241343140602112,-0.3211222290992737
1772717668347001000,3.0850009765625,3.2532331943511963,0.3197028636932373,-0.3965738117694855
1772717668366873900,3.104873779296875,3.295564651489258,0.1347665786743164,-0.4204738140106201
1772717668386746000,3.12474609375,3.347554922103882,-0.053290050476789474,-0.3827403783798218
1772717668406619100,3.144619140625,3.397432327270508,-0.19743314385414124,-0.3676898777484894
1772717668426491100,3.1644912109375,3.2917027473449707,-0.16683357954025269,-0.45239174365997314
1772717668446364200,3.1843642578125,2.922184705734253,0.15607762336730957,-0.5886486172676086
1772717668466236200,3.204236083984375,2.347033739089966,0.6828131079673767,-0.8050386905670166
1772717668486109000,3.22410888671875,1.8558709621429443,1.1816977262496948,-1.0953097343444824
1772717668505981000,3.24398095703125,1.7056397199630737,1.3665194511413574,-1.3413615226745605
1772717668525854200,3.263854248046875,1.7524946928024292,0.997499942779541,-1.3160405158996582
1772717668545726000,3.283725830078125,1.710642695426941,0.43550536036491394,-1.0817047357559204
1772717668565599000,3.303598876953125,1.5452440977096558,0.17311330139636993,-0.9409172534942627
1772717668585472000,3.323471923828125,1.391432285308838,0.1594136655330658,-0.8950202465057373
1772717668605344000,3.343343994140625,1.2638909816741943,0.27145543694496155,-0.9041603803634644
1772717668625217000,3.363217041015625,0.9870648384094238,0.4561752378940582,-0.9169962406158447
1772717668645089000,3.383089111328125,0.5334267616271973,0.6859540939331055,-0.9906140565872192
1772717668664962000,3.402962158203125,0.19402137398719788,0.7718977928161621,-1.0432485342025757
1772717668684834000,3.422833984375,0.08107752352952957,0.6355900764465332,-1.0088212490081787
1772717668704707000,3.44270703125,0.01837170124053955,0.4488104283809662,-0.8937241435050964
1772717668724579000,3.4625791015625,-0.10018208622932434,0.3033449351787567,-0.7850638031959534
1772717668744452000,3.4824521484375,-0.18792954087257385,0.16118170320987701,-0.6776405572891235
1772717668764323800,3.50232373046875,-0.29562944173812866,0.073068767786026,-0.5065168142318726
1772717668784197000,3.522197021484375,-0.5263487100601196,0.11646399646997452,-0.30795979499816895
1772717668804069000,3.542069091796875,-0.8254193663597107,0.23866389691829681,-0.18127068877220154
1772717668823942000,3.56194189453125,-1.1075972318649292,0.3094014525413513,-0.17373473942279816
1772717668843814100,3.581814208984375,-1.324029564857483,0.24062640964984894,-0.34284088015556335
1772717668863687000,3.60168701171875,-1.4933322668075562,0.14636781811714172,-0.5371200442314148
1772717668883559000,3.621558837890625,-1.7704248428344727,0.22716251015663147,-0.5796151161193848
1772717668903432200,3.64143212890625,-2.1083791255950928,0.5094485878944397,-0.5964155793190002
1772717668923305000,3.661304931640625,-2.3292055130004883,0.8060155510902405,-0.6812433004379272
1772717668943177000,3.681177001953125,-2.4629485607147217,0.9342293739318848,-0.6811506152153015
1772717668963049500,3.701049560546875,-2.3917083740234375,0.7661328315734863,-0.600317656993866
1772717668982921500,3.72092138671875,-2.0693461894989014,0.2647912800312042,-0.5139798521995544
1772717669002794200,3.740794189453125,-1.7643800973892212,-0.33058252930641174,-0.3929227590560913
1772717669022666200,3.760666259765625,-1.7201181650161743,-0.7873156070709229,-0.27894672751426697
1772717669042539300,3.780539306640625,-2.008908987045288,-0.827025830745697,-0.26916247606277466
1772717669062411300,3.800411376953125,-2.357495069503784,-0.5167486667633057,-0.5014353394508362
1772717669082284300,3.8202841796875,-2.4510762691497803,-0.21793393790721893,-0.8026800751686096
1772717669102156300,3.84015625,-2.3272972106933594,-0.14616335928440094,-0.9705497622489929
1772717669122029300,3.860029296875,-2.21736741065979,-0.18283623456954956,-0.9355003237724304
1772717669141901300,3.8799013671875,-2.1917150020599365,-0.11127643287181854,-0.836228609085083
1772717669161774300,3.8997744140625,-1.9920545816421509,0.020428722724318504,-0.797599732875824
1772717669181646300,3.919646240234375,-1.5556378364562988,0.0230465829372406,-0.6863628029823303
1772717669201519400,3.939519287109375,-1.0420135259628296,-0.11257894337177277,-0.522678017616272
1772717669221391000,3.95939111328125,-0.646448016166687,-0.25167930126190186,-0.38828057050704956
1772717669241264400,3.979264404296875,-0.45578545331954956,-0.28935009241104126,-0.3173815608024597
1772717669261137200,3.99913720703125,-0.44954293966293335,-0.15041954815387726,-0.26367953419685364
1772717669281009200,4.019009033203125,-0.4570852816104889,0.0903555154800415,-0.27869710326194763
1772717669300882400,4.03888232421875,-0.27081817388534546,0.2571414113044739,-0.3878985047340393
1772717669320754200,4.058754150390625,0.03993630409240723,0.3387141823768616,-0.5236626863479614
1772717669340627500,4.07862744140625,0.34528204798698425,0.36266741156578064,-0.5548316240310669
1772717669360499500,4.09849951171875,0.6062864065170288,0.39823853969573975,-0.49833858013153076
1772717669380372200,4.118372314453125,0.8446453213691711,0.4384233355522156,-0.442295104265213
1772717669400244200,4.138244140625,1.0789127349853516,0.46792295575141907,-0.3866901099681854
1772717669420117500,4.158117431640625,1.3288384675979614,0.4503633677959442,-0.33933672308921814
1772717669439989200,4.1779892578125,1.5768975019454956,0.3369498550891876,-0.2805013954639435
1772717669459862300,4.1978623046875,1.7479084730148315,0.16874538362026215,-0.197575643658638
1772717669479734500,4.217734619140625,1.8755451440811157,0.10617928951978683,-0.18574146926403046
1772717669499607300,4.237607177734375,2.020068407058716,0.24557383358478546,-0.2997923195362091
1772717669519479300,4.257479248046875,2.2194502353668213,0.48308196663856506,-0.4857305586338043
1772717669539352300,4.277352294921875,2.4451990127563477,0.6830655932426453,-0.6392617225646973
1772717669559224300,4.297224365234375,2.608583927154541,0.7890167236328125,-0.7129874229431152
1772717669579097300,4.317097412109375,2.734837532043457,0.7700992822647095,-0.7408766746520996
1772717669598970400,4.336970458984375,2.836496114730835,0.7197169065475464,-0.7640804052352905
1772717669618842400,4.35684228515625,2.8853185176849365,0.690110445022583,-0.7942336797714233
1772717669638715400,4.37671533203125,2.8806676864624023,0.7579745054244995,-0.8645742535591125
1772717669658587100,4.396587158203125,2.829704523086548,0.8873363137245178,-0.9940151572227478
1772717669678460400,4.41646044921875,2.743312358856201,1.1094613075256348,-1.1649994850158691
1772717669698332400,4.43633251953125,2.5964910984039307,1.279319167137146,-1.306606411933899
1772717669718205200,4.456205078125,2.337130069732666,1.391997218132019,-1.3549033403396606
1772717669738077400,4.476077392578125,1.9887148141860962,1.5909364223480225,-1.373413324356079
1772717669757950200,4.4959501953125,1.7265186309814453,1.705925703048706,-1.4478868246078491
1772717669777822200,4.515822265625,1.5688468217849731,1.8664673566818237,-1.564969539642334
1772717669797695500,4.535695556640625,1.3676472902297974,1.963099718093872,-1.5517886877059937
1772717669817567200,4.555567138671875,1.0941481590270996,1.6894161701202393,-1.372624397277832
1772717669837440300,4.575440185546875,0.8760024309158325,1.2130881547927856,-1.1628024578094482
1772717669857312300,4.595312255859375,0.7012037038803101,0.8418091535568237,-0.8682321906089783
1772717669877185300,4.615185302734375,0.4744081199169159,0.8205137252807617,-0.39119410514831543
1772717669897057300,4.635057373046875,-0.059409692883491516,0.8195371627807617,0.07635823637247086
1772717669916930300,4.654930419921875,-1.1248769760131836,0.9252440929412842,0.4879041314125061
1772717669936803300,4.67480322265625,-2.024772882461548,1.1719882488250732,0.7020171880722046
1772717669956675300,4.69467529296875,-2.387538433074951,1.3000928163528442,0.9204450845718384
1772717669976548400,4.71454833984375,-2.5046470165252686,1.0456115007400513,1.0359694957733154
1772717669996420400,4.73442041015625,-2.6825220584869385,0.941707968711853,1.00391685962677
1772717670016293400,4.75429345703125,-2.8900980949401855,1.4559251070022583,1.4925739765167236
1772717670036165000,4.7741650390625,-3.178551197052002,1.2957712411880493,2.150775909423828
1772717670056038400,4.794038330078125,-3.2200112342834473,0.6935060620307922,2.672814130783081
1772717670075910400,4.813910400390625,-2.991450548171997,-0.19873204827308655,3.068455457687378
1772717670095783200,4.833783203125,-2.689700126647949,-0.631746768951416,3.4013681411743164
1772717670115655400,4.853655517578125,-2.649722099304199,-0.11005669832229614,3.7957358360290527
1772717670135528400,4.873528564453125,-2.9045231342315674,1.0841120481491089,3.755378484725952
1772717670155400200,4.893400146484375,-3.2056689262390137,2.4464058876037598,3.2739617824554443
1772717670175273500,4.9132734375,-3.512399435043335,3.42651629447937,2.7456631660461426
1772717670195145500,4.9331455078125,-3.5715105533599854,4.331353664398193,2.301992654800415
1772717670215018200,4.953018310546875,-3.461329936981201,4.824686050415039,1.764577031135559
1772717670234890200,4.97289013671875,-3.068228006362915,5.226629257202148,1.489908218383789
1772717670254763300,4.99276318359375,-2.6299777030944824,5.418440341949463,1.3921515941619873
1772717670274635300,5.01263525390625,-2.274543285369873,5.04789924621582,1.4513440132141113
1772717670294508300,5.03250830078125,-2.00419282913208,4.35129451751709,1.6432253122329712
1772717670314381300,5.05238134765625,-1.7052265405654907,3.811716079711914,1.817260503768921
1772717670334253300,5.07225341796875,-1.4359054565429688,3.313882350921631,1.7252322435379028
1772717670354126300,5.092126220703125,-1.1370831727981567,2.965315580368042,1.3355046510696411
1772717670373998300,5.111998291015625,-0.8339800834655762,3.015691041946411,0.7775192856788635
1772717670393871400,5.131871337890625,-0.9047118425369263,3.3139820098876953,0.03248870000243187
1772717670413743400,5.151743408203125,-1.383191466331482,3.6713814735412598,-0.9138531684875488
1772717670433616400,5.171616455078125,-1.832306981086731,2.861039876937866,-1.8155404329299927
1772717670453488400,5.19148828125,-2.306758403778076,0.6571500897407532,-2.3804032802581787
1772717670473361200,5.211361083984375,-2.4445295333862305,-0.9018693566322327,-2.477130651473999
1772717670493233200,5.231233154296875,-2.0879361629486084,-0.6228073835372925,-2.0472424030303955
1772717670513106400,5.2511064453125,-1.3226884603500366,-0.13024534285068512,-1.3039108514785767
1772717670532978200,5.270978271484375,-0.2686467468738556,-0.38200443983078003,-0.6217032074928284
1772717670552851200,5.290851318359375,0.3786037564277649,-0.3933662176132202,-0.09027039259672165
1772717670572723500,5.310723388671875,0.5721279382705688,-0.3682188093662262,0.1827464997768402
1772717670592596200,5.33059619140625,0.4261317253112793,-0.6766037344932556,0.34463489055633545
1772717670612468200,5.35046826171875,0.11123427748680115,-1.072076439857483,0.46828770637512207
1772717670632341500,5.370341552734375,-0.06571877747774124,-1.176041603088379,0.5159375071525574
1772717670652214300,5.39021435546875,-0.0444951206445694,-0.9416226744651794,0.4731021523475647
1772717670672086300,5.410086181640625,0.24946726858615875,-0.6591635942459106,0.39500516653060913
1772717670691959300,5.429959228515625,0.5434427857398987,-0.4838073253631592,0.29570233821868896
1772717670711831300,5.449831298828125,0.6328535079956055,-0.3611876666545868,0.3158190846443176
1772717670731704300,5.469704345703125,0.5046584606170654,-0.4010447561740875,0.43493568897247314
1772717670751576300,5.489576416015625,0.27005535364151,-0.136649489402771,0.4954764246940613
1772717670771449300,5.509449462890625,0.1321294754743576,0.07229912281036377,0.3357801139354706
1772717670791321300,5.5293212890625,0.17115318775177002,0.05636502057313919,0.11705813556909561
1772717670811194400,5.5491943359375,0.12367153912782669,0.011656553484499454,-0.02047039195895195
1772717670831066400,5.56906640625,0.039061836898326874,0.1584359109401703,-0.04195404425263405
1772717670850939400,5.588939453125,0.2733309864997864,0.25277233123779297,0.03109973482787609
1772717670870811100,5.60881103515625,0.5916758179664612,0.1729455143213272,0.1356050819158554
1772717670890684400,5.628684326171875,0.8105781674385071,0.06374656409025192,0.26167404651641846
1772717670910556400,5.648556396484375,0.9315643310546875,0.041587021201848984,0.32623136043548584
1772717670930429200,5.66842919921875,0.9019102454185486,0.07220097631216049,0.3165057301521301
1772717670950301000,5.688301025390625,0.8286492824554443,0.06862278282642365,0.3842337131500244
1772717670970174000,5.708174072265625,0.729255735874176,0.11842028796672821,0.447559654712677
1772717670990047000,5.728046875,0.6655746698379517,0.26227545738220215,0.359573096036911
1772717671009919000,5.7479189453125,0.6684035658836365,0.30971431732177734,0.16432201862335205
1772717671029791700,5.767791748046875,0.7194763422012329,0.24283954501152039,0.06319832801818848
1772717671049664000,5.7876640625,0.7045928835868835,0.14042127132415771,0.09064590185880661
1772717671069537000,5.807537109375,0.6254067420959473,0.15057790279388428,0.1541481763124466
1772717671089408800,5.82740869140625,0.5261942744255066,0.12342619150876999,0.21233852207660675
1772717671109282000,5.847281982421875,0.4600765109062195,0.1270323097705841,0.26330357789993286
1772717671129154000,5.867154052734375,0.4473694860935211,0.275867223739624,0.2836616635322571
1772717671149026800,5.88702685546875,0.46113118529319763,0.36126476526260376,0.2978160083293915
1772717671168898800,5.90689892578125,0.5311995148658752,0.30796223878860474,0.3377439081668854
1772717671188771800,5.926771728515625,0.6761116981506348,0.13362136483192444,0.43506920337677
1772717671208643800,5.946643798828125,0.7871339321136475,-0.13038893043994904,0.5733054876327515
1772717671228517000,5.96651708984375,0.904356837272644,-0.4195965826511383,0.696073591709137
1772717671248389000,5.98638916015625,1.125691533088684,-0.6239523887634277,0.8037475943565369
1772717671268262000,6.006261962890625,1.4642356634140015,-0.8943020105361938,0.9372371435165405
1772717671288134000,6.0261337890625,1.9949058294296265,-1.4427746534347534,1.1324504613876343
1772717671308007000,6.0460068359375,2.563671827316284,-1.583357334136963,1.3438793420791626
1772717671327879000,6.06587890625,2.93144154548645,-1.4673960208892822,1.3013242483139038
1772717671347752000,6.085751953125,3.17509388923645,-1.8862515687942505,0.9759458899497986
1772717671367625000,6.105625,3.653507947921753,-3.119394063949585,0.7419832348823547
1772717671387497000,6.1254970703125,3.8656342029571533,-5.355724811553955,0.4706983268260956
1772717671407369700,6.14536962890625,3.9731171131134033,-7.627885818481445,0.2272479385137558
1772717671427242000,6.165241943359375,4.378204822540283,-8.898406982421875,0.3729785978794098
1772717671447115000,6.185114990234375,2.922295331954956,-6.316298484802246,0.38140934705734253
1772717671466987000,6.204987060546875,3.9764440059661865,-5.021017074584961,-0.5207289457321167
1772717671486860000,6.224860107421875,5.384876728057861,-3.727827787399292,-1.2038354873657227
1772717671506732000,6.24473193359375,6.1121063232421875,-2.9906013011932373,-1.8266178369522095
1772717671526604800,6.264604736328125,5.944777011871338,-2.6132967472076416,-1.9609673023223877
1772717671546476800,6.284476806640625,5.397634506225586,-1.849999189376831,-1.7038451433181763
1772717671566350000,6.30435009765625,5.023110389709473,-0.9421305060386658,-1.4662822484970093
1772717671586221800,6.324221923828125,5.183980464935303,-0.56357741355896,-1.182330846786499
1772717671606094800,6.3440947265625,5.7492218017578125,-0.11251077800989151,-1.005855917930603
1772717671625967000,6.363967041015625,6.415356159210205,0.6534292101860046,-0.8921688795089722
1772717671645840000,6.38383984375,6.684966087341309,0.9548223614692688,-0.6320946216583252
1772717671665711900,6.4037119140625,6.388003826141357,0.8117501139640808,-0.12078351527452469
1772717671685585000,6.4235849609375,5.6423187255859375,0.6972804665565491,0.44068074226379395
1772717671705458000,6.4434580078125,4.623564720153809,0.6862539052963257,0.9697057604789734
1772717671725330000,6.463329833984375,3.6290414333343506,0.4040203392505646,1.3266481161117554
1772717671745203000,6.483202880859375,2.4985673427581787,0.26257362961769104,1.5416117906570435
1772717671765075000,6.503074951171875,1.182494878768921,0.5740454792976379,1.4160182476043701
1772717671784948000,6.522947998046875,0.08887094259262085,1.1128275394439697,0.8222851157188416
1772717671804819700,6.54281982421875,-0.579028844833374,1.7273825407028198,-0.0029121702536940575
1772717671824693000,6.56269287109375,-0.8331389427185059,2.1359951496124268,-0.708271861076355
1772717671844565000,6.58256494140625,-0.8331665992736816,2.2447121143341064,-1.0604043006896973
1772717671864438000,6.60243798828125,-0.8001938462257385,1.953697919845581,-0.9592727422714233
1772717671884310000,6.62231005859375,-0.8351332545280457,1.0444438457489014,-0.5947936773300171
1772717671904182800,6.642182861328125,-0.8735677003860474,-0.005766316317021847,-0.15242217481136322
1772717671924054800,6.6620546875,-0.8863635063171387,-0.8042518496513367,0.24799782037734985
1772717671943928000,6.681927978515625,-0.816862165927887,-1.2406340837478638,0.5097485780715942
1772717671963801000,6.701801025390625,-0.768142819404602,-1.4941613674163818,0.6769238710403442
1772717671983674000,6.721674072265625,-0.8084754943847656,-1.6304603815078735,0.7808842062950134
1772717672003546000,6.741546142578125,-0.9302582144737244,-1.6692819595336914,0.82053142786026
1772717672023419100,6.761419189453125,-1.1435660123825073,-1.7361674308776855,0.7796674370765686
1772717672043291100,6.781291015625,-1.4441500902175903,-1.8411586284637451,0.5743559002876282
1772717672063164000,6.801163818359375,-1.7177679538726807,-1.7900390625,0.22413542866706848
1772717672083036000,6.821035888671875,-1.9960672855377197,-1.57461416721344,-0.11954561620950699
1772717672102909200,6.8409091796875,-2.375831127166748,-1.316259741783142,-0.24807366728782654
1772717672122782000,6.860781982421875,-2.8661231994628906,-1.236801028251648,-0.17439810931682587
1772717672142654200,6.880654296875,-3.3224549293518066,-1.314344882965088,-0.09215711057186127
1772717672162527000,6.90052685546875,-3.634087324142456,-1.366512417793274,-0.159674733877182
1772717672182399000,6.92039892578125,-3.807478904724121,-1.327032208442688,-0.2514079809188843
1772717672202272300,6.940272216796875,-3.804410696029663,-1.1680830717086792,-0.24618899822235107
1772717672222144000,6.96014404296875,-3.5000381469726562,-0.6868464946746826,-0.09649480134248734
1772717672242017000,6.98001708984375,-3.082134485244751,-0.4057612717151642,0.30074021220207214
1772717672261889000,6.999888916015625,-2.7718586921691895,-0.3820626139640808,0.8824914693832397
1772717672281762000,7.019761962890625,-2.6627285480499268,-0.45997563004493713,1.437673568725586
1772717672301634000,7.039634033203125,-2.715265989303589,-0.5611528754234314,1.7855550050735474
1772717672321507000,7.059507080078125,-2.747248411178589,-0.6725896000862122,1.87975013256073
1772717672341379000,7.079379150390625,-2.660705089569092,-0.7181869149208069,1.7769545316696167
1772717672361252000,7.099252197265625,-2.4244720935821533,-0.6233202219009399,1.599268913269043
1772717672381124000,7.1191240234375,-2.026265859603882,-0.47192123532295227,1.3561875820159912
1772717672400997000,7.1389970703125,-1.5045758485794067,-0.4143832325935364,0.9967195987701416
1772717672420869000,7.158869140625,-0.8874158263206482,-0.30420899391174316,0.5722272396087646
1772717672440742000,7.178741943359375,-0.4482685327529907,-0.2965438663959503,0.28241440653800964
1772717672460614000,7.19861376953125,-0.23952044546604156,-0.34747734665870667,0.2316335290670395
1772717672480487200,7.218487060546875,-0.18285948038101196,-0.38411781191825867,0.40990254282951355
1772717672500360000,7.23835986328125,-0.24000701308250427,-0.4225741922855377,0.6780875325202942
1772717672520232000,7.25823193359375,-0.2745760679244995,-0.4244377017021179,0.823544979095459
1772717672540105200,7.278105224609375,-0.16592095792293549,-0.3543780744075775,0.7629259824752808
1772717672559977000,7.29797705078125,0.07396215945482254,-0.2359105795621872,0.6065901517868042
1772717672579850000,7.31785009765625,0.4467242956161499,-0.05270124599337578,0.382062703371048
1772717672599722200,7.33772216796875,0.8906368017196655,0.1228744313120842,0.0919235348701477
1772717672619595000,7.357594970703125,1.329204797744751,0.2001483142375946,-0.21673335134983063
1772717672639467000,7.377467041015625,1.7322611808776855,0.22562821209430695,-0.4420680105686188
1772717672659340000,7.397340087890625,2.0465309619903564,0.24446190893650055,-0.4870768189430237
1772717672679212000,7.4172119140625,2.308668613433838,0.2959955036640167,-0.4326038658618927
1772717672699085000,7.4370849609375,2.6276485919952393,0.526644229888916,-0.48197898268699646
1772717672718957000,7.45695703125,2.9956884384155273,0.8820120096206665,-0.7050390839576721
1772717672738830000,7.476830078125,3.395324945449829,1.241877794265747,-1.0791698694229126
1772717672758702000,7.4967021484375,3.7792670726776123,1.3719843626022339,-1.4389630556106567
1772717672778575000,7.5165751953125,4.08416223526001,1.1351454257965088,-1.5072112083435059
1772717672798447000,7.536447021484375,4.294945240020752,0.6361174583435059,-1.2066479921340942
1772717672818320100,7.556320068359375,4.386343955993652,0.11198940128087997,-0.6345932483673096
1772717672838191900,7.57619189453125,4.365008354187012,-0.38528794050216675,0.05542768910527229
1772717672858065200,7.596065185546875,4.168797492980957,-0.7067736387252808,0.5949758887290955
1772717672877937200,7.615937255859375,3.7807326316833496,-0.7627827525138855,0.7971547245979309
1772717672897810000,7.635809814453125,3.2114837169647217,-0.5925273895263672,0.8023645281791687
1772717672917683200,7.65568310546875,2.4469993114471436,-0.41299644112586975,0.9488296508789062
1772717672937555200,7.67555517578125,1.6161381006240845,-0.3251068890094757,1.179831624031067
1772717672957427700,7.695427734375,0.9085898995399475,-0.1624845713376999,1.2448010444641113
1772717672977300000,7.715300048828125,0.4413186311721802,0.0807609111070633,0.9735301733016968
1772717672997172700,7.7351728515625,0.048658210784196854,0.2302902340888977,0.4759945273399353
1772717673017044700,7.755044677734375,-0.3361893594264984,0.13966676592826843,0.08459299802780151
1772717673036918000,7.77491796875,-0.5819580554962158,-0.10843203961849213,-0.09460640698671341
1772717673056789800,7.794789794921875,-0.6622260808944702,-0.4281533360481262,-0.07821576297283173
1772717673076662800,7.814662841796875,-0.5816851854324341,-0.8131771683692932,0.07591714709997177
1772717673096535000,7.83453515625,-0.37945738434791565,-1.2619060277938843,0.35837745666503906
1772717673116407800,7.85440771484375,-0.12804678082466125,-1.7661153078079224,0.7557153701782227
1772717673136279800,7.87427978515625,0.12116289883852005,-2.3457911014556885,1.2060916423797607
1772717673156153000,7.894153076171875,0.30409756302833557,-2.816753625869751,1.5689904689788818
1772717673176024800,7.91402490234375,0.3637990355491638,-3.295689344406128,1.7178562879562378
1772717673195897900,7.93389794921875,0.22080719470977783,-3.8181560039520264,1.8297184705734253
1772717673215769900,7.953769775390625,-0.26555800437927246,-4.371337890625,2.5082650184631348
1772717673235643000,7.973642822265625,-1.171247124671936,-4.3821635246276855,3.1527833938598633
1772717673255515000,7.993514892578125,-2.121124267578125,-4.060649871826172,2.8111016750335693
1772717673275387600,8.0133876953125,-2.7563297748565674,-3.374912977218628,1.9518558979034424
1772717673295260000,8.033260009765625,-3.425736427307129,-2.073944091796875,1.1584604978561401
1772717673315133000,8.0531328125,-4.15566873550415,-0.6599714756011963,0.6459679007530212
1772717673335005700,8.073005615234376,-4.382230758666992,0.632580041885376,0.6817746162414551
1772717673354878000,8.0928779296875,-4.229259967803955,1.394174337387085,1.3228363990783691
1772717673374751000,8.1127509765625,-4.022488117218018,1.2180382013320923,2.1595253944396973
1772717673394622700,8.132622802734375,-3.9401352405548096,0.872146487236023,2.8365979194641113
1772717673414496000,8.15249609375,-3.784247875213623,0.6690461039543152,3.243618965148926
1772717673434368000,8.172367919921875,-3.49812388420105,0.6261399984359741,3.4125514030456543
1772717673454240800,8.19224072265625,-3.2211761474609375,0.6409131288528442,3.3527636528015137
1772717673474112800,8.21211279296875,-3.0215811729431152,0.9010950922966003,3.017941951751709
1772717673493985800,8.23198583984375,-2.847163438796997,1.7202659845352173,2.515023708343506
1772717673513857800,8.25185791015625,-2.800356388092041,3.106501817703247,1.8104655742645264
1772717673533730800,8.271730712890625,-2.717531681060791,4.664158821105957,0.989262044429779
1772717673553602800,8.291602783203125,-2.488290548324585,5.891931533813477,0.46378809213638306
1772717673573475800,8.311475830078125,-2.1937060356140137,6.444228172302246,0.36134669184684753
1772717673593347800,8.331347900390625,-1.7370975017547607,6.191940784454346,0.5137083530426025
1772717673613220900,8.351220947265626,-1.2047111988067627,5.323702335357666,0.886198103427887
1772717673633092900,8.3710927734375,-0.6694155931472778,4.285466194152832,1.2986092567443848
1772717673652966000,8.3909658203125,-0.18595102429389954,3.5501012802124023,1.4877861738204956
1772717673672838000,8.410837890625,0.2871132791042328,3.1543591022491455,1.2612509727478027
1772717673692711000,8.4307109375,0.5699451565742493,2.685464859008789,0.9607224464416504
1772717673712583000,8.4505830078125,0.803422212600708,2.310333013534546,0.7237246632575989
1772717673732456000,8.4704560546875,0.9987072348594666,2.2068843841552734,0.49479779601097107
1772717673752329000,8.490328857421876,1.2201964855194092,2.684157371520996,0.1405494064092636
1772717673772200700,8.51020068359375,1.5346972942352295,2.804342746734619,-0.6316333413124084
1772717673792074000,8.530073974609374,1.909720778465271,2.844716787338257,-1.3788210153579712
1772717673811946000,8.549946044921874,1.8559614419937134,3.844980001449585,-2.065986394882202
1772717673831818800,8.56981884765625,1.4562197923660278,2.823967695236206,-2.7947990894317627
1772717673851690800,8.589690673828125,0.8302335143089294,1.3220572471618652,-2.4760897159576416
1772717673871564000,8.60956396484375,0.24866530299186707,-0.6565606594085693,-1.1392295360565186
1772717673891435800,8.629435791015625,-0.2959451377391815,-1.6362138986587524,-0.13910484313964844
1772717673911308800,8.649308837890626,-0.7155677080154419,-1.758963704109192,-0.20442798733711243
1772717673931181000,8.66918115234375,-0.8427862524986267,-1.391959309577942,-0.5261491537094116
1772717673951053800,8.6890537109375,-1.0726419687271118,-0.928336501121521,-0.9178680181503296
1772717673970925000,8.708925048828124,-1.228072166442871,0.06956810504198074,-0.8326539397239685
1772717673990798000,8.728798095703125,-1.2003499269485474,0.4617619514465332,-0.4869539439678192
1772717674010669800,8.748669921875,-1.1734787225723267,0.13140162825584412,0.06767681986093521
1772717674030543000,8.768543212890625,-0.9868143796920776,-0.4684793949127197,0.9869861602783203
1772717674050415000,8.7884150390625,-0.3460969626903534,-0.7987302541732788,1.8182754516601562
1772717674070288000,8.808287841796876,0.4911641776561737,-0.7202935814857483,2.0622975826263428
1772717674090159900,8.828159912109374,0.9974367618560791,-0.559268057346344,1.837232232093811
1772717674110033200,8.848033203125,1.0692853927612305,-0.01446072943508625,1.418012022972107
1772717674129905000,8.86790478515625,1.0033680200576782,0.5707877278327942,0.7585515379905701
1772717674149778000,8.88777783203125,0.7723849415779114,0.48880454897880554,0.08220495283603668
1772717674169650200,8.907650146484375,0.5171189904212952,0.42262002825737,-0.17744150757789612
1772717674189523000,8.92752294921875,0.22669127583503723,0.21777498722076416,-0.1134253442287445
1772717674209396000,8.94739599609375,0.07442822307348251,-0.015944525599479675,0.13939553499221802
1772717674229268000,8.96726806640625,0.03021419048309326,-0.1402355134487152,0.35780763626098633
1772717674249141000,8.98714111328125,-0.03193280100822449,-0.19028617441654205,0.32269516587257385
1772717674269013000,9.007012939453125,-0.0010306406766176224,-0.08014311641454697,0.2437266707420349
1772717674288886000,9.026885986328125,0.11134326457977295,0.07076511532068253,0.26544705033302307
1772717674308758000,9.046758056640625,0.2206190526485443,0.28854501247406006,0.2506546080112457
1772717674328631000,9.066631103515626,0.3187497556209564,0.5271329283714294,0.19827257096767426
1772717674348502800,9.086502685546876,0.4185071587562561,0.6440955400466919,0.2179933786392212
1772717674368376000,9.1063759765625,0.48811036348342896,0.5573717951774597,0.2538847029209137
1772717674388248000,9.126248046875,0.5628317594528198,0.4908922612667084,0.29386675357818604
1772717674408120800,9.146120849609375,0.6351410746574402,0.3634083867073059,0.34726059436798096
1772717674427993000,9.1659931640625,0.6076285243034363,0.050790682435035706,0.6249052286148071
1772717674447865900,9.185865966796875,0.49558109045028687,-0.4092610478401184,0.5031649470329285
1772717674467737900,9.20573779296875,0.3149714171886444,-0.4822229743003845,0.18412156403064728
1772717674487611100,9.225611083984376,0.23323149979114532,-0.5069195628166199,-0.10138692706823349
1772717674507483000,9.24548291015625,0.12724632024765015,-0.36218535900115967,-0.3261573314666748
