time,seconds_elapsed,z,y,x
1772717218640104000,0.06110400390625,0.11007004231214523,-0.5218836665153503,0.1941889226436615
1772717218660135000,0.081135009765625,0.09148544073104858,-0.6192589998245239,0.2058008313179016
1772717218680166700,0.101166748046875,0.04681810364127159,-0.7526098489761353,0.21297405660152435
1772717218700197600,0.12119775390625,0.032293226569890976,-0.6732926368713379,0.13652509450912476
1772717218720229600,0.141229736328125,0.05065199360251427,-0.4369211196899414,0.08519931882619858
1772717218740260900,0.1612607421875,0.0442231222987175,-0.3707770109176636,0.10136204212903976
1772717218760291800,0.181291748046875,0.003796602366492152,-0.4271169602870941,0.0815017819404602
1772717218780323800,0.20132373046875,0.007875233888626099,-0.40832170844078064,0.031038343906402588
1772717218800354800,0.221354736328125,0.013659886084496975,-0.2513139843940735,-0.024888571351766586
1772717218820386600,0.241386474609375,0.015088139101862907,-0.18138577044010162,-0.061049770563840866
1772717218840417500,0.26141748046875,0.01525911409407854,-0.18719039857387543,-0.06296591460704803
1772717218860450000,0.281449951171875,0.030187197029590607,-0.20292940735816956,-0.07723193615674973
1772717218880481000,0.30148095703125,0.04391099885106087,-0.1709432452917099,-0.059597283601760864
1772717218900513000,0.321512939453125,0.05314071476459503,-0.04615391418337822,-0.05895732715725899
1772717218920544000,0.3415439453125,0.05952164903283119,-0.01618003472685814,-0.03600567206740379
1772717218940576000,0.361575927734375,0.05680682510137558,-0.07104940712451935,-0.035654932260513306
1772717218960607000,0.38160693359375,0.041909631341695786,-0.11748641729354858,-0.05228877067565918
1772717218980639000,0.401638916015625,0.03851170465350151,-0.08123147487640381,-0.07046058028936386
1772717219000670000,0.421669921875,0.02389627881348133,-0.043842289596796036,-0.058810051530599594
1772717219020702200,0.4417021484375,0.018277807161211967,-0.010628409683704376,-0.046792272478342056
1772717219040733200,0.461733154296875,0.02376418560743332,-0.016774186864495277,0.008223309181630611
1772717219060765000,0.481764892578125,0.009762083180248737,-0.0001613875647308305,0.001407480682246387
1772717219080796000,0.5017958984375,-0.004611263517290354,0.012036156840622425,0.008172442205250263
1772717219100828000,0.521827880859375,0.008826514706015587,0.037574540823698044,-0.003919640555977821
1772717219120859000,0.54185888671875,0.025793779641389847,0.0036370791494846344,-0.007681355345994234
1772717219140891100,0.56189111328125,0.018037322908639908,-0.02792910300195217,-0.03248204290866852
1772717219160922000,0.581922119140625,0.024638500064611435,-0.019298596307635307,-0.01497921533882618
1772717219180953900,0.601953857421875,0.030721427872776985,0.014506238512694836,-0.006639260333031416
1772717219200984800,0.62198486328125,0.03374571353197098,0.027544276788830757,-0.008243815042078495
1772717219221017000,0.64201708984375,0.025106152519583702,0.01326919998973608,-0.0015049523208290339
1772717219241048000,0.662048095703125,0.010066748596727848,-0.05417855083942413,-0.01582716591656208
1772717219261080000,0.682080078125,-0.01010962575674057,-0.09310757368803024,-0.018013088032603264
1772717219281111000,0.702111083984375,-0.015808790922164917,-0.07448701560497284,-0.03037974424660206
1772717219301143000,0.72214306640625,-0.02293434366583824,-0.08042214065790176,-0.060377854853868484
1772717219321174000,0.742174072265625,-0.03313132002949715,-0.09244044870138168,-0.0376746729016304
1772717219341206000,0.7622060546875,-0.014080931432545185,-0.11194703727960587,-0.015386679209768772
1772717219361237000,0.782237060546875,-0.019327891990542412,-0.13762949407100677,-0.010183394886553288
1772717219381269000,0.80226904296875,-0.03008360043168068,-0.06180264800786972,-0.007862450554966927
1772717219401300000,0.822300048828125,-0.0025385250337421894,0.02130262553691864,0.018742261454463005
1772717219421332200,0.842332275390625,0.019953735172748566,0.04543406143784523,-0.004131628200411797
1772717219441363200,0.86236328125,0.006112221162766218,0.004580636974424124,-0.0078059914521873
1772717219461394200,0.882394287109375,0.008832906372845173,0.02864549309015274,0.013186109252274036
1772717219481426000,0.902426025390625,0.02171648107469082,0.0399671234190464,0.00637880340218544
1772717219501457000,0.922456787109375,0.014578144066035748,0.005119128152728081,-0.03050757572054863
1772717219521489000,0.942489013671875,0.008524778299033642,0.00939137116074562,-0.027898741886019707
1772717219541520100,0.96252001953125,0.010206298902630806,0.05073055624961853,-0.0009835053933784366
1772717219561552100,0.98255224609375,0.01182337012141943,0.06348124146461487,0.013844442553818226
1772717219581583000,1.0025830078125,-0.0018279937794432044,0.038476817309856415,0.015331552363932133
1772717219601614800,1.02261474609375,0.00884941779077053,0.03888987377285957,-0.014421549625694752
1772717219621645800,1.042645751953125,0.0005976133397780359,0.02550908923149109,-0.00558065390214324
1772717219641678000,1.062677978515625,0.0024493092205375433,0.052443232387304306,0.023060312494635582
1772717219661709000,1.082708984375,0.011281150393188,0.04842585697770119,0.02828756347298622
1772717219681741000,1.102740966796875,0.010912834666669369,0.010615626350045204,-0.003168629016727209
1772717219701772000,1.12277197265625,0.013949637301266193,0.024342624470591545,-0.007582818623632193
1772717219721803800,1.1428037109375,0.02022058330476284,0.06021726876497269,0.002043443499132991
1772717219741835000,1.1628349609375,0.013085441663861275,0.05518202856183052,0.026105104014277458
1772717219761867000,1.182866943359375,-0.004035487771034241,0.027179423719644547,0.021445371210575104
1772717219781898000,1.20289794921875,-0.016217585653066635,0.037887461483478546,0.015984026715159416
1772717219801930000,1.222929931640625,-0.02263021096587181,0.0627957433462143,0.018514029681682587
1772717219821961000,1.2429609375,-0.03311480954289436,0.05157744139432907,0.025424666702747345
1772717219841993200,1.2629931640625,-0.04206090047955513,0.030586937442421913,0.03791782259941101
1772717219862024200,1.283024169921875,-0.04296823963522911,0.0397077314555645,0.019413111731410027
1772717219882056000,1.303055908203125,-0.03358805552124977,0.041253697127103806,-0.01309289876371622
1772717219902087000,1.3230869140625,-0.022585736587643623,0.02845720760524273,-0.025121863931417465
1772717219922119000,1.343118896484375,-0.024961275979876518,0.010151171125471592,0.011712316423654556
1772717219942150100,1.363150146484375,0.0014413028256967664,0.017910823225975037,0.012793825939297676
1772717219962182100,1.38318212890625,0.005765477195382118,0.04077539220452309,0.0038035267498344183
1772717219982213000,1.403213134765625,0.011517372913658619,0.033243972808122635,0.00848563015460968
1772717220002244900,1.423244873046875,0.00875194650143385,0.014011423103511333,0.01865650899708271
1772717220022275800,1.44327587890625,0.0038069887086749077,0.022527679800987244,0.02442038804292679
1772717220042308000,1.46330810546875,0.006357764359563589,0.04132773354649544,0.005966812372207642
1772717220062339000,1.483339111328125,0.012596485204994678,0.01847248338162899,-0.016282565891742706
1772717220082371000,1.50337109375,0.0020719394087791443,0.006019276566803455,-0.0008735168376006186
1772717220102402000,1.523402099609375,-0.008160191588103771,0.04367184638977051,0.026815634220838547
1772717220122433000,1.54343310546875,-0.01062228437513113,0.030315827578306198,0.021028053015470505
1772717220142465000,1.563465087890625,-0.007523696403950453,0.0021494373213499784,-0.009278719313442707
1772717220162496000,1.58349609375,-0.008248874917626381,0.005271727219223976,-0.014651380479335785
1772717220182528000,1.603528076171875,-0.0011209244839847088,0.023090405389666557,-0.009103217162191868
1772717220202559000,1.62355908203125,0.013162140734493732,0.007938616909086704,-0.03817348554730415
1772717220222591000,1.643591064453125,0.028420988470315933,-0.04548386111855507,-0.035662390291690826
1772717220242622200,1.663622314453125,0.023080551996827126,-0.028252942487597466,-0.022300245240330696
1772717220262654000,1.683654052734375,0.0432119183242321,0.004503405187278986,-0.02726144902408123
1772717220282685000,1.703684814453125,0.050868771970272064,-0.0363398976624012,-0.04808070883154869
1772717220302717000,1.723717041015625,0.04788230359554291,-0.07600848376750946,-0.043778374791145325
1772717220322748000,1.743747802734375,0.052681852132081985,-0.04861760139465332,-0.045406363904476166
1772717220342780200,1.7637802734375,0.05434233322739601,-0.007302920334041119,-0.018311096355319023
1772717220362811100,1.78381103515625,0.0424710288643837,0.009551427327096462,-0.017404023557901382
1772717220382843100,1.803843017578125,0.035838689655065536,0.032172851264476776,-0.004450674634426832
1772717220402874000,1.8238740234375,0.028809543699026108,0.03164101764559746,-0.0039854203350842
1772717220422905900,1.84390576171875,0.01781894452869892,-0.0036458675749599934,-0.017249826341867447
1772717220442937000,1.86393701171875,0.0010282464791089296,0.02063976414501667,-0.012382900342345238
1772717220462969000,1.883968994140625,-0.009183111600577831,0.04544444754719734,-0.0034708979073911905
1772717220483000000,1.904,-0.01019937451928854,0.026613235473632812,-0.019238675013184547
1772717220503032000,1.924031982421875,-0.013319799676537514,0.008105597458779812,-0.03068600781261921
1772717220523063000,1.94406298828125,-0.009378321468830109,0.02491760067641735,-0.012048939242959023
1772717220543095000,1.964094970703125,-0.014101704582571983,0.019768910482525826,0.002007490722462535
1772717220563126000,1.9841259765625,-0.01786714792251587,-0.01366281509399414,-0.01894412934780121
1772717220583158000,2.004157958984375,-0.0012809804175049067,-0.05596606433391571,-0.037871215492486954
1772717220603189000,2.02418896484375,-0.009216934442520142,-0.06890050321817398,-0.05852882191538811
1772717220623221000,2.044220947265625,-0.023903734982013702,-0.05921299010515213,-0.07339831441640854
1772717220643252200,2.064252197265625,0.0013789847726002336,-0.04238447546958923,-0.0629054605960846
1772717220663284000,2.084283935546875,0.027824973687529564,-0.059899553656578064,-0.025254489853978157
1772717220683315000,2.10431494140625,0.024533838033676147,-0.06996763497591019,-0.03449485823512077
1772717220703347000,2.124346923828125,0.023567643016576767,-0.03268204629421234,-0.0029555761720985174
1772717220723378000,2.1443779296875,0.025115473195910454,0.029284652322530746,0.03404558449983597
1772717220743409000,2.164408935546875,0.014226073399186134,0.02659698948264122,0.04953213408589363
1772717220763441200,2.184441162109375,0.0073194317519664764,0.0017132115317508578,0.020429907366633415
1772717220783472000,2.20447216796875,0.013700898736715317,0.0027334685437381268,-0.012548549100756645
1772717220803503900,2.22450390625,0.003683684393763542,0.023434752598404884,-0.010733338072896004
1772717220823534800,2.244534912109375,0.013066001236438751,0.03893940895795822,0.0026019082870334387
1772717220843567000,2.264567138671875,0.009785785339772701,0.017941715195775032,-0.021377727389335632
1772717220863597300,2.284597412109375,-0.007275223266333342,0.0003406183095648885,-0.033780865371227264
1772717220883629600,2.304629638671875,0.0016016251174733043,0.030428744852542877,-0.018758241087198257
1772717220903660500,2.32466064453125,-0.002067944500595331,0.013493171893060207,-0.005822469014674425
1772717220923692500,2.344692626953125,-0.003326021833345294,0.00028575718170031905,-0.011669971980154514
1772717220943723500,2.3647236328125,0.009863816201686859,0.02213512919843197,-0.007254983298480511
1772717220963755300,2.38475537109375,0.017461813986301422,0.0059969061985611916,-0.03313504904508591
1772717220983786500,2.404786376953125,0.015562980435788631,-0.01950552500784397,-0.020015252754092216
1772717221003818500,2.424818603515625,0.021866150200366974,0.02082725055515766,0.02979225106537342
1772717221023849500,2.444849365234375,0.030777620151638985,0.05420731380581856,0.016080167144536972
1772717221043881500,2.464881591796875,0.030223149806261063,0.03134966641664505,-0.001490304945036769
1772717221063912400,2.484912353515625,0.02821991965174675,0.006118878722190857,-0.013434582389891148
1772717221083944400,2.5049443359375,0.022521287202835083,0.012663330882787704,0.005345496814697981
1772717221103975400,2.524975341796875,0.010231864638626575,0.020769193768501282,-0.0017425062833353877
1772717221124007400,2.54500732421875,0.014798386953771114,0.052196357399225235,-0.006569219287484884
1772717221144038400,2.565038330078125,0.010324542410671711,0.05862709507346153,0.004992095287889242
1772717221164070400,2.5850703125,-0.0006079996819607913,0.0024658208712935448,0.0057798586785793304
1772717221184101600,2.6051015625,-0.007469101343303919,0.01625460386276245,-0.004573712591081858
1772717221204133600,2.625133544921875,0.0003605920064728707,0.05064426735043526,0.02745000086724758
1772717221224164600,2.64516455078125,-0.01227530837059021,0.0597112663090229,0.03158801794052124
1772717221244196400,2.6651962890625,-0.003999535460025072,0.051289018243551254,0.026011360809206963
1772717221264227300,2.685227294921875,0.006685333326458931,-0.003915379289537668,-0.01788126304745674
1772717221284259600,2.705259521484375,0.006430734880268574,-0.009949835948646069,-0.01661492884159088
1772717221304290600,2.72529052734375,0.014168815687298775,0.04609479010105133,0.023095199838280678
1772717221324322600,2.745322509765625,0.01320874597877264,0.029940322041511536,0.031562186777591705
1772717221344353500,2.765353515625,0.007523163687437773,-0.022336730733513832,0.006143379956483841
1772717221364385300,2.78538525390625,0.006029130425304174,0.013495302759110928,0.014523016288876534
1772717221384416500,2.80541650390625,0.005116731394082308,0.039196405559778214,0.02496793307363987
1772717221404448500,2.825448486328125,-0.006618221756070852,0.030228210613131523,0.014132330194115639
1772717221424479500,2.8454794921875,-0.00035952674807049334,0.011183411814272404,0.02219691500067711
1772717221444511500,2.865511474609375,0.00436012726277113,0.012884106487035751,0.012548549100756645
1772717221464542500,2.88554248046875,-0.0026812704745680094,0.026936808601021767,0.002651176881045103
1772717221484573400,2.905573486328125,0.0009747169679030776,0.0230517890304327,-0.009184443391859531
1772717221504605400,2.92560546875,-0.00001864212754298933,-0.026737870648503304,-0.002752643311396241
1772717221524636400,2.945636474609375,0.012179700657725334,-0.008473912253975868,-0.017522800713777542
1772717221544668400,2.96566845703125,0.007652859669178724,-0.0032554480712860823,0.00205249828286469
1772717221564699400,2.985699462890625,0.011029215529561043,-0.025893116369843483,0.002567553659901023
1772717221584731600,3.005731689453125,0.005126585252583027,-0.051959868520498276,0.021282119676470757
1772717221604762600,3.0257626953125,0.007128483150154352,-0.007646468002349138,0.04622155800461769
1772717221624794400,3.04579443359375,0.01477814745157957,0.03726827725768089,0.023865118622779846
1772717221644825300,3.065825439453125,0.01170619111508131,0.02268640324473381,0.0059420447796583176
1772717221664857300,3.085857421875,0.011725631542503834,0.018394719809293747,0.0030309436842799187
1772717221684888300,3.105888427734375,0.009786051698029041,-0.004326837603002787,-0.009664611890912056
1772717221704920600,3.125920654296875,-0.005508216097950935,-0.010574613697826862,0.000055393749789800495
1772717221724951600,3.14595166015625,-0.0035334820859134197,0.040766872465610504,0.017856495454907417
1772717221744983600,3.165983642578125,0.0013382384786382318,0.051053594797849655,0.003600061172619462
1772717221765014500,3.1860146484375,0.00222027744166553,0.013797038234770298,-0.029829001054167747
1772717221785046500,3.206046630859375,0.006975617725402117,-0.015300393104553223,-0.027817515656352043
1772717221805077500,3.226077392578125,0.006108226254582405,0.014634336344897747,0.013077186420559883
1772717221825109500,3.246109619140625,0.012928315438330173,0.04694167524576187,0.04517040774226189
1772717221845140500,3.266140380859375,0.010750115849077702,0.029211947694420815,0.031063910573720932
1772717221865173200,3.28617333984375,0.014483335427939892,-0.006191316992044449,0.001121457084082067
1772717221885204200,3.306204345703125,0.013037504628300667,-0.0046506780199706554,0.010358098894357681
1772717221905236200,3.326236328125,0.009281382896006107,0.040820132941007614,0.03241466358304024
1772717221925267200,3.34626708984375,0.007405984681099653,0.05012015998363495,0.019524432718753815
1772717221945299200,3.36629931640625,0.013801832683384418,0.01846129819750786,-0.026315493509173393
1772717221965330200,3.386330078125,0.006914365105330944,-0.011987420730292797,-0.026641996577382088
1772717221985362200,3.406362060546875,0.002805906580761075,0.015515576116740704,0.02099343203008175
1772717222005393200,3.42639306640625,0.00808828603476286,0.038599856197834015,0.024332236498594284
1772717222025425200,3.446425048828125,-0.0017544905422255397,0.029494509100914,0.008228901773691177
1772717222045456100,3.4664560546875,0.006560963578522205,0.036073315888643265,0.024569790810346603
1772717222065488400,3.48648828125,0.009614277631044388,-0.000857005245052278,0.05421796441078186
1772717222085519400,3.506519287109375,-0.0014631407102569938,-0.0060387179255485535,0.024838769808411598
1772717222105551400,3.52655126953125,0.009518403559923172,0.022343123331665993,0.0002790992730297148
1772717222125582300,3.546582275390625,0.017233582213521004,0.03472016379237175,-0.0181177519261837
1772717222145614000,3.566614013671875,0.010154366493225098,0.013734187930822372,-0.017605358734726906
1772717222165645000,3.58664501953125,0.008215319365262985,-0.0009973538108170033,-0.0028724854346364737
1772717222185677300,3.60667724609375,0.004459196701645851,0.03479180112481117,0.0065652248449623585
1772717222205708300,3.626708251953125,0.007908256724476814,0.05109540745615959,-0.002805640222504735
1772717222225740300,3.646740234375,0.00487305223941803,0.021337246522307396,-0.021390775218605995
1772717222245771300,3.666771240234375,0.006302903406322002,0.002403236459940672,0.007274956908077002
1772717222265803300,3.68680322265625,-0.000556334329303354,0.02190689742565155,0.035477567464113235
1772717222285834200,3.706834228515625,0.002898051869124174,0.03635268285870552,0.04933026432991028
1772717222305866200,3.7268662109375,0.0006415555253624916,0.04843970388174057,0.052974000573158264
1772717222325897200,3.746897216796875,0.0067750816233456135,0.02311037853360176,0.051897820085287094
1772717222345929200,3.76692919921875,0.015515842474997044,-0.0010551444720476866,0.041320543736219406
1772717222365960200,3.786960205078125,0.0080925477668643,0.022478410974144936,0.0347563810646534
1772717222385992200,3.8069921875,0.014275874942541122,0.03837242349982262,0.0255703404545784
1772717222406023200,3.827023193359375,0.015849003568291664,0.025651566684246063,-0.0019057580502703786
1772717222426055200,3.84705517578125,0.018613098189234734,0.0023936491925269365,-0.004437092691659927
1772717222446086100,3.867086181640625,0.028537901118397713,0.02160702459514141,-0.004135356284677982
1772717222466118400,3.887118408203125,0.03181865066289902,0.015360314399003983,-0.02581588365137577
1772717222486149400,3.9071494140625,0.01996971294283867,0.011351724155247211,-0.024323714897036552
1772717222506180400,3.927180419921875,0.017107879742980003,0.030608242377638817,0.0013728595804423094
1772717222526212000,3.947212158203125,0.011948804371058941,0.009915747679769993,0.016115320846438408
1772717222546243000,3.9672431640625,0.011722702533006668,-0.0019592875614762306,0.013689713552594185
1772717222566275000,3.987275146484375,0.00740225613117218,0.009845972992479801,0.01673636958003044
1772717222586304300,4.00730419921875,0.005915679503232241,0.03261386975646019,0.00800439715385437
1772717222606335200,4.027335205078125,0.00788269005715847,0.02081926167011261,-0.024148212745785713
1772717222626367200,4.0473671875,0.003930825740098953,-0.022116754204034805,-0.032876189798116684
1772717222646398200,4.067398193359375,-0.003805390791967511,-0.01912629045546055,-0.04622235521674156
1772717222666430200,4.08743017578125,-0.024416126310825348,-0.008023039437830448,-0.039556462317705154
1772717222686461200,4.107461181640625,-0.04302683100104332,0.017941715195775032,-0.03750316798686981
1772717222706493200,4.1274931640625,-0.05096438154578209,0.018217619508504868,-0.023744210600852966
1772717222726524200,4.147524169921875,-0.05800071731209755,0.0023968450259417295,-0.024335432797670364
1772717222746556200,4.16755615234375,-0.07167285680770874,0.005932990461587906,-0.03659769147634506
1772717222766587100,4.187587158203125,-0.06509324908256531,0.021757226437330246,-0.025979403406381607
1772717222786618000,4.2076181640625,-0.0674876943230629,0.009892844595015049,-0.011811385862529278
1772717222806650000,4.227650146484375,-0.06276751309633255,-0.014396515674889088,-0.012374111451208591
1772717222826681000,4.24768115234375,-0.06121302396059036,-0.023619575425982475,-0.02002670429646969
1772717222846713300,4.26771337890625,-0.061947256326675415,0.0014349111588671803,-0.009839048609137535
1772717222866743800,4.287743896484375,-0.05756369233131409,0.025728000327944756,0.026520024985074997
1772717222886776000,4.307776123046875,-0.0538584366440773,0.03125352784991264,0.0645824521780014
1772717222906807000,4.32780712890625,-0.04189951345324516,0.00989470910280943,0.06648608297109604
1772717222926838800,4.3478388671875,-0.03798306733369827,0.006970025133341551,0.0592031367123127
1772717222946869800,4.367869873046875,-0.025778068229556084,0.03444213047623634,0.08238888531923294
1772717222966901800,4.38790185546875,-0.020494090393185616,0.03198802471160889,0.08719828724861145
1772717222986934000,4.40793408203125,-0.022368688136339188,0.023064572364091873,0.0820208340883255
1772717223006965800,4.4279658203125,-0.008334629237651825,0.05675489082932472,0.0644969642162323
1772717223026996700,4.447996826171875,0.00024154871061909944,0.038416631519794464,0.047382161021232605
1772717223047028700,4.46802880859375,0.0014596786350011826,-0.0029878003988415003,0.07270029932260513
1772717223067059700,4.488059814453125,-0.0006157228490337729,0.011539743281900883,0.11100028455257416
1772717223087092000,4.508092041015625,-0.003822967642918229,0.03883181884884834,0.0933922678232193
1772717223107123000,4.528123046875,-0.010877680964767933,0.027948010712862015,0.04471394047141075
1772717223127155000,4.548155029296875,-0.01079645473510027,0.012592490762472153,0.03531058505177498
1772717223147186000,4.56818603515625,-0.01056209672242403,0.013147493824362755,0.0641251876950264
1772717223167218000,4.588218017578125,-0.015497200191020966,0.028558939695358276,0.05278278887271881
1772717223187249000,4.608248779296875,-0.010861702263355255,0.033493246883153915,0.040762610733509064
1772717223207281000,4.628281005859375,-0.008623582310974598,0.016230635344982147,0.03784405067563057
1772717223227311900,4.648311767578125,-0.0004034689045511186,0.012711001560091972,0.04152640327811241
1772717223247343900,4.66834375,0.008897621184587479,0.012573848478496075,0.031329959630966187
1772717223267374800,4.688374755859375,0.001767273643054068,0.002353968098759651,0.018101505935192108
1772717223287406800,4.70840673828125,0.00968591682612896,0.014543522149324417,0.01961551234126091
1772717223307437800,4.728437744140625,0.009341304190456867,0.01721147820353508,0.03295954689383507
1772717223327469800,4.7484697265625,0.010371414013206959,0.006116481963545084,0.03267831727862358
1772717223347500800,4.768500732421875,0.0008767126128077507,0.011403655633330345,0.027817515656352043
1772717223367533000,4.788532958984375,-0.00752129964530468,0.022823557257652283,0.03188123553991318
1772717223387564000,4.80856396484375,-0.01179354265332222,0.014404505491256714,0.01830230839550495
1772717223407595800,4.828595703125,-0.017118532210588455,-0.005739111918956041,0.02082085981965065
1772717223427626800,4.848626708984375,-0.029500367119908333,0.011965316720306873,0.03350016847252846
1772717223447658800,4.86865869140625,-0.039808399975299835,0.029221534729003906,0.023516245186328888
1772717223467689700,4.888689697265625,-0.05283977836370468,0.03130199760198593,-0.006191583350300789
1772717223487722000,4.908721923828125,-0.057250771671533585,0.019649866968393326,-0.012556537985801697
1772717223507753000,4.9287529296875,-0.056833986192941666,0.0047060721553862095,0.004562527406960726
1772717223527784700,4.94878466796875,-0.06765387952327728,0.019828831776976585,0.00872158631682396
1772717223547815700,4.968815673828125,-0.09862803667783737,0.039095472544431686,0.04605377838015556
1772717223567848000,4.988847900390625,-0.04548013210296631,0.04988127201795578,0.05217398703098297
1772717223587879000,5.00887890625,-0.009040100499987602,0.012614594772458076,0.01937476359307766
1772717223607911000,5.028910888671875,-0.018748121336102486,-0.027180753648281097,0.014297712594270706
1772717223627942000,5.04894189453125,-0.014330203644931316,0.015087073668837547,0.028933381661772728
1772717223647974000,5.068973876953125,-0.013495835475623608,0.033914290368556976,0.045349638909101486
1772717223668004900,5.0890048828125,-0.015748336911201477,-0.012675315141677856,0.028551749885082245
1772717223688036900,5.109036865234375,-0.01866050250828266,-0.020421385765075684,0.004378503188490868
1772717223708067800,5.12906787109375,-0.01949220895767212,0.007451258134096861,0.016470586881041527
1772717223728099800,5.149099853515625,-0.03477049618959427,0.030015423893928528,0.030793067067861557
1772717223748130800,5.169130859375,-0.040227580815553665,0.04247262701392174,-0.0033478597179055214
1772717223768163000,5.1891630859375,-0.038532745093107224,0.0189041830599308,-0.055622782558202744
1772717223788194000,5.209194091796875,-0.03308045491576195,0.011261442676186562,-0.0480724535882473
1772717223808225800,5.229225830078125,-0.04372910410165787,0.024100542068481445,-0.007370298262685537
1772717223828256800,5.2492568359375,-0.04453204944729805,0.0327928327023983,-0.004593420308083296
1772717223848288800,5.269288818359375,-0.040407609194517136,0.01417360920459032,-0.019826434552669525
1772717223868319000,5.289319091796875,-0.03327353298664093,0.00498117646202445,-0.02165123261511326
1772717223888351200,5.309351318359375,-0.028179973363876343,-0.003793140407651663,0.013016732409596443
1772717223908382200,5.32938232421875,-0.03376089408993721,0.00986461527645588,0.025598037987947464
1772717223928414200,5.349414306640625,-0.02496766857802868,0.026333602145314217,0.02389441430568695
1772717223948445200,5.369445068359375,-0.0062424493953585625,0.022824356332421303,0.007680290378630161
1772717223968477200,5.389477294921875,0.002305764937773347,-0.010163421742618084,0.005652026738971472
1772717223988508200,5.409508056640625,0.006478139199316502,-0.0018271948210895061,0.03142450004816055
1772717224008540200,5.4295400390625,0.0013619405217468739,0.010058759711682796,0.03212225064635277
1772717224028571100,5.449571044921875,0.0024836640805006027,0.001996838254854083,0.014037521556019783
1772717224048603100,5.46960302734375,-0.003615241264924407,0.007239004597067833,0.02737276814877987
1772717224068634000,5.489634033203125,-0.008234228007495403,0.008876049891114235,0.04866740480065346
1772717224088666000,5.509666015625,-0.005577724426984787,0.0031372036319226027,0.026487000286579132
1772717224108697000,5.529697021484375,-0.018005898222327232,0.016150208190083504,0.02148505114018917
1772717224128729000,5.54972900390625,-0.010329603217542171,0.023980699479579926,0.022368421778082848
1772717224148760000,5.569760009765625,-0.017953965812921524,0.013075055554509163,0.03238004446029663
1772717224168792300,5.589792236328125,-0.018316157162189484,-0.0025630262680351734,0.03942437097430229
1772717224188823300,5.6098232421875,-0.02130315825343132,-0.006129531655460596,0.04256317391991615
1772717224208855000,5.62985498046875,-0.01372167095541954,0.013656157068908215,0.02478417567908764
1772717224228886000,5.649885986328125,-0.008235027082264423,0.008482434786856174,0.028141090646386147
1772717224248918000,5.66991796875,-0.0013454289874061942,0.012569054961204529,0.012732839211821556
1772717224268949000,5.689948974609375,0.003981692250818014,0.01236558984965086,0.00566880451515317
1772717224288981200,5.709981201171875,0.010084325447678566,0.016414659097790718,-0.009673666208982468
1772717224309012200,5.73001220703125,0.021733257919549942,0.0017177389236167073,-0.007107710465788841
1772717224329044200,5.750044189453125,0.023906931281089783,0.00005273058923194185,0.0019539613276720047
1772717224349075200,5.7700751953125,0.02419029176235199,0.00040772996726445854,-0.005203284323215485
1772717224369107200,5.790107177734375,0.018024273216724396,0.009315471164882183,-0.008560464717447758
1772717224389138200,5.81013818359375,0.01696460321545601,0.0536283403635025,0.0013169331941753626
1772717224409170200,5.830170166015625,0.018136659637093544,0.03402081876993179,-0.004341219086199999
1772717224429201200,5.850201171875,-0.0012072109384462237,-0.0014181332662701607,-0.028565332293510437
1772717224449233200,5.870233154296875,0.0033800839446485043,0.013915282674133778,-0.023261912167072296
1772717224469264100,5.89026416015625,0.00675164582207799,0.038356177508831024,-0.009053150191903114
1772717224489296100,5.910296142578125,0.0116135124117136,0.021791847422719002,0.002172074280679226
1772717224509327000,5.9303271484375,0.026586337015032768,-0.01116503681987524,-0.0016080166678875685
1772717224529359000,5.950359130859375,0.01360316015779972,-0.019751600921154022,0.012752813287079334
1772717224549390000,5.97039013671875,0.01441169623285532,0.030002107843756676,0.024463264271616936
1772717224569422300,5.99042236328125,0.018128937110304832,0.031076159328222275,0.017416274175047874
1772717224589453300,6.010453369140625,0.01173495315015316,-0.009424660354852676,0.01853959634900093
1772717224609485000,6.030485107421875,0.015675365924835205,0.007327953819185495,0.015341938473284245
1772717224629516000,6.05051611328125,0.013544837012887001,0.02143232151865959,0.01991671696305275
1772717224649548000,6.070548095703125,0.017966749146580696,0.015292403288185596,-0.00577826052904129
1772717224669579000,6.0905791015625,0.019058646634221077,0.0054299188777804375,-0.01014185044914484
1772717224689611300,6.110611328125,0.015924105420708656,0.01769563928246498,0.005501025356352329
1772717224709642200,6.130642333984375,0.013273460790514946,0.018743326887488365,0.0018967032665386796
1772717224729674000,6.150674072265625,0.008894691243767738,0.021015003323554993,-0.002758502261713147
1772717224749705000,6.170705078125,0.010455836541950703,0.029152292758226395,-0.0059814597479999065
1772717224769737200,6.1907373046875,0.005150021053850651,0.020845361053943634,0.00006125270738266408
1772717224789768200,6.210768310546875,0.0018748653819784522,0.06738782674074173,0.04625644534826279
1772717224809800200,6.23080029296875,-0.013111807405948639,0.05500386282801628,0.035770513117313385
1772717224829831200,6.2508310546875,0.0014804512029513717,0.048296425491571426,0.039687756448984146
1772717224849863200,6.27086328125,-0.002575543010607362,0.048167530447244644,0.04675152525305748
1772717224869894400,6.290894287109375,-0.005407015793025494,0.02436898835003376,0.020806478336453438
1772717224889926400,6.310926513671875,0.003932423423975706,0.014221279881894588,0.0012474246323108673
1772717224909957400,6.330957275390625,0.0010178601369261742,0.03716734051704407,-0.0018210695125162601
1772717224929989600,6.35098974609375,0.010634801350533962,0.021881863474845886,0.008054197765886784
1772717224950020600,6.3710205078125,0.01751401275396347,-0.018629876896739006,0.0123658562079072
1772717224970052600,6.391052490234375,0.003740143496543169,0.0038519962690770626,0.038598526269197464
1772717224990083600,6.41108349609375,0.005848834291100502,0.04722397029399872,0.035897813737392426
1772717225010115300,6.431115234375,0.0031971249263733625,0.025123195722699165,0.020736703649163246
1772717225030146300,6.451146240234375,0.009471798315644264,-0.016118248924613,0.012882242910563946
1772717225050178600,6.471178466796875,0.004580370616167784,-0.0027286747936159372,0.008175638504326344
1772717225070209500,6.49120947265625,0.007012635935097933,0.005766542628407478,0.01925119198858738
1772717225090241500,6.511241455078125,0.008160191588103771,0.007424094248563051,0.018978483974933624
1772717225110273300,6.531273193359375,0.007663245778530836,-0.0033214944414794445,0.04201509431004524
1772717225130304500,6.551304443359375,-0.0020722055342048407,-0.0170250553637743,0.016831710934638977
1772717225150335500,6.57133544921875,-0.012745622545480728,0.01053386740386486,0.014060957357287407
1772717225170367500,6.591367431640625,-0.01330169104039669,0.04146035760641098,0.018856778740882874
1772717225190399500,6.6113994140625,-0.018877550959587097,0.02581215649843216,0.016571519896388054
1772717225210430500,6.631430419921875,-0.01212803553789854,-0.0020940436515957117,-0.019088206812739372
1772717225230462500,6.65146240234375,-0.014936339110136032,0.01053493283689022,-0.027789020910859108
1772717225250493400,6.671493408203125,-0.012475844472646713,0.04861387610435486,-0.010669422335922718
1772717225270525400,6.691525390625,-0.023974841460585594,0.03443680331110954,0.016636766493320465
1772717225290556400,6.711556396484375,-0.022421952337026596,0.011092864908277988,-0.006990265101194382
1772717225310588400,6.73158837890625,-0.030014358460903168,-0.00026045716367661953,-0.002537193475291133
1772717225330619600,6.75161962890625,-0.03412734344601631,0.017586717382073402,0.04104410484433174
1772717225350651400,6.7716513671875,-0.02629631944000721,0.03261999413371086,0.052270129323005676
1772717225370682400,6.791682373046875,-0.016638364642858505,0.016211725771427155,0.01895025558769703
1772717225390714400,6.81171435546875,-0.01763252355158329,-0.00224877311848104,-0.009006810374557972
1772717225410745300,6.831745361328125,-0.014731009490787983,-0.011591941118240356,0.02267548441886902
1772717225430777600,6.851777587890625,-0.019451195374131203,0.01841602474451065,0.046716637909412384
1772717225450808600,6.87180859375,-0.017720673233270645,0.0236483383923769,0.03284662961959839
1772717225470840600,6.891840576171875,-0.028713669627904892,0.005788114387542009,0.018979815766215324
1772717225490871600,6.91187158203125,-0.028121650218963623,0.012929913587868214,0.028605012223124504
1772717225510903600,6.931903564453125,-0.023546071723103523,0.019575566053390503,0.033786192536354065
1772717225530934500,6.9519345703125,-0.029571739956736565,0.008290420286357403,0.020109528675675392
1772717225550966500,6.971966552734375,-0.026545856148004532,0.03099386766552925,0.02377830073237419
1772717225570997500,6.99199755859375,-0.026032133027911186,0.024277376011013985,0.04441699758172035
1772717225591029500,7.012029541015625,-0.023185746744275093,-0.002728142309933901,0.046373091638088226
1772717225611060500,7.032060546875,-0.02658766880631447,-0.007354851812124252,0.04200603812932968
1772717225631092500,7.052092529296875,-0.027301128953695297,0.004189418628811836,0.04597415030002594
1772717225651123500,7.07212353515625,-0.037452567368745804,0.02725159376859665,0.04899763688445091
1772717225671155500,7.092155517578125,-0.03929787129163742,0.04542713612318039,0.03955406695604324
1772717225691186400,7.1121865234375,-0.03605547174811363,0.017582189291715622,0.028255872428417206
1772717225711218700,7.13221875,-0.0353073887526989,-0.005988650489598513,0.01912682317197323
1772717225731249700,7.152249755859375,-0.038552720099687576,0.007900266908109188,0.04954065382480621
1772717225751281400,7.172281494140625,-0.03296620398759842,0.0396728441119194,0.06629619747400284
1772717225771312400,7.1923125,-0.016409600153565407,0.028557341545820236,0.04508278891444206
1772717225791344400,7.212344482421875,-0.017855962738394737,-0.008669388480484486,0.038531944155693054
1772717225811375400,7.232375244140625,-0.027147997170686722,-0.0003587277897167951,0.06295739114284515
1772717225831407600,7.25240771484375,-0.03422641381621361,0.047275103628635406,0.08222802728414536
1772717225851438600,7.2724384765625,-0.03837588429450989,0.07559515535831451,0.08057553321123123
1772717225871470800,7.292470947265625,-0.043963730335235596,0.03840677812695503,0.07599996030330658
1772717225891501800,7.312501708984375,-0.05264776572585106,-0.0028386632911860943,0.08673889189958572
1772717225911534000,7.3325341796875,-0.0803728699684143,0.03825471177697182,0.11634418368339539
1772717225931565000,7.35256494140625,-0.07916352897882462,0.10707665234804153,0.09477365016937256
1772717225951597000,7.37259716796875,-0.08097021281719208,0.07708492875099182,0.04802398383617401
1772717225971628000,7.3926279296875,-0.08301126211881638,0.012589561752974987,0.028197016566991806
1772717225991659800,7.41265966796875,-0.08619534224271774,0.028907282277941704,0.02623293548822403
1772717226011691000,7.43269091796875,-0.07167365401983261,0.049849580973386765,-0.0057739997282624245
1772717226031723000,7.452722900390625,-0.06276697665452957,0.020060526207089424,-0.04226117208600044
1772717226051754000,7.47275390625,-0.04653074964880943,-0.005685582756996155,-0.011956527829170227
1772717226071786000,7.492785888671875,-0.035049330443143845,0.00820866134017706,0.023391874507069588
1772717226091817000,7.51281689453125,-0.0311062540858984,0.025466477498412132,0.02750672586262226
1772717226111849000,7.532848876953125,-0.0169715266674757,0.028267856687307358,0.01954973302781582
1772717226131880000,7.5528798828125,-0.0007299724384211004,0.009295497089624405,0.013740845955908298
1772717226151912000,7.572911865234375,0.024330640211701393,-0.0019006980583071709,0.005012867972254753
1772717226171943000,7.59294287109375,0.03422268480062485,0.0002402171230642125,0.013175456784665585
1772717226191975000,7.612974853515625,0.026514165103435516,0.0007158577209338546,0.012978116981685162
1772717226212006100,7.633006103515625,0.012679842300713062,0.006177202332764864,0.023014770820736885
1772717226232038100,7.6530380859375,0.004862132947891951,0.005007541738450527,0.012418320402503014
1772717226252069000,7.673069091796875,-0.0023070964962244034,-0.014958709478378296,-0.0036573191173374653
1772717226272100900,7.693100830078125,-0.02629978023469448,-0.000012783173588104546,0.006015814375132322
1772717226292131800,7.7131318359375,-0.027288878336548805,0.040947433561086655,-0.008172708563506603
1772717226312164000,7.7331640625,-0.03406156226992607,0.004577973857522011,-0.028005801141262054
1772717226332196000,7.753196044921875,-0.03709011152386665,-0.029288379475474358,-0.02857039123773575
1772717226352227000,7.77322705078125,-0.029256954789161682,0.001437041675671935,-0.01841922104358673
1772717226372258800,7.7932587890625,-0.0391245000064373,0.011968512088060379,-0.023693878203630447
1772717226392289800,7.813289794921875,-0.036551088094711304,-0.005931658670306206,-0.03184075281023979
1772717226412322000,7.833322021484375,-0.03143329173326492,0.014246047474443913,-0.011888351291418076
1772717226432353000,7.85335302734375,-0.02310824953019619,0.01389850489795208,-0.009762349538505077
1772717226452385000,7.873385009765625,-0.024035561829805374,-0.006964432541280985,-0.028808744624257088
1772717226472416000,7.893416015625,-0.021980931982398033,0.0002234392159152776,-0.034638937562704086
1772717226492448000,7.913447998046875,-0.015030348673462868,0.005208876915276051,-0.015476427972316742
1772717226512479000,7.93347900390625,-0.017658889293670654,-0.022535135969519615,-0.027598604559898376
1772717226532511000,7.953510986328125,-0.012355735525488853,0.005216599907726049,-0.03201279416680336
1772717226552542000,7.9735419921875,-0.008578840643167496,0.017918279394507408,-0.011813782155513763
1772717226572573000,7.993572998046875,-0.020774254575371742,0.016482038423419,-0.014130999334156513
1772717226592604000,8.01360400390625,-0.015064436942338943,0.017257817089557648,-0.01613342948257923
1772717226612636200,8.03363623046875,-0.017253022640943527,-0.00996022205799818,-0.042276617139577866
1772717226632667100,8.053667236328126,-0.018337728455662727,-0.015428757295012474,-0.03561791405081749
1772717226652699000,8.073698974609375,-0.018335863947868347,0.02665131725370884,-0.03224235773086548
1772717226672729900,8.093729736328125,-0.03379924222826958,0.03363066539168358,-0.02436392940580845
1772717226692761900,8.113761962890624,-0.030956318601965904,0.021091703325510025,-0.022013423964381218
1772717226712792800,8.133792724609375,-0.03597531095147133,0.00506959343329072,-0.012490491382777691
1772717226732825000,8.1538251953125,-0.03337633237242699,0.028866535052657127,-0.0013310478534549475
1772717226752856000,8.17385595703125,-0.036325518041849136,0.04628147929906845,0.00011052118497900665
1772717226772888000,8.19388818359375,-0.010408165864646435,0.03990747034549713,-0.004378769546747208
1772717226792919000,8.2139189453125,0.005715409759432077,-0.004936701618134975,-0.022906381636857986
1772717226812951000,8.233950927734375,0.010729343630373478,-0.014572285115718842,-0.03873887285590172
1772717226832982000,8.25398193359375,0.0194860827177763,0.006847786251455545,-0.034451182931661606
1772717226853014000,8.274013916015624,0.014219948090612888,0.010219081304967403,-0.008407332934439182
1772717226873044700,8.294044677734375,0.007677360903471708,0.015086274594068527,-0.019692478701472282
1772717226893076700,8.31407666015625,0.0015414375811815262,0.002734267385676503,-0.029832730069756508
1772717226913107700,8.334107666015624,-0.032346755266189575,-0.006738862954080105,-0.06610658019781113
1772717226933139700,8.3541396484375,-0.0036479979753494263,0.027158116921782494,-0.0007954862085171044
1772717226953170700,8.374170654296876,0.008606270886957645,0.08986437320709229,0.0044083306565880775
1772717226973204700,8.394204833984375,-0.01894705928862095,0.022646456956863403,-0.04186142981052399
1772717226993235700,8.414235595703126,0.005857622716575861,0.01071096770465374,-0.054973769932985306
1772717227013267700,8.434267822265625,0.012587697245180607,0.01895025558769703,-0.02304406650364399
1772717227033298700,8.454298583984375,0.020849620923399925,0.040464602410793304,0.0032487902790308
1772717227053330700,8.47433056640625,0.04111547768115997,0.059896890074014664,0.0264249499887228
1772717227073363000,8.494363037109375,0.05422142520546913,0.05065465345978737,0.01506816502660513
1772717227093394000,8.514393798828126,0.07011757045984268,0.010308563709259033,-0.006557767745107412
1772717227113425700,8.53442578125,0.08871176093816757,0.012499546632170677,0.0018077536951750517
1772717227133456600,8.55445654296875,0.09301329404115677,0.04441912844777107,0.020362796261906624
1772717227153488600,8.574488525390626,0.08212310075759888,0.062123026698827744,0.02568911761045456
1772717227173519600,8.59451953125,0.07226380705833435,0.08813837915658951,0.022401712834835052
1772717227193552000,8.6145517578125,0.06519018858671188,0.060871873050928116,-0.00364666641689837
1772717227213582800,8.634582763671874,0.05730403587222099,0.006869890261441469,-0.03856869786977768
1772717227233614600,8.654614501953125,0.0514964796602726,0.022522618994116783,-0.053403303027153015
1772717227253645600,8.6746455078125,0.061884939670562744,0.05618550628423691,-0.03766881674528122
1772717227273677800,8.694677734375,0.05425524711608887,0.05487070605158806,-0.0319342315196991
1772717227293708800,8.714708740234375,0.06778410822153091,0.05263471603393555,-0.006650445982813835
1772717227313740800,8.73474072265625,0.062733955681324,0.026126941666007042,-0.0009142631897702813
1772717227333771800,8.754771728515625,0.07012315839529037,0.0423426628112793,0.008535697124898434
1772717227353803500,8.774803466796875,0.076809823513031,0.10385555773973465,0.027063841000199318
1772717227373834500,8.79483447265625,0.09316004067659378,0.09268679469823837,0.021321799606084824
1772717227393866800,8.81486669921875,0.10091809183359146,0.06167455017566681,0.004447478801012039
1772717227413897700,8.834897705078125,0.12916943430900574,0.06614786386489868,-0.0054786549881100655
1772717227433929700,8.8549296875,0.14362934231758118,0.059067580848932266,-0.019288742914795876
1772717227453960700,8.874960693359375,0.15310220420360565,0.08346426486968994,-0.030671359971165657
1772717227473992700,8.89499267578125,0.1649910807609558,0.08834318071603775,-0.052857622504234314
1772717227494023700,8.915023681640625,0.15408118069171906,0.07290536910295486,-0.07454214245080948
1772717227514055700,8.9350556640625,0.15374481678009033,0.03784032166004181,-0.1001332551240921
1772717227534086700,8.955086669921876,0.13625051081180573,0.004180363845080137,-0.12623703479766846
1772717227554118700,8.97511865234375,0.12597285211086273,0.03159894049167633,-0.12149687111377716
1772717227574151000,8.99515087890625,0.10509845614433289,0.08445549756288528,-0.08677350729703903
1772717227594182000,9.015181884765624,0.08733650296926498,0.12401169538497925,-0.07089654356241226
1772717227614213600,9.035213623046875,0.10840237140655518,0.0730222761631012,-0.07333333790302277
1772717227634244600,9.05524462890625,0.10389044880867004,0.01275867223739624,-0.0893983244895935
1772717227654276600,9.075276611328125,0.11470474302768707,0.03249802067875862,-0.07868069410324097
1772717227674307800,9.095307861328125,0.13401399552822113,0.06382185965776443,-0.03966405615210533
1772717227694339800,9.11533984375,0.15640851855278015,0.09512411803007126,-0.0007510114228352904
1772717227714370800,9.135370849609375,0.18764500319957733,0.1253587156534195,0.007387342397123575
1772717227734402600,9.155402587890626,0.2003384232521057,0.0509641133248806,-0.012582104653120041
1772717227754433500,9.17543359375,0.2018686681985855,-0.05028980225324631,-0.05727607384324074
1772717227774465800,9.1954658203125,0.21606385707855225,-0.0028692898340523243,-0.03960280120372772
1772717227794496800,9.215496826171876,0.21701885759830475,0.06405674666166306,0.002039981307461858
1772717227814528800,9.23552880859375,0.1992878019809723,0.04813716933131218,-0.0006775081856176257
1772717227834559700,9.255559814453125,0.17340055108070374,-0.01471529621630907,-0.02827744372189045
1772717227854591700,9.275591796875,0.14881184697151184,-0.03491910174489021,-0.03507063537836075
1772717227874622500,9.29562255859375,0.11185995489358902,0.03257445618510246,-0.011007643304765224
1772717227894654500,9.315654541015626,0.08563847094774246,0.07204356789588928,0.022235265001654625
1772717227914685400,9.335685546875,0.06220904737710953,0.06389962136745453,0.02251010201871395
1772717227934717700,9.3557177734375,0.04025767371058464,0.007148989476263523,-0.0242608655244112
1772717227954748700,9.375748779296876,0.0124220484867692,-0.01347266510128975,-0.024718396365642548
1772717227974780700,9.39578076171875,0.018968097865581512,0.05663638189435005,0.02732536382973194
1772717227994811600,9.415811767578125,0.024658208712935448,0.08249727636575699,0.03949068486690521
1772717228014843600,9.43584375,0.022784408181905746,0.03562430664896965,0.006873352453112602
1772717228034874600,9.45587451171875,0.027886757627129555,0.02298893965780735,-0.03176352381706238
1772717228054906600,9.47590673828125,0.036736175417900085,0.03008786030113697,-0.04041746258735657
1772717228074938600,9.495938720703125,0.04604499042034149,0.019114306196570396,-0.06010355055332184
1772717228094969600,9.515969482421875,0.047570981085300446,-0.013215404003858566,-0.08019310981035233
1772717228115001600,9.536001708984376,0.05570081248879433,-0.014699583873152733,-0.06895456463098526
1772717228135032600,9.556032470703125,0.045829806476831436,-0.03195633366703987,-0.034390997141599655
1772717228155064600,9.576064697265625,0.025791117921471596,-0.028181303292512894,-0.009811884723603725
1772717228175095600,9.596095458984376,0.00210602767765522,0.012719256803393364,-0.013767210766673088
1772717228195127600,9.61612744140625,-0.03957803547382355,0.046724893152713776,-0.0017486315919086337
1772717228215158800,9.63615869140625,-0.04084410145878792,0.15103238821029663,0.06775268167257309
1772717228235190500,9.6561904296875,-0.03105911612510681,0.0005102616851218045,-0.13036386668682098
1772717228255221500,9.676221435546875,-0.14314250648021698,-0.10181877017021179,-0.15266704559326172
