time,seconds_elapsed,z,y,x
1772788990592912400,0.074912353515625,-0.07906944506168365,-0.5277060697481036,0.7983782831177115
1772788990612944600,0.094944580078125,-0.42053661162257194,-0.2431231852520257,0.5418535087725147
1772788990632977400,0.114977294921875,-0.8452163143992424,-0.19495909299850464,0.40870534058604385
1772788990653010700,0.1350107421875,-0.9402741867095231,-0.14889379965513944,0.3182974495060742
1772788990673042400,0.15504248046875,-1.2132511698901653,-0.129054176871106,0.6642097589075565
1772788990693075500,0.175075439453125,-1.2991431544482708,-0.12771810596175492,0.46248555568829175
1772788990713108500,0.1951083984375,-1.4382266309678553,-0.20141316450871527,0.13904098908472806
1772788990733141500,0.2151416015625,-1.151307047152519,-0.5362514875143766,0.12214745708941481
1772788990753173500,0.235173583984375,-0.5667646991997957,-0.8036417566038667,0.2648551428549923
1772788990773206500,0.25520654296875,-0.18989011917114257,-0.8411230537362396,0.24543465879848225
1772788990793239600,0.275239501953125,-0.5918757595807314,-0.46351219532229004,0.34660376226436346
1772788990813271600,0.295271484375,-0.7313058575809002,-0.2532203625049442,0.1210801840509288
1772788990833304300,0.31530419921875,-0.26352526422441,-0.19480536374151705,-0.20763255048021673
1772788990853337600,0.335337646484375,0.19188216977119443,-0.2528228145547211,-0.28519681514333933
1772788990873369300,0.355369384765625,0.6482406208813191,-0.26791619265973565,-0.25390005186479536
1772788990893402600,0.375402587890625,0.7538608037382364,-0.6024765024416149,-0.26473624744936824
1772788990913435400,0.395435302734375,1.1257032348185776,-0.6857730636790395,-0.0672381740251556
1772788990933467400,0.41546728515625,0.5755974094748497,-0.5411779841311276,-0.30997882623299955
1772788990953500400,0.43550048828125,-0.45756607333421706,-0.4110075896464288,-0.40337198020145293
1772788990973533400,0.455533447265625,-0.6505664334803819,-0.32776334311813116,-0.28182927493900056
1772788990993566500,0.47556640625,-0.23600655817985533,-0.3935381300598383,-0.16116627512052653
1772788991013598500,0.495598388671875,0.8590133690834045,-0.6670768387764692,-0.03289228884167969
1772788991033631500,0.515631591796875,0.5751894131958484,-0.24615868049040435,-0.2081386003062129
1772788991053664500,0.53566455078125,-0.30233401056826115,0.2867892354339361,-0.5908596413407474
1772788991073696300,0.5556962890625,-0.41492929313480853,0.6363751187816262,-0.47438678668849166
1772788991093729500,0.5757294921875,0.32348259705901145,0.6384152463071048,-0.24599611033983526
1772788991113762300,0.59576220703125,0.19667466474473475,0.5986180734477937,-0.14645283624380825
1772788991133794600,0.615794677734375,-1.2134259419351816,1.1908239417657256,0.8591760122992098
1772788991153827300,0.635827392578125,-2.2237691056489943,1.3897235890835522,1.4860039889261125
1772788991173860600,0.655860595703125,-0.8243927220791578,0.715263362057507,0.922705723727867
1772788991193892400,0.675892333984375,0.7385317171812057,0.28880349786579607,0.5697152195684612
1772788991213925600,0.695925537109375,1.2229431273430584,0.2939646800212562,-0.19674056958779693
1772788991233958400,0.71595849609375,0.773160547491908,0.41892859190404413,-0.5047128783039748
1772788991253990400,0.735990478515625,0.11214110905826091,0.5350678306877613,0.17960969430580734
1772788991274023400,0.7560234375,-0.5598626647263765,0.6709560182973742,0.3667176354125142
1772788991294056400,0.776056396484375,-0.7065501865088939,0.21024857819750903,0.32158136654756964
1772788991314088700,0.796088623046875,-0.3429290558069944,-0.2961176202714443,0.2724427301734686
1772788991334121500,0.81612158203125,-0.06685118400156498,-0.35446225721240043,0.6891459741782396
1772788991354154500,0.836154541015625,0.19624387211203573,-0.4482854731611907,0.6735795717339962
1772788991374187500,0.8561875,0.12020751113593578,-0.2811933151230216,0.3084782854769379
1772788991394219500,0.876219482421875,0.27555004853904247,-0.26264146712720393,-0.13295761405043302
1772788991414252500,0.89625244140625,0.2326531560987234,-0.5417426322765648,0.04127002189084887
1772788991434285300,0.916285400390625,-1.306526250436902,-0.2138769978277385,0.15921053794287143
1772788991454317600,0.936317626953125,-0.8340180440366267,-0.39711788824275135,-0.9547420533273369
1772788991474350300,0.956350341796875,0.08189385483264923,-0.7923819653123617,-1.3299202777668833
1772788991494383600,0.976383544921875,-0.36995150276720523,-0.6994556982032955,-0.8301680906102061
1772788991514415600,0.99641552734375,-1.4704460620492696,-0.5271159218352288,-0.8240810257814825
1772788991534448400,1.016448486328125,-3.0502965016692873,0.1291991382997483,-0.11946224572658538
1772788991554481400,1.0364814453125,-3.9103567494571205,0.012085209264978766,0.4252861442372203
1772788991574513400,1.056513427734375,-3.013782588264346,-0.3769304018691182,0.30329686425104735
1772788991594546400,1.07654638671875,-1.2362737335592509,-0.915772563463822,0.14376505846455692
1772788991614579500,1.096579345703125,-0.4985761291146278,-0.9556968698341399,0.007287672790139913
1772788991634612500,1.116612548828125,-1.1221212846785784,-0.9342956968218088,-0.22738515256792305
1772788991654644500,1.13664453125,-3.3356144955068823,-0.03707278939671814,0.048878304937481874
1772788991674677200,1.15667724609375,-2.0737433793544766,0.1831839725960046,0.7409208042748272
1772788991694710500,1.17671044921875,-0.4653121574163437,0.04157543457821011,0.9785356744341551
1772788991714742500,1.196742431640625,-0.03439619059860706,0.40259719643667335,-0.05878595096766948
1772788991734775600,1.216775634765625,-0.030649405285716056,0.8701730610013008,-0.0002598199799656868
1772788991754808300,1.236808349609375,0.9476929385334253,1.1909656883239745,0.5648942291527986
1772788991774840600,1.256840576171875,1.5832833366781471,1.4172278282113373,0.21238515183478593
1772788991794873600,1.27687353515625,0.6947527812093496,1.090308315506205,0.6449716822132467
1772788991814906600,1.29690673828125,-1.944110452747345,1.3010285298034547,2.4150322667390105
1772788991834938600,1.316938720703125,-1.7343594488084315,1.93672472641021,2.4134870831236244
1772788991854971400,1.336971435546875,1.4026526287615297,2.3966627895727752,1.0859262279644608
1772788991875004400,1.35700439453125,3.366568436697125,2.0978961160972713,0.1327723936766386
1772788991895036400,1.377036376953125,3.777098033568263,2.2520777930274605,-0.5201121074877679
1772788991915069700,1.397069580078125,3.155325148373842,2.4665870974093673,0.08314794654697179
1772788991935102500,1.4171025390625,2.2132874591231344,2.9984862349331376,1.043789506241679
1772788991955134500,1.437134521484375,3.0061633454322814,3.0753608002990482,1.3031006599023938
1772788991975167500,1.45716748046875,3.5151755283653734,2.56781518278718,1.4551605223730206
1772788991995200500,1.477200439453125,3.5349943275570865,1.9830808193936942,1.4100854091107844
1772788992015233500,1.497233642578125,3.148319069004059,1.7160633291393517,0.7686933389499783
1772788992035265500,1.517265625,1.48708097050786,1.3470694193579256,-0.42528336775824427
1772788992055298600,1.537298583984375,0.6518932981699704,0.2742085708022117,-1.2555772767052054
1772788992075331300,1.557331298828125,1.5709440795868634,-0.7583784272931515,-1.5386295175679028
1772788992095364000,1.577364013671875,1.586683500510454,-0.8956604073487222,-0.36528365708664057
1772788992115397000,1.597397216796875,1.3941858291894196,-1.0024914273001253,0.10200871436148881
1772788992135430100,1.61743017578125,0.2184147873878479,-0.9212069365374743,-0.05116444311328232
1772788992155462100,1.637462158203125,-1.1238760193914175,-0.490456389414519,0.785015016740933
1772788992175495200,1.6574951171875,-1.9835855540454386,0.19654701977707445,1.3303154145643115
1772788992195528000,1.67752783203125,-2.172355729275942,0.5723366541132331,1.247466012572497
1772788992215560200,1.697560302734375,-1.1382400603085756,0.22245916740782556,0.5112481983568519
1772788992235593000,1.717593017578125,-0.047343350455164905,-0.3011841098807752,0.6854166514568031
1772788992255626200,1.737626220703125,0.8399071020752191,-0.4283047614060342,0.5877711007408798
1772788992275658200,1.757658203125,0.5684317556291818,-0.49250192376747726,-0.21451171553470194
1772788992295691000,1.77769091796875,0.29073943436443805,-0.6043582245349883,-0.29738446186948564
1772788992315724000,1.79772412109375,0.3428168276041746,-0.28557927512228487,0.36477921469584107
1772788992335757000,1.817757080078125,-0.7132014610916376,-0.22585012502036989,0.8796400505919009
1772788992355789300,1.837789306640625,-1.221257950735092,-0.31688919014334677,0.9166391902305185
1772788992375822000,1.857822021484375,-1.8000713996469972,-0.40667547872625287,0.9085931002885103
1772788992395855000,1.877855224609375,-2.15072432770431,-0.5049294436641037,0.7455592046651989
1772788992415887000,1.89788720703125,-0.7742524343818425,-0.4114041877485812,0.1397358120816294
1772788992435920100,1.917920166015625,0.5091156433075666,-0.5594488232284784,-0.5928495365163311
1772788992455953200,1.937953125,0.5250912110745907,-0.33454591593034566,-0.7700555672138929
1772788992475985200,1.957985107421875,-0.1312953068614006,-0.15587306408323345,-0.9344742682591081
1772788992496018200,1.97801806640625,-0.9395283367782831,0.05486738928444683,-0.5553992921093478
1772788992516051000,1.998051025390625,-0.7190636311233043,0.09177519737780093,-0.25586594511028377
1772788992536083200,2.018083251953125,0.028735680618882178,0.16796463002376258,-0.1342234875340946
1772788992556116200,2.0381162109375,0.6534048717767,0.2591163617409766,-0.3976344594627619
1772788992576149200,2.058149169921875,0.36188977686464785,-0.08369929681941866,-0.5180560882734134
1772788992596181200,2.07818115234375,0.7660153519123792,-0.32173823760971426,-0.39535807549599555
1772788992616214000,2.098214111328125,1.4070213453650473,-0.5294415883038193,-0.16890488828225061
1772788992636247000,2.1182470703125,1.466424551448226,-0.9023961453445255,0.18156329432530327
1772788992656279000,2.138279052734375,1.3859738811612128,-0.8378292728878557,0.14002479422399775
1772788992676312300,2.158312255859375,0.402089685305953,-0.7993657597851007,-0.29333193507567046
1772788992696345000,2.178344970703125,-0.18212708395421504,-0.7987134333562106,-0.4640946713853627
1772788992716377000,2.198377197265625,-0.39974750609397885,-0.6258395501114428,-0.5705629955042153
1772788992736410000,2.21841015625,-0.18277239612042903,-0.571654918926768,-0.6168789756730199
1772788992756443100,2.238443115234375,-0.03305471286177635,-0.27832400676440444,-0.2760495224937796
1772788992776476200,2.25847607421875,-0.39399756426513194,0.02818619350995868,-0.16846479809824377
1772788992796508200,2.278508056640625,-0.4259802639812231,0.48937688708212224,-0.16164909020140766
1772788992816541200,2.298541259765625,-1.253330666822195,0.9147169899962841,-0.14094322424316777
1772788992836574000,2.318573974609375,-1.5051514647275208,0.8779343426525592,-0.40486203609611837
1772788992856606000,2.33860595703125,-1.311507545980811,0.8877209926515817,-0.5018358250303193
1772788992876639200,2.35863916015625,-0.7416238379776477,0.7674201041437685,-0.4740175149846822
1772788992896672000,2.378672119140625,-0.3972533511906862,0.5922916469052434,-0.3202437978008762
1772788992916704300,2.398704345703125,0.062170332708954806,0.49396286316551263,-0.1715806650964543
1772788992936737000,2.418737060546875,0.0639484482973814,0.3501807805009186,-0.1593236794611439
1772788992956770300,2.438770263671875,0.24507658434212207,0.15224632495343685,-0.20213464718367904
1772788992976802000,2.458802001953125,0.20897768147885798,0.06291165259554982,-0.22493607891537248
1772788992996835300,2.47883544921875,0.42023441380560395,-0.02585172268040478,-0.26063673970866946
1772788993016868000,2.4988681640625,0.4272872549265623,-0.011157792221754788,-0.17984836189989
1772788993036900000,2.518900146484375,0.4089169009774923,-0.10212949119694531,-0.11730229121372103
1772788993056933000,2.53893310546875,0.2530933020591736,-0.20125044822767377,-0.032389234690368175
1772788993076966100,2.558966064453125,0.2882967173874378,-0.2672127936307341,0.0743860364858061
1772788993096997400,2.578997314453125,0.042861236605048175,-0.3315560864645988,0.1647283880488947
1772788993117030400,2.599030517578125,-0.0998024364888668,-0.33488274666927753,0.09511789540182798
1772788993137063400,2.6190634765625,0.029115619847178458,-0.28144341742657125,0.07495459362138063
1772788993157095400,2.639095458984375,0.16248013419806956,-0.2845652757741511,0.08737009428665042
1772788993177128400,2.65912841796875,0.34136896688342094,-0.23343597703948615,0.04860957099869847
1772788993197161500,2.679161376953125,0.08689151698946952,-0.12482633004300296,0.11779566422123461
1772788993217194500,2.699194580078125,-0.12838088071942327,-0.09325571825914085,0.05567782888449728
1772788993237226500,2.7192265625,-0.5460018971562385,0.05443045917190611,0.24135219352412968
1772788993257259500,2.739259521484375,-0.8122808440029621,0.13989932294711468,0.5784667178334668
1772788993277292500,2.75929248046875,0.03722995271980762,0.2492820001427084,0.6117562623644247
1772788993297324500,2.779324462890625,0.6604483605474233,0.11681165815256535,0.3571055747954175
1772788993317357600,2.799357666015625,0.43934886412024493,0.06857720407657325,0.14979644758328794
1772788993337390300,2.819390380859375,0.16984277192056177,-0.062216436873003836,-0.1452069643685594
1772788993357422600,2.839422607421875,0.14027239404320715,-0.18736666510812938,-0.18584219548720865
1772788993377455400,2.859455322265625,0.43177170686423777,-0.24268588981330394,0.008795994993858039
1772788993397488600,2.879488525390625,0.40212592566311356,-0.21998547077067196,0.07346727767307311
1772788993417520600,2.899520751953125,0.18675708184242248,-0.1912561468273401,0.023269597232714295
1772788993437553400,2.919553466796875,-0.055689738517999646,-0.12011398763358593,0.07115984098091721
1772788993457586400,2.93958642578125,-0.20972470045387745,-0.049907940246164795,0.022106216009147465
1772788993477618400,2.959618408203125,-0.026776947766542433,0.036357261538505554,-0.03479063327629119
1772788993497651500,2.9796513671875,0.18485446309149264,0.08065035757757723,0.15444646534621714
1772788993517684500,2.9996845703125,-0.12976210594475268,0.09466010516434907,0.29877116698753087
1772788993537716500,3.019716552734375,-0.4171592441439628,0.04152976880557835,0.1620962129143998
1772788993557749500,3.03974951171875,-0.20616145501434802,-0.0148499247379601,-0.052659321313537656
1772788993577782300,3.0597822265625,0.06942717196941375,0.042902956854924554,0.04344108231961727
1772788993597815600,3.079815673828125,-0.1543523573219776,0.061252998668327924,-0.0020115590181201694
1772788993617847600,3.09984765625,-0.34005671524107456,-0.001990662360563874,0.036806210882402955
1772788993637880600,3.119880615234375,-0.3356874141156673,-0.004824935938417911,0.03588584463447332
1772788993657913300,3.139913330078125,0.06054594637751579,0.018509397093579173,-0.12443831710610538
1772788993677945300,3.1599453125,0.27693536541759967,0.02986241962648928,-0.12968838312141598
1772788993697978600,3.179978515625,0.2306482460170984,0.06875248757824301,-0.06694331926442683
1772788993718011400,3.200011474609375,0.08213643141686916,0.05704919030293822,-0.07969733116906136
1772788993738043600,3.220043701171875,-0.13459259484112263,0.09456263613924383,-0.03152363083697855
1772788993758076400,3.240076416015625,0.25491584131121636,0.06499276971854269,-0.021714074886403978
1772788993778109400,3.260109375,0.451333316424489,0.09453414069712161,-0.10732910566665231
1772788993798141400,3.280141357421875,0.02702536956965923,0.06145991941727697,-0.11872099890522658
1772788993818174700,3.3001748046875,-0.26145430316925045,0.008106295696645975,-0.042800957785174246
1772788993838207500,3.32020751953125,-0.040115152767300606,-0.07872231212444603,0.11255056664198636
1772788993858239500,3.340239501953125,-0.016855273211002348,-0.08439765434712171,0.21972689289972186
1772788993878272500,3.3602724609375,-0.2097878288179636,-0.0797576465215534,0.12779343622028827
1772788993898305500,3.380305419921875,-0.275086522680521,-0.05735840238258242,0.10312814684547483
1772788993918337500,3.400337646484375,-0.07317103467285632,-0.0019507687415927647,0.11837024923879652
1772788993938370600,3.42037060546875,0.05133855757117271,0.12326741016320883,0.15536277647353708
1772788993958403600,3.440403564453125,-0.058576692131161685,0.16456271262578664,0.17564922970961777
1772788993978435600,3.460435546875,-0.19007658165395258,0.1793481938254088,0.17281353135965763
1772788993998468400,3.48046826171875,-0.2821808648556471,0.1395820006262511,0.1593108565121889
1772788994018501600,3.500501708984375,-0.157054017496109,0.04264847063720226,0.14540562874581664
1772788994038533400,3.520533447265625,-0.045728316473960876,0.0031247078917920586,0.05519947078302502
1772788994058566700,3.540566650390625,-0.029411972445249557,-0.03869717572815716,-0.11639109465293586
1772788994078599400,3.560599365234375,0.14636018952429294,-0.1107604683548212,-0.19149455869309603
1772788994098632400,3.580632568359375,0.2623281633943319,-0.10639153255559504,-0.031094884030893444
1772788994118664400,3.60066455078125,0.35968028412163255,-0.14715082844533026,0.1295421795837581
1772788994138697700,3.62069775390625,0.12373217813074588,-0.14006781138181684,0.28804683427959676
1772788994158730500,3.64073046875,-0.18631050711870192,-0.1362808401890099,0.22008790823183952
1772788994178762500,3.660762451171875,-0.013256956458091735,-0.04458294583112001,0.21051146691739558
1772788994198795500,3.68079541015625,0.1766173806220293,-0.01767119270376861,0.30437822974696754
1772788994218828500,3.70082861328125,0.06850362738370895,0.06340476987473666,0.23726700656972824
1772788994238860500,3.720860595703125,-0.025809564039111135,0.08476765670329332,0.2410318389959633
1772788994258893600,3.7408935546875,-0.09612170214951038,0.034205709527805446,0.2652842367209494
1772788994278926600,3.760926513671875,-0.33458208322227,0.03284296980723739,0.11389774346724152
1772788994298958600,3.78095849609375,-0.3120768214255571,0.00031388825476169586,0.13053776649236679
1772788994318991400,3.800991455078125,-0.24889935750067232,0.054861251804605125,0.2009724350038916
1772788994339024600,3.821024658203125,-0.12100596803724765,0.003962693085893989,0.24771343565173445
1772788994359056400,3.841056396484375,0.007580664387345314,-0.040105800417065615,0.3835066384542733
1772788994379089700,3.861089599609375,-0.1062771854609251,-0.007047288163006305,0.3876123932726681
1772788994399122400,3.881122314453125,-0.23410627751648425,0.006056085168570279,0.28767624740153547
1772788994419154700,3.90115478515625,-0.1441442670404911,-0.003165332163125276,0.22299619689397512
1772788994439187500,3.9211875,0.20774317124783992,-0.04954553667455911,0.17075871772170065
1772788994459220700,3.941220703125,0.44074353334903715,-0.0854068313896656,0.26086631068084387
1772788994479253500,3.96125341796875,0.49540275977551934,-0.13799948067516088,0.2037937395023182
1772788994499285500,3.981285400390625,0.2194295173883438,-0.11674326909147202,0.18248693024255333
1772788994519316500,4.00131640625,-0.042110710498690605,-0.11024316648244857,0.09800842921156436
1772788994539348500,4.021348388671875,-0.2311228777915239,-0.07849281421750784,-0.05160411317218095
1772788994559381500,4.041381591796875,0.07047872684895992,0.03623392741978168,-0.06331058878526091
1772788994579414500,4.06141455078125,0.20902502775192258,-0.01229863281995058,-0.01841675037406385
1772788994599447600,4.081447509765625,-0.020351883155107497,-0.06281250307001174,0.009311872094124554
1772788994619479300,4.101479248046875,-0.0001613280415534973,-0.04048464366681873,0.05989763853661716
1772788994639512600,4.1215126953125,-0.25863456957340236,0.028465339244902133,0.14125811714492736
1772788994659545300,4.14154541015625,-0.2791846056491136,0.06483721383064985,-0.03483611638583243
1772788994679577600,4.16157763671875,-0.026812603601813315,0.13088438797295093,-0.195257272227481
1772788994699610400,4.1816103515625,0.02432663200497627,0.11617504074946045,-0.271395193881914
1772788994719643600,4.2016435546875,-0.1423310801386833,0.1613637704540044,-0.29145795789733525
1772788994739675600,4.221675537109375,-0.15520926641225813,0.11855243740528822,-0.1866094900652766
1772788994759708700,4.241708740234375,0.02285363684296608,0.03448803360052407,-0.07205379414595663
1772788994779741400,4.261741455078125,0.18944938966631888,0.0003901683613657951,0.06120002637207508
1772788994799773400,4.2817734375,-0.008358663022518158,0.02608509304486215,0.06545359216332436
1772788994819806500,4.301806396484375,-0.05367722965180874,0.014659589797630905,0.1820458354115486
1772788994839839500,4.321839599609375,-0.06987959191203116,-0.004510463161766529,0.29620756357721983
1772788994859871700,4.341871826171875,0.06830488994121552,0.03650485331565141,0.2816759840734303
1772788994879904500,4.361904541015625,0.13456512231230736,-0.013225611471757291,0.2638949743196368
1772788994899937500,4.3819375,0.10413725082278251,-0.053897740534693,0.12288074893318116
1772788994919973600,4.4019736328125,0.0337801045268774,-0.05923252569139004,0.10736052371822297
1772788994940005600,4.422005615234375,-0.10548223569095135,-0.07339936353601514,0.2461286506783217
1772788994960038400,4.442038330078125,-0.31182664605677124,-0.06893726956062018,0.22006591559574007
1772788994980071400,4.462071533203125,-0.36483050649166104,-0.04335537679754197,0.1936107471294701
1772788995000103400,4.482103515625,0.06007715982198715,-0.04657214688695967,0.30719065681919455
1772788995020136700,4.50213671875,0.11045184079706669,-0.08300656531490386,0.39415282789207995
1772788995040169500,4.52216943359375,-0.06972820074260234,-0.13708821104913949,0.12634703680425882
1772788995060201700,4.54220166015625,-0.2609697345227003,-0.15368863271623848,-0.04738777411878109
1772788995080234500,4.562234375,-0.35826457210481166,-0.12589483605735002,-0.041508945213258264
1772788995100267500,4.582267578125,-0.23904607200622557,-0.0653087037999183,0.1912345195174217
1772788995120300300,4.60230029296875,-0.20042554171085356,-0.020346549392864108,0.5184194051604718
1772788995140332500,4.62233251953125,0.054121466287970536,0.11898812540881334,0.011237214133515954
1772788995160365300,4.642365234375,0.2453495560646057,0.20111454688832162,-0.4904072895757854
1772788995180398600,4.662398681640625,0.09702128133773803,0.2080960763387382,-0.762047763455659
1772788995200430300,4.682430419921875,-0.10612988594472407,0.13794263592138886,-0.5205762909334153
1772788995220463600,4.702463623046875,-0.008241174122691155,0.04925035312026739,-0.06589702508188784
1772788995240496400,4.722496337890625,0.3111269733548164,0.008485650403052568,0.06776669141128659
1772788995260528400,4.7425283203125,0.46240766814649104,-0.07444178526103497,-0.046885889011248946
1772788995280561400,4.7625615234375,0.29435704033970833,-0.13490049174651503,-0.11172982484363018
1772788995300594400,4.782594482421875,0.03973755162656307,-0.16668123914971947,-0.09363726492263376
1772788995320626400,4.80262646484375,-0.014931027150154113,-0.1851923167437315,0.009682166711241006
1772788995340659500,4.822659423828125,0.2196089656084776,-0.16795915013104676,-0.0036687516406178474
1772788995360692500,4.8426923828125,0.4450760095953941,-0.12873247063606977,-0.07159757481105625
1772788995380724500,4.862724365234375,0.2191243969619274,-0.12391264926418662,-0.06172163909338414
1772788995400757200,4.88275732421875,-0.1924193453878164,-0.0745109049744904,-0.0005993541326373815
1772788995420790500,4.90279052734375,-0.2114776816010475,0.013500117564201355,0.04913775959126651
1772788995440823300,4.9228232421875,-0.0009644611179828644,0.031398908478766675,0.10846139763221144
1772788995460855600,4.94285546875,0.11849661556482315,0.0247568401157856,0.010111059647798537
1772788995480888300,4.962888427734375,-0.02367138296663761,-0.015123261786624789,-0.0670167498268187
1772788995500921600,4.982921630859375,-0.056680503121018404,0.0048643911659717555,-0.051640828453376884
1772788995520953300,5.002953369140625,-0.06190554429292679,0.024610636578127742,-0.001209448854997754
1772788995540986400,5.022986328125,-0.07698153287172317,0.0288148102696985,-0.08566599378250539
1772788995561019400,5.043019287109375,-0.020839958932995794,0.009541808392480014,0.03055325143486261
1772788995581051400,5.063051513671875,-0.1358960786551237,0.04336867467053234,0.06431947356685995
1772788995601084400,5.08308447265625,-0.23301263706088066,0.08954502717293798,-0.006713453098759055
1772788995621117400,5.103117431640625,-0.33963702852427957,0.14704656435325741,0.1512733152028173
1772788995641149400,5.1231494140625,-0.3162584910243749,0.111449035140872,0.2151709831610322
1772788995661182500,5.143182373046875,-0.359388607698679,0.062475599265843625,0.3469968897677958
1772788995681215500,5.163215576171875,-0.279459915459156,-0.05584010677412152,0.2827203054945916
1772788995701247500,5.18324755859375,0.02306757185459137,-0.09263079129382967,0.2715310952212661
1772788995721280300,5.2032802734375,0.1223240648984909,-0.11452142832353711,0.31453232481889426
1772788995741313500,5.2233134765625,0.044475101542472834,-0.16355740804076194,0.2243773490540683
1772788995761346300,5.24334619140625,0.021338556104898453,-0.15186974672600626,0.18474369619339703
1772788995781378600,5.263378662109375,0.0031780455142259596,-0.12224822318330407,0.12646489103026687
1772788995801411300,5.283411376953125,0.19052549446523187,-0.11060147840082644,0.05136734527423978
1772788995821444600,5.303444580078125,0.1896446199774742,-0.1474507612399757,0.035921427404507995
1772788995841476400,5.323476318359375,-0.041159108862280844,-0.06463277729973196,-0.021268851869553327
1772788995861509400,5.34350927734375,-0.07216916415393353,-0.007197802549600601,-0.034800241354852914
1772788995881542400,5.36354248046875,-0.0920335560530424,0.0676661536462605,0.009031155456602573
1772788995901574400,5.383574462890625,0.09853986920714378,0.0949202174052596,0.09148454386815429
1772788995921607400,5.403607421875,0.07183189502358436,0.10812544367611407,0.10861951080337166
1772788995941640400,5.423640380859375,-0.11725567559301853,0.11261384113654493,0.02867635164707899
1772788995961672200,5.443672119140625,-0.05379121142029762,0.009350158277899026,0.025276626206189392
1772788995981705500,5.46370556640625,-0.0698386753797531,-0.052286944337189195,0.07414594411961734
1772788996001738200,5.48373828125,0.07658756511807441,-0.033598610480129715,0.16285766227357087
1772788996021770500,5.5037705078125,0.024262334597110746,-0.004379968649893999,0.1922847592227161
1772788996041803300,5.52380322265625,0.0798205556899309,0.008908259729295969,0.18400851378664373
1772788996061836500,5.54383642578125,-0.08400222528874873,-0.04139262535721063,0.2636923644196242
1772788996081869300,5.563869384765625,-0.1528922216415405,-0.09640124974325298,0.24194025907777247
1772788996101901300,5.5839013671875,-0.013604746982455253,-0.09237199422717093,0.22766272740028798
1772788996121934300,5.603934326171875,0.1394827049702406,-0.10991568809375166,0.32674510598629714
1772788996141967400,5.62396728515625,0.12343699457645416,-0.13796630905792115,0.2891466852802783
1772788996161999400,5.643999267578125,0.08743921400010585,-0.1025844684228301,0.21354769280813632
1772788996182032400,5.664032470703125,-0.023075170639157296,-0.11297054561972618,0.11112857101485132
1772788996202065400,5.6840654296875,0.14351941314041614,-0.15008271717876195,-0.03824563256837427
1772788996222097400,5.704097412109375,0.22433307152092455,-0.15075754770040511,-0.036536052171513435
1772788996242130200,5.724130126953125,0.14634090030193328,-0.10473419380262493,-0.0083785367667675
1772788996262163500,5.74416357421875,-0.07734685905277729,-0.06113163731098175,-0.030725539261847734
1772788996282195500,5.764195556640625,-0.2128893019646406,-0.0017233166612684726,0.07971497642360627
1772788996302228500,5.784228515625,-0.07420856102705001,0.03897197408154607,0.09718516666255891
1772788996322261200,5.80426123046875,0.04276186788380146,0.08141264718696474,0.12877484847307205
1772788996342293200,5.824293212890625,0.11790566393435001,0.09801102302744984,0.07746551699638367
1772788996362326300,5.844326171875,-0.07416998258233069,0.049883974848687646,-0.002932619385793805
1772788996382359300,5.864359375,-0.10054068763554096,0.00452829107940197,-0.05201704135462641
1772788996402391600,5.8843916015625,0.04924304659664631,-0.019786504357308148,-0.03501782962828874
1772788996422424300,5.90442431640625,0.3213444159865379,-0.07026449957638979,0.015992299706116316
1772788996442457300,5.924457275390625,0.37733226066827774,-0.045414574349671596,0.12950805811844765
1772788996462490400,5.944490478515625,0.01830664106309414,-0.04362637575864792,0.009579290858656168
1772788996482522400,5.9645224609375,-0.05875321774184703,-0.0724187550008297,-0.1011296665046364
1772788996502555400,5.984555419921875,0.33626959791779515,0.003429828318208456,0.20728315252065657
1772788996522588200,6.004588134765625,0.3507885371357202,-0.039121027163416144,0.16766396657675503
1772788996542620400,6.024620361328125,0.0007025953114032745,-0.026013416048139334,-0.062080608598887914
1772788996562653200,6.044653076171875,-0.16152385638654232,-0.04981587804853916,-0.1542407867062837
1772788996582686500,6.0646865234375,-0.14214754026532173,-0.021663550275564193,-0.01545453956760466
1772788996602718500,6.084718505859375,-0.09822890356183052,0.008474982878565789,-0.0016585808619856833
1772788996622751500,6.10475146484375,0.0383639251857996,0.0282261236615479,0.02601056650392711
1772788996642784300,6.1247841796875,0.026463059511780736,0.02148322527259588,-0.03880282805971801
1772788996662816300,6.144816162109375,-0.11956219896972178,0.04634761741608381,-0.20541502056121824
1772788996682849300,6.164849365234375,-0.3706891693919897,0.06527312102988361,-0.28255810067020354
1772788996702882300,6.18488232421875,-0.2510398766607046,0.06596607173010706,-0.1774937981303781
1772788996722915300,6.204915283203125,0.022828502401709555,0.03639145606905222,0.11911204404942691
1772788996742947300,6.224947265625,0.07413257318139076,0.03376490695774555,0.38007681013606487
1772788996762980400,6.24498046875,-0.2187239994674921,0.009447481172531842,0.38165238888971503
1772788996783013400,6.265013427734375,-0.3141875299692154,0.013434504982084036,0.08815028487890958
1772788996803045400,6.28504541015625,0.1254044952571392,-0.02956321748420596,0.06713438485711813
1772788996823078400,6.305078369140625,0.39380584108531475,-0.06424421637356281,0.18010346917212008
1772788996843111200,6.325111083984375,0.35330548839271064,-0.10176073094978928,0.2042689192660153
1772788996863143400,6.345143310546875,0.11709025589823722,-0.11351268967241049,0.13696173512525855
1772788996883176400,6.365176513671875,0.026627310162782667,-0.1410273040637374,0.12263839154466986
1772788996903209500,6.38520947265625,0.06882803703248501,-0.16023615466356275,0.08918269666656851
1772788996923241500,6.405241455078125,0.09013736704289912,-0.19435294379889964,0.07479271759055554
1772788996943274200,6.425274169921875,0.2620680511534214,-0.21330138989686964,0.11839352051652967
1772788996963307300,6.445307373046875,0.1162064588010311,-0.14326909164115786,0.14002207254394888
1772788996983340300,6.46534033203125,-0.13221359075009823,-0.04776128360629082,0.06640804334394633
1772788997003372500,6.48537255859375,-0.34188685327768326,0.024292145213484762,-0.026720249143242836
1772788997023405300,6.5054052734375,-0.2298953818231821,0.09860387435406445,-0.13663425673656165
1772788997043438300,6.525438232421875,0.05521510674357414,0.17075974063500762,0.011214563910290598
1772788997063470300,6.54547021484375,-0.0014133739292621612,0.19014643201977013,0.07276274613291024
1772788997083503400,6.56550341796875,-0.3129021663337946,0.1290526425011456,0.019304492994025348
1772788997103537200,6.585537109375,-0.4126999266475439,0.1047851933375001,-0.020493118256703018
1772788997123569000,6.60556884765625,0.004607201534509659,0.06100055827721953,-0.013111995029449462
1772788997143602000,6.625601806640625,0.10880290454626083,0.04836962476298213,0.08376264437921345
1772788997163635000,6.645635009765625,0.08674246390759945,0.01480287072584033,0.04454517110399902
1772788997183667000,6.6656669921875,-0.014389759880304335,0.016183657559752464,0.18533472088910638
1772788997203700000,6.685699951171875,-0.15874796193242072,0.04318937258087099,0.08896671582832932
1772788997223733000,6.70573291015625,-0.08925298542380332,0.05426555093377828,0.02451455579251051
1772788997243765000,6.725764892578125,0.08548340375721454,0.05777735844701528,0.1284903324432671
1772788997263798000,6.745798095703125,0.06356675550341606,0.05402472791522741,0.17629625890888273
1772788997283830800,6.765830810546875,0.08531213884353638,0.011564692522212863,0.1069502624168992
1772788997303864000,6.785864013671875,-0.035405075380206104,-0.032119185577332975,0.12714096366092562
1772788997323895800,6.805895751953125,-0.08027472919821739,-0.02697809636183083,0.16392733733169734
1772788997343929000,6.82592919921875,0.021602759999036786,-0.009478606963157653,0.10496982918940484
1772788997363961900,6.8459619140625,0.10526011737287044,0.004668064876273274,0.13852511198446155
1772788997383994000,6.865994140625,-0.1882411829203367,0.0035374534111469983,0.08626490952372551
1772788997404027000,6.88602685546875,-0.3305389453113079,0.0037871903885155914,0.03507956975288689
1772788997424060200,6.90606005859375,-0.3081833211183548,-0.01997391668818891,-0.060901627947390076
1772788997444092200,6.926092041015625,-0.055313306421041486,0.03773125330545008,-0.10408069832995534
1772788997464125000,6.946125,0.03707622346282005,0.06251541981957852,-0.01179974338710308
1772788997484158000,6.966157958984375,-0.12051029347479343,0.05867379583008587,0.04744571485109627
1772788997504190000,6.98618994140625,-0.18907704922258853,0.028062676728144286,0.0890071209039539
1772788997524223000,7.006222900390625,-0.1531336291819811,0.04053659304976463,0.1142851353496313
1772788997544256000,7.026256103515625,0.0727583622187376,0.05298676316961646,0.07611439464837312
1772788997564289000,7.0462890625,0.2791384284198284,0.067580375058949,0.10043445078209041
1772788997584321000,7.066321044921875,0.19923837775290013,0.029908962181955573,0.03257087486758828
1772788997604353800,7.086353759765625,0.016559505134820938,-0.008737871598452329,0.02493175829127431
1772788997624387000,7.106386962890625,-0.03142623487710953,-0.04535305342078209,0.05769998236186802
1772788997644419000,7.126419189453125,0.17630466141104698,-0.04970175014957785,0.10082155040353535
1772788997664452000,7.1464521484375,0.15940905618965626,-0.06393266620635986,0.08266235498711466
1772788997684484900,7.16648486328125,-0.0034410803645849226,-0.09370119700431823,0.020105653309077022
1772788997704516900,7.186516845703125,0.019409633868932723,-0.11659195098727941,0.00012801029384136198
1772788997724550000,7.2065498046875,0.06411036086082458,-0.13425737153738737,0.044481165957078336
1772788997744583000,7.2265830078125,0.12327742010056972,-0.14518836926594375,0.07387808696366846
1772788997764615200,7.246615234375,0.23652502909600734,-0.0574925501562655,0.0504676199555397
1772788997784648000,7.26664794921875,0.011949965512752533,0.08856303039826452,0.05767302128970623
1772788997804681000,7.286680908203125,-0.15126900435388088,0.1779101969115436,0.04953538060672581
1772788997824714000,7.3067138671875,-0.19432605579197407,0.21859555078223347,0.10616934117227791
1772788997844746000,7.32674609375,-0.2214817737430334,0.21955803913883865,0.08043262317366898
1772788997864779000,7.346779052734375,-0.27518238427042957,0.19245441670119762,0.00844224965274334
1772788997884811800,7.366811767578125,-0.1550537835896015,0.11628507699519396,-0.020722104706987737
1772788997904844000,7.386843994140625,-0.13639642939269542,0.050926981095597144,0.0070803867150098085
1772788997924877000,7.406876953125,-0.029043723654747007,0.0098866763073951,0.04779029050506651
1772788997944910000,7.42691015625,0.004430091401934623,-0.0302041457362473,0.06340937298461795
1772788997964942000,7.446942138671875,0.04370587073564529,-0.004559270739555359,0.0685384064361453
1772788997984975000,7.46697509765625,-0.02102174524068832,0.0061973933354020115,-0.003837240075320005
1772788998005008000,7.4870078125,-0.056578796312212944,-0.006094517482817172,-0.016966113174334167
1772788998025041200,7.507041259765625,0.10857026483416557,-0.0236429605897516,0.0938866365738213
1772788998045073200,7.5270732421875,0.2732733357787132,-0.0601888765681535,0.21140030551590025
1772788998065106000,7.54710595703125,0.06177344234585762,-0.029436522364616392,0.3900554755758494
1772788998085139000,7.567138916015625,-0.17895839079022408,0.04065758908092976,0.2504848731264472
1772788998105170200,7.587170166015625,-0.022499416577816008,0.0943187443807721,-0.21715631175935268
1772788998125203500,7.607203369140625,0.0722398913025856,0.09926584539413452,-0.20478702485598624
1772788998145236200,7.627236328125,0.035547114199399946,0.07494052856341003,0.09866634513102471
1772788998165268500,7.6472685546875,-0.034518355673551555,0.06537789657860994,0.2608969615474343
1772788998185301200,7.66730126953125,-0.2119651728570461,0.0677310355760157,0.2773452613927424
1772788998205334500,7.68733447265625,-0.24200550633370874,0.07598769952878355,0.030493849397823212
1772788998225366300,7.7073662109375,-0.05313771594762802,0.0685087419502437,-0.04082030536197126
1772788998245399600,7.727399658203125,0.02912380315363407,0.03417538745477795,0.05422258857488632
1772788998265432300,7.747432373046875,0.06558744767606257,0.009155512488633393,0.15101765994131564
1772788998285465600,7.767465576171875,-0.10102525628209114,-0.03302577902823686,0.17808014665096997
1772788998305497300,7.787497314453125,-0.18280922099947927,-0.009699556237459182,0.0423274219892919
1772788998325530400,7.8075302734375,-0.11392682343125343,0.003301671893894672,-0.08627090087309479
1772788998345563400,7.8275634765625,-0.025578677892684934,0.021666472885012625,-0.03301576909087598
1772788998365595400,7.847595458984375,0.2548988901764154,0.0011076689809560775,0.25638949406035244
1772788998385628400,7.86762841796875,-0.02586392457485199,-0.014964637158811092,0.3528032379589975
1772788998405661400,7.887661376953125,-0.26304829436242577,-0.0061973933354020115,0.1475952842772007
1772788998425693200,7.907693115234375,-0.12273498378694057,0.002020984433591366,-0.052528278812393546
1772788998445726500,7.9277265625,0.44962592798471446,0.019171148937940596,0.0708425186600536
1772788998465759200,7.94775927734375,0.14519757548570633,-0.04280643767789006,0.012805340233072638
1772788998485792500,7.96779248046875,-0.1593108565121889,-0.028614392326772212,0.0002845890950411558
1772788998505824300,7.98782421875,-0.29072715940475463,0.013206103053689001,0.0855216168757528
1772788998525854500,8.0078544921875,-0.15051029494106768,0.008952975653856993,0.13920220752842724
1772788998545886200,8.02788623046875,0.1109738188445568,0.007822071927785872,0.19354316178597508
1772788998565919500,8.04791943359375,0.05806055930256843,-0.02345321017131209,0.09621829439178109
1772788998585952300,8.0679521484375,0.08078034063279628,-0.011101385859400034,0.03975377210900187
1772788998605985300,8.0879853515625,-0.04795709843933582,0.02597220725491643,0.057835664505511516
1772788998626017300,8.108017333984375,-0.14638240135610103,0.024889964976161718,-0.0399882384520024
1772788998646050600,8.128050537109376,-0.1395557702064514,-0.004121902235597372,-0.04454999340958893
1772788998666083300,8.148083251953125,0.033445758005976677,-0.04443009335696697,0.07916486826017498
1772788998686115300,8.168115234375,0.06456044271588325,-0.0670788552775979,0.08361607551537453
1772788998706148400,8.1881484375,0.023826281267404555,-0.07051116781383752,0.047774362283572555
1772788998726181400,8.208181396484376,-0.11735913596749305,-0.049009383971244096,0.10207016222514212
1772788998746213400,8.22821337890625,-0.19841303284466266,-0.008536796068400144,0.015307605377584695
1772788998766246400,8.248246337890626,-0.04057926314771175,0.020466157184541225,-0.016755685294046998
1772788998786279400,8.268279541015625,0.12667466132342814,-0.006622340749204159,0.06306750074438751
1772788998806312400,8.2883125,0.2440554246008396,-0.06342413216233253,0.1609129579465836
1772788998826344200,8.30834423828125,0.06439736110866069,-0.08252265425547957,0.038297581951320166
1772788998846377500,8.32837744140625,-0.14635142169594764,-0.062240913727134466,-0.029727541200444102
1772788998866410200,8.34841015625,-0.1001858828485012,-0.03899330913051963,-0.0682325553573668
1772788998886442500,8.3684423828125,-0.21921090620160102,-0.03188450003862381,0.031356092250347134
1772788998906475300,8.388475341796875,-0.03951894043982029,-0.038105566510558124,0.14489479314684867
1772788998926508500,8.408508544921874,0.042300680112838746,-0.012891776407510042,0.18868351986035703
1772788998946543400,8.42854345703125,0.05097907660901546,-0.06728387633040547,0.11762246307879685
1772788998966575400,8.448575439453125,-0.17239362544715403,-0.03763911804258823,0.0995168975457549
1772788998986608400,8.4686083984375,-0.18245383169054985,-0.05111950799301267,0.08946465541310608
1772788999006641400,8.488641357421875,0.06353285323381423,-0.04133139668926596,0.11692739348672329
1772788999026673400,8.50867333984375,0.21216040316820142,-0.07827215720415115,0.16314210523813963
1772788999046706400,8.52870654296875,0.14470774614214896,-0.06104118254855275,0.14946750788986682
1772788999066739200,8.5487392578125,-0.01684825894832611,-0.02005056212097406,0.06799034409932792
1772788999086771200,8.568771240234375,-0.09279109642207622,0.002540332132577896,0.053902855101227755
1772788999106804500,8.588804443359376,-0.07288403442502021,-0.0284624166354537,0.03245579712055623
1772788999126837500,8.60883740234375,0.02297814000546932,-0.018651947369426488,0.09374313644990324
1772788999146870300,8.628870361328126,0.01249473991394043,-0.005388561170548201,0.08188990930989384
1772788999166902500,8.648902587890625,0.05987140811681747,-0.017475597066432237,0.015802183961495755
1772788999186935600,8.668935546875,0.16745558452308176,-0.05810527522712946,-0.04726875084899366
1772788999206968600,8.688968505859375,0.14132687153220175,-0.06966770272701979,-0.03441650273427367
1772788999227000600,8.70900048828125,-0.029784897410869596,-0.10008651412725449,0.03644932373613119
1772788999247033600,8.72903369140625,0.04265957655310631,-0.09496624850407243,0.07380451027080416
1772788999267066400,8.74906640625,0.10099252305626868,-0.09268822056949139,0.0498782757602632
1772788999287098400,8.769098388671875,0.1734761599868536,-0.07529854822084307,0.13139547930024564
1772788999307131600,8.789131591796876,-0.06754910313785076,-0.04291369744464755,0.042064971660822625
1772788999327164400,8.809164306640625,-0.15671265671253204,0.032154987543076274,-0.03452178973965347
1772788999347197400,8.829197509765624,0.0776952340990305,0.02855740144252777,0.14779029539264738
1772788999367229400,8.8492294921875,-0.06874211231470108,0.024623276863992214,0.18326076415926218
1772788999387262500,8.869262451171876,-0.10080255344212055,0.02252075162678957,0.08162285587154329
1772788999407295500,8.88929541015625,-0.10221125119626522,0.015924275971204042,0.010192308190464973
1772788999427327500,8.909327392578126,0.10942834296822547,-0.030639906805008648,-0.06771167328841984
1772788999447360500,8.929360595703125,0.3245896815180778,-0.03787774910405278,-0.04096533985584974
1772788999467393300,8.949393310546874,0.16216273881196974,-0.0833086900666356,0.10554353742413222
1772788999487425500,8.969425537109375,-0.06356675550341606,-0.07202741759568453,0.055288829566910856
1772788999507458600,8.98945849609375,-0.1599813031196594,-0.07978212337568402,0.07375723706297577
1772788999527491600,9.00949169921875,0.1130611465126276,-0.03590060381218791,0.12333989087752997
1772788999547524400,9.0295244140625,0.08633797475993633,-0.03566094983741641,0.1337041946340352
1772788999567556400,9.049556396484375,-0.03963350673019886,-0.004105535622686148,0.04719670852608979
1772788999587589400,9.06958935546875,-0.1519172391295433,0.025480478215217588,0.05982851882316172
1772788999607622400,9.089622314453125,-0.19737316840291022,0.025767624593526123,0.06840097072683274
1772788999627654700,9.109654541015624,-0.1069306809335947,0.029909400573372838,-0.021310937445610762
1772788999647687400,9.1296875,0.07472644742131233,0.02258651033937931,0.06459207996316253
1772788999667720400,9.149720458984374,0.006324526846408844,0.007397562905400991,0.08464687986783682
1772788999687752400,9.16975244140625,-0.06735211926102638,0.03511412960961461,0.0305342544734478
1772788999707785700,9.18978564453125,-0.13383446995019913,0.04558233213201165,-0.0016536854911595581
1772788999727818500,9.209818603515625,-0.14517361008822918,0.09010843320935964,-0.009082374187186359
1772788999747851300,9.229851318359374,0.08951952740550041,0.07612988447844982,-0.04181808422766626
1772788999767883500,9.249883544921875,0.2695440861225128,0.04201747925728559,0.1560824690502137
1772788999787916500,9.26991650390625,0.10282967535555362,-0.0015672493167221545,0.03657660337761044
1772788999807949600,9.289949462890625,-0.2139139688372612,0.03454655885472894,-0.0467903927475214
1772788999827981600,9.309981689453124,-0.15517653318643568,0.06633212856352329,-0.09371734442152083
1772788999848014600,9.3300146484375,0.12975158455073832,0.03648088791817426,0.02640015034340322
1772788999868047400,9.35004736328125,0.14530863464474678,0.053565439840406175,0.1273360478416085
1772788999888079400,9.370079345703125,0.04719838902652263,0.13196283085942268,0.05972841944955289
1772788999908112600,9.390112548828125,-0.1602998675495386,0.1410064074061811,-0.10402882201224566
1772788999928145400,9.4101455078125,-0.01274783789217472,0.09478548510968685,-0.14559000886939466
1772788999948178400,9.430178466796875,0.07718202387988567,0.0692060765646398,0.012151552499458193
1772788999968210400,9.45021044921875,0.1166816750973463,0.07059022439941763,0.1186711684141308
1772788999988243500,9.470243408203125,-0.1633896502584219,0.030098931796103713,0.1759988833975047
1772789000008276500,9.4902763671875,-0.18318273048698902,0.008203034069389104,0.09912453722730279
1772789000028308500,9.51030859375,-0.1495867503553629,0.018809914410114287,0.04646043014079332
1772789000048341500,9.530341552734376,-0.19138941781818866,0.04142126692980528,0.10622801255695521
1772789000068374300,9.550374267578125,-0.1094008704394102,0.07708966942131519,0.2191696243431419
1772789000088407600,9.570407470703126,-0.00035129765570163723,0.10757321662083268,0.35018647958934307
1772789000108439600,9.590439453125,-0.09167699770033359,0.11034911107495426,0.2612796041894704
1772789000128472600,9.61047265625,-0.17816577910780906,0.07806465193331241,0.05522124422341585
1772789000148505300,9.63050537109375,-0.044138416934013366,0.04835077393203974,-0.044339930855482816
1772789000168537600,9.65053759765625,0.40139527330100533,-0.024895079542696475,0.11937829377017914
1772789000188570600,9.670570556640625,0.2695084302872419,-0.076394380633533,0.22394195331148803
1772789000208603600,9.690603759765626,0.007978723794221878,-0.07557283511757851,0.13731858573891223
1772789000228635600,9.7106357421875,-0.03401800493597984,-0.05848842932581901,0.08169562884680927
1772789000248668400,9.73066845703125,0.1669873824894428,-0.05309782232865691,0.033861280004307624
1772789000268701400,9.750701416015625,0.30178982068896293,-0.055796121501922605,0.09877535846345126
1772789000288734500,9.770734375,0.1265063190191984,-0.042815643897652626,0.2435240942031145
1772789000308766700,9.7907666015625,-0.11242577121853828,0.009637012395262717,0.20921828530170022
1772789000328799500,9.810799560546876,-0.2702560337841511,0.059331309890747065,0.09836685072779655
1772789000348832500,9.83083251953125,-0.14132687153220175,0.0673380907356739,0.05543547149598598
1772789000368864500,9.850864501953126,0.14663316124677658,0.08514072779938578,0.11209909654743969
1772789000388897500,9.8708974609375,0.21476035653352737,0.025433862594515085,0.10898717507198452
1772789000408930600,9.8909306640625,-0.11630991917550564,0.0071782210662961,0.10229980626255274
1772789000428962600,9.910962646484375,-0.31016718841195107,-0.007744768907874822,0.02148074105456471
1772789000448995600,9.93099560546875,-0.15468436575531957,-0.007216068858653306,0.0006511573851108551
1772789000469028400,9.9510283203125,0.008600070562958717,0.013389935187995434,0.01049472520314157
1772789000489061600,9.9710615234375,0.03570084345638752,0.02323284541890025,0.08362572012655436
1772789000509093600,9.99109375,0.01633621777296066,0.024022242230921982,0.18576434447802603
1772789000529126700,10.011126708984374,-0.10536883844435214,0.03796674256175756,0.13698299710899592
1772789000549159400,10.031159423828125,-0.19786358226835726,0.031195202600210904,0.027275691068917512
1772789000569191400,10.05119140625,-0.05089198284745216,0.05699424524530768,-0.022149434096366164
1772789000589224700,10.071224609375,0.07814180882275104,-0.017224983306229114,0.025721885755658147
1772789000609257500,10.091257568359374,0.11469780780375004,-0.03380465444624424,0.12260258957892656
1772789000629289700,10.111289794921875,-0.0004623568147420883,-0.06564268499463796,0.13272482820786535
1772789000649322500,10.131322509765624,-0.06872574570178985,-0.07606544094011188,0.11902670385353266
1772789000669355500,10.15135546875,-0.12074994744956492,-0.0679975775577128,0.0727239484924823
1772789000689388500,10.171388427734374,0.19925240627825258,-0.016018091734498738,0.12846885126382113
1772789000709420500,10.191420654296875,0.19175942017436026,-0.021267975086718797,0.08770495226420462
1772789000729453600,10.21145361328125,-0.05718669907748699,-0.0016245324619114398,0.059775035070255396
1772789000749486300,10.231486328125,-0.32224750230610366,0.023938144144043324,0.0993541081994772
1772789000769518600,10.2515185546875,-0.27212708835303784,0.027596228260174393,0.06077807463295758
1772789000789551600,10.271551513671875,0.03293371683061123,0.08361074175313114,0.07017119526974856
1772789000809584600,10.291584716796875,0.04630056340396404,0.04597315808050334,-0.025950799140706658
1772789000829617400,10.311617431640625,-0.09420154774188995,0.018893793301284312,-0.020055384426563978
1772789000849649400,10.3316494140625,-0.0811626179486513,-0.013219839318096636,-0.016427695448696614
1772789000869682400,10.351682373046875,-0.10396949304044246,-0.007198240941017866,0.047094197999686
1772789000889715500,10.371715576171875,0.00799041423201561,0.0002294248417019844,-0.00506364006511867
1772789000909747700,10.391747802734375,0.14868249499201774,-0.029519378342479467,-0.06126505443230271
1772789000929780500,10.411780517578125,0.09622866965532302,-0.05062777895331382,-0.05679200067147612
1772789000949813500,10.4318134765625,-0.02880699228942394,-0.03279825388267636,0.03648154550530016
1772789000969845500,10.451845458984375,-0.11062018310129641,-0.02880158546194434,0.08840667079277337
1772789000989878500,10.47187841796875,-0.04833411505818367,-0.02436930210292339,0.04069996691793203
1772789001009911600,10.49191162109375,0.07612579282522201,-0.008547463592886924,0.01585924791097641
1772789001029944300,10.5119443359375,-0.015201076263189315,-0.014806816248595714,0.034095819412544366
1772789001049976600,10.5319765625,-0.12289280469715594,-0.005140285497903824,0.11439714435674249
1772789001070009300,10.55200927734375,-0.11113397784233092,-0.01242109015583992,0.13982815740704535
1772789001090042600,10.572042724609375,0.11240355938673019,0.0027997137211263176,0.03622684009186923
1772789001110075000,10.592074951171876,0.136335639116168,0.00964168857038021,-0.03348229062408209
1772789001130108000,10.61210791015625,-0.03140519208908081,-0.053094169066846365,-0.06812281137257814
1772789001150140700,10.632140625,-0.10857552553117275,-0.06656959058120847,0.08863397674262523
1772789001170174000,10.652174072265625,0.009873159238696097,-0.06561433568298816,0.1982438137575984
1772789001190205700,10.672205810546876,0.06411620607972145,-0.06779898624569178,0.17953816343955695
1772789001210239000,10.692239013671875,0.02127425869703293,-0.07318345576301216,0.01563406085297465
1772789001230271700,10.712271728515624,0.08108253844976425,-0.06324322263747453,-0.1336959382623434
1772789001250304000,10.732303955078125,0.07646773813068866,-0.0015380232222378253,-0.044313408174738285
1772789001270336800,10.752336669921876,0.01099544126689434,0.040150954733043906,0.06567863309085369
1772789001290369800,10.772369873046875,-0.038571430456638335,0.02103504311367869,0.044032764602452514
1772789001310402800,10.79240283203125,0.01828910540640354,-0.015968991895765065,-0.007717515574768185
1772789001330434800,10.812434814453125,0.0477010778516531,0.0019150398410856724,-0.039632410751655696
1772789001350467800,10.8324677734375,0.08148293594419956,0.002497369773685932,0.0790231947671622
1772789001370500900,10.8525009765625,0.05594049840867519,-0.01498392638117075,0.05855659919120371
1772789001390532900,10.872532958984374,0.06755787096619606,-0.036383272762596605,0.08205423302613199
1772789001410566000,10.89256591796875,-0.07115384963154793,-0.0244746621735394,0.050593876683712
1772789001430599000,10.912598876953124,-0.10280570995807647,0.04323503835350275,0.019073095390945673
1772789001450631000,10.932630859375,-0.05361702389717102,0.059871115855872625,0.08458221713379024
1772789001470663700,10.95266357421875,-0.03292436448037624,0.04093428713046014,0.09595635551996529
1772789001490697000,10.972697021484375,-0.08918576540648937,-0.002536094348877668,0.0868589298941195
1772789001510729700,10.992729736328124,-0.12453472668528556,-0.015370660676434635,0.12142631234116852
1772789001530762000,11.012761962890625,-0.05961421848535537,-0.014437617610022425,0.13491707755513488
1772789001550794800,11.032794677734374,0.000008183306455612182,-0.038646176193282006,0.10003697589710354
1772789001570828000,11.052828125,0.11734276935458182,-0.0262103268597275,0.08916764522790908
1772789001590859800,11.07285986328125,-0.026059739407896992,-0.0065229720279574395,0.06523373886756599
1772789001610892800,11.092892822265625,-0.19761749855279923,0.022521116952970623,0.06882511442303657
1772789001630925800,11.11292578125,-0.06152443602085113,0.029466186850517988,0.05041683961637318
1772789001650958800,11.132958740234375,0.12720657624304293,0.01642740318775177,0.17449344727061689
1772789001670990800,11.152990966796875,0.03431494205594063,-0.02137581937536597,0.10568236137293278
1772789001691024000,11.17302392578125,-0.14483224930465222,-0.009068930183723569,-0.04839826633557677
1772789001711057000,11.193056884765625,-0.08153963456749916,-0.01070164595209062,-0.023722382501512766
1772789001731089000,11.2130888671875,-0.009205635240674019,-0.005129033451527357,0.13695464779734612
1772789001751121700,11.23312158203125,0.020128011271357535,0.007137085338309407,0.14295439966879783
1772789001771155000,11.253155029296876,-0.07500000366568566,0.027672581432014703,0.10523673649728298
1772789001791186700,11.273186767578125,-0.06988017643392086,0.03108407037593424,-0.00985650036484003
1772789001811220000,11.293219970703126,-0.031214053431153296,-0.009754647425562143,-0.1070218663483858
1772789001831252700,11.313252685546875,0.0757078596740961,-0.04032455773428082,-0.041935792323201895
1772789001851286000,11.3332861328125,0.2343131982654333,-0.03169511494636536,0.12265819222368299
1772789001871317800,11.35331787109375,0.10069792402386665,-0.04684022323861718,0.129780591449514
1772789001891350800,11.373350830078126,-0.10308394237756728,-0.0617598522119224,0.011070260068774223
1772789001911383800,11.3933837890625,-0.031987960413098336,-0.02310410447269678,-0.03348952408246696
1772789001931415800,11.413415771484376,0.058250528916716574,0.04297156511172652,-0.02678103941977024
1772789001951448800,11.43344873046875,-0.047184360501170156,0.06208177764266729,0.019939649092406034
1772789001971481900,11.45348193359375,-0.11278583670258521,0.0794606363363564,0.053170449173450464
1772789001991515000,11.473514892578125,0.0022281974434852597,0.02118219649940729,0.05979914659820497
1772789002011547000,11.493546875,0.07712240264713764,0.0011481471218168734,-0.022377762959524986
1772789002031580000,11.513579833984375,-0.039271103158593175,-0.0010552081413567065,0.03206438665017485
1772789002051613000,11.533613037109374,-0.1277227090716362,0.0023841917227953673,0.11639635534994304
1772789002071644700,11.553644775390625,0.007760697129368782,0.014962883593142032,0.14349033317640422
1772789002091678000,11.573677978515626,0.11705401554107665,0.01518025267086923,0.07297346627414227
1772789002111710200,11.593710205078125,-0.039994741258025164,0.021460575049370528,0.024318740959465502
1772789002131743500,11.613743408203124,-0.23813480238020418,0.03798566645793616,0.02719225056916475
1772789002151775500,11.633775390625,-0.15362228948175907,0.017037790171056985,0.10287461047582327
1772789002171808500,11.65380859375,0.09975041404068469,-0.0026820786908268927,0.21882614466771483
1772789002191841300,11.67384130859375,0.13176350889503954,-0.02903685552254319,0.2175581705585122
1772789002211873300,11.693873291015626,-0.08040975375473498,-0.06588876871019601,0.08406791093610226
1772789002231906300,11.71390625,-0.12646014178991316,-0.03551321192979812,0.014739303970336914
1772789002251939300,11.733939208984374,0.05599018276929855,-0.07037380516976117,0.07541435662023722
1772789002271972400,11.753972412109375,0.2933861494809389,-0.062174424362182616,0.192654177056998
1772789002292004400,11.77400439453125,0.09880348857939243,-0.0398673885513097,0.14817878325358033
1772789002312037400,11.794037353515625,-0.12496610383987426,-0.0035961978610605,-0.04258030077181756
1772789002332070400,11.8140703125,-0.20910627629458903,0.020034853095188737,-0.0679604604177177
1772789002352102400,11.834102294921875,-0.014372808745503425,0.06991181368120014,0.0160218911267817
1772789002372135400,11.854135498046874,0.06642506754398346,0.09230703923217952,0.06651055387035013
1772789002392168400,11.87416845703125,-0.0842260971724987,0.07398673496991395,0.11749803298152983
1772789002412201500,11.894201416015624,-0.21183307090997694,0.08781177363954484,0.07538819926567375
1772789002432233200,11.914233154296875,-0.196427996507287,0.08350582007393241,-0.002340790972486138
1772789002452266500,11.9342666015625,0.03815817348062992,0.0417184963107109,-0.0070709612995386115
1772789002472299300,11.95429931640625,0.014860884523391724,0.0511919887073338,0.0614168839931488
1772789002492331500,11.97433154296875,-0.14625380654036998,0.04279482030533254,0.10397131967134773
1772789002512362500,11.994362548828125,-0.14100012379586696,0.04693754613325,0.13260719317756592
1772789002532395300,12.014395263671876,-0.03200549606978893,0.038318478608876466,0.1043465096592903
1772789002552427300,12.03442724609375,-0.011951719078421592,0.0659534314442426,0.028092195083573458
1772789002572460300,12.054460205078126,0.004057166436314583,0.11193791463635862,0.017931012683734298
1772789002592493300,12.074493408203125,-0.015481646770238876,0.07712503299564123,0.057532516840472815
1772789002612526300,12.0945263671875,-0.0722311234742403,0.08556362938657402,0.08423902971930801
1772789002632558300,12.114558349609375,-0.18579905046522616,0.0852913883164525,0.057864306078106165
1772789002652591400,12.13459130859375,-0.19607377624213695,0.03145283062309027,-0.007524696416407823
1772789002672624400,12.154624267578125,-0.09031739978492259,-0.04288593265488744,-0.015087679016590118
1772789002692656600,12.17465673828125,0.21110534115731716,-0.09098068599924444,0.10664031968489289
1772789002712689400,12.194689453125,0.09423135835826396,-0.09649506550654768,0.2069992940779775
1772789002732722400,12.214722412109374,-0.08646189340054988,-0.0782252493225038,0.12618943508975208
1772789002752755500,12.23475537109375,-0.09089023123681544,-0.042937516711652274,0.08806794035769999
1772789002772787500,12.254787353515624,0.19392448925375938,-0.01753551056012511,0.06465593897961079
1772789002792820500,12.274820556640625,0.17464987994134426,0.012703560359030962,0.08583565126098693
1772789002812853200,12.294853271484374,-0.03443418452143669,-0.0086661215364933,0.03302672887630761
1772789002832885500,12.314885498046875,-0.0767494776815176,0.004902677349746227,0.08449687693789601
1772789002852918300,12.334918212890624,0.008220715856552124,0.029855770689994093,0.08247282376438379
1772789002872951600,12.35495166015625,0.006036357554793357,0.04607961412966251,0.015434665823355316
1772789002892984300,12.374984375,-0.11762976960241794,0.06865867181494832,0.00870776872113347
1772789002913016300,12.395016357421875,-0.14831716881096363,0.11274258208274841,0.003748611943796277
1772789002933049300,12.41504931640625,-0.08335340599119663,0.031860096249729394,-0.014804258965328335
1772789002953082400,12.435082275390625,0.0608025514870882,0.006374065076559782,-0.004208995997160673
1772789002973114400,12.4551142578125,-0.022557868766784665,-0.019660832151025532,-0.009278992737829684
1772789002993147400,12.4751474609375,0.031711481559276576,-0.039448067160695786,0.020104776526242492
1772789003013180400,12.495180419921875,0.16777824060618876,-0.031634616930782795,0.14360994096808136
1772789003033213400,12.51521337890625,0.0694429540604353,-0.058439621748030184,0.18175795838087797
1772789003053245200,12.5352451171875,-0.017436287969350813,-0.061805152658373115,0.0655612903214991
1772789003073278500,12.555278564453126,0.024774375772476195,-0.04435249807611107,0.011169774920493364
1772789003093311200,12.575311279296875,0.12135317403972148,-0.024805355432629583,0.0954223947737366
1772789003113345000,12.595344970703126,0.15788111597001553,-0.013376491184532642,0.0758043788511306
1772789003133376800,12.615376708984375,0.028996377381682394,-0.05639277222082018,0.11714125543311238
1772789003153410000,12.63541015625,-0.14398644613027572,-0.05165069226026535,0.1509560659471899
1772789003173442800,12.65544287109375,-0.1828565672725439,0.0011398176848888397,0.042677404470741746
1772789003193474800,12.675474853515626,0.08304887008666992,0.030946050144731996,-0.04537899157963693
1772789003213507800,12.6955078125,0.2273018581986427,0.006143032799661159,0.05158296078629791
1772789003233540900,12.715540771484376,0.06571604249179362,0.018723551300913095,0.09237659733705222
1772789003253574000,12.735573974609375,-0.28599545470774174,0.03306698782145977,0.008999591274559498
1772789003273606000,12.75560595703125,-0.22641280040442943,0.05082841609194874,-0.07630904043763875
1772789003293639000,12.775638916015625,0.03937807066440582,0.04319076082035899,0.03090535280816257
1772789003313672000,12.795671875,0.07365501879751682,0.022986323311924933,0.08493146896287798
1772789003333703700,12.81570361328125,-0.09907646030187606,0.029584990924596783,0.05983677519485354
1772789003353737000,12.835737060546874,-0.04096738568246364,-0.020660802973806857,0.07679426667131484
1772789003373769700,12.855769775390625,0.04648585684299469,-0.055641077070683234,0.0443513290323317
1772789003393803000,12.875802978515624,0.09865969619452952,-0.04842369303777814,0.011098170989006758
1772789003413834800,12.895834716796875,0.06118658236861228,-0.036611674690991636,0.028091902822628616
1772789003433868000,12.915867919921874,-0.005934066224098205,-0.0009434183299541472,0.04007197121270001
1772789003453900800,12.93590087890625,0.07150923894047737,0.04495440949201584,0.010624927454069255
1772789003473933000,12.95593310546875,0.13862579587996005,0.04671031324863434,-0.025860417443513868
1772789003493965800,12.9759658203125,0.2168202116727829,0.021153262665867804,-0.018629297146201134
1772789003513998800,12.995998779296874,0.02314063709080219,-0.015589344928413629,0.024300839976593852
1772789003534032000,13.016031982421875,-0.11002864694893359,-0.01046907930523157,0.13293752111047505
1772789003554064000,13.03606396484375,-0.06050444532334804,0.012133213125169276,0.23215251310020685
1772789003574097000,13.056096923828125,-0.1160498069345951,0.019440175137668846,0.22974472130611537
1772789003594130000,13.0761298828125,-0.11785831766128539,0.002003887168318033,0.19106858836598692
1772789003614162000,13.096161865234375,0.03521101411283016,-0.045265667398273944,0.087149875664711
1772789003634195000,13.11619482421875,0.06976385657787322,-0.08267185346782208,0.11067045198380947
1772789003654228000,13.13622802734375,0.04154664687514305,-0.056052872741967436,0.1736545852936804
1772789003674260700,13.1562607421875,-0.12539806551635266,-0.01168620001003146,0.14721877911500633
1772789003694292700,13.176292724609375,-0.027836101430654524,0.00657455608472228,0.08993665683902799
1772789003714326000,13.196325927734375,0.271740719383955,0.010934504859894513,0.005087824658304453
1772789003734358800,13.21635888671875,0.08200316042602061,0.02756853653565049,0.005287146622687578
1772789003754391800,13.236391845703125,-0.20558803904056547,0.0709308545306325,-0.05738938204273581
1772789003774423800,13.256423828125,-0.15310849474072455,0.062276715692877765,0.003363704279437661
1772789003794456800,13.276456787109375,0.14241232868134976,0.02466404726579785,0.11888371518626809
1772789003814489900,13.29648974609375,0.18213234465122222,0.028097967237234112,0.15937661522477864
1772789003834521900,13.31652197265625,-0.1421703366190195,-0.0003714636608958244,0.004691518817096949
1772789003854555000,13.336554931640626,-0.2155202349901199,0.0015511749647557735,-0.0415645478580147
1772789003874587600,13.356587646484375,-0.11512333973944186,-0.016995120073109864,0.14590594295077025
1772789003894621000,13.376620849609376,0.004207973083853721,-0.024363603014498948,0.22957535608857868
1772789003914653000,13.39665283203125,0.08766600849330425,-0.02817410121336579,0.14044037102125584
1772789003934686000,13.41668603515625,0.04068973778486252,0.021051555857062337,0.02038783125132322
1772789003954718700,13.43671875,-0.0912187325388193,0.006035919163376093,-0.039170930719748136
1772789003974750700,13.456750732421876,-0.08254676578342914,0.030154022984206674,-0.04690890456065535
1772789003994784000,13.476783935546875,0.02820435022115707,0.06185469088852405,0.14463804190680385
1772789004014816800,13.496816650390626,0.05931961945295334,0.04214841216057539,0.1593581297200173
1772789004034849800,13.516849853515625,-0.0545896683216095,-0.025351298877596854,-0.027425182542204857
1772789004054881800,13.5368818359375,-0.07665010896027087,-0.005006868376582861,-0.1439445066846907
1772789004074914800,13.556914794921875,0.09119476714134216,0.009533113629370928,-0.058510495027154684
1772789004094947800,13.57694775390625,0.22887305303812025,-0.006772416744381189,0.18353410120792685
1772789004114979600,13.5969794921875,0.029167057773470877,-0.009803747264295816,0.22220409666821359
1772789004135012600,13.6170126953125,-0.17444997345507143,0.00787248694077134,-0.018405279131978747
1772789004155045600,13.637045654296875,-0.1481745454698801,0.04767112110480666,-0.11986030513346195
1772789004175078700,13.65707861328125,0.01948328362703323,0.09451587438806891,0.005538052643835545
1772789004195110700,13.677110595703125,-0.10001052628159522,0.09721198160424828,0.11703713747151195
1772789004215143700,13.697143798828124,-0.07117606146335602,0.09508242222964763,0.1633902347803116
1772789004235176400,13.717176513671875,-0.21925766795277593,0.07855565032064914,0.09528415534682572
1772789004255208700,13.737208740234376,-0.2513186936020851,0.04407426565662026,0.0051453269992023706
1772789004275241700,13.75724169921875,-0.1521831965893507,0.015666794078797102,-0.046430692589655514
1772789004295274500,13.7772744140625,-0.08539747903943061,-0.008357786239683628,0.021570611295104025
1772789004315307500,13.7973076171875,0.002072130098938942,-0.02087225376740098,0.0904207140289247
1772789004335339500,13.817339599609374,0.024952654948830602,-0.010618716908991336,0.24186733997203408
1772789004355372500,13.83737255859375,-0.09620411973595619,0.004163987811654806,0.12111015906408429
1772789004375405600,13.857405517578124,-0.052534489357471466,0.017698153775930404,-0.08951346299089491
1772789004395438600,13.8774384765625,0.0698129564166069,0.0008041559897363186,-0.04599076680243015
1772789004415470600,13.897470703125,0.33121523713767526,-0.01959127404615283,0.11562770906500518
1772789004435503600,13.917503662109375,0.10296411539018153,-0.006068798519670963,0.13919555859193206
1772789004455536600,13.93753662109375,-0.10630933416485785,0.002436287236213684,0.010707783431932329
1772789004475568600,13.957568603515625,-0.03551028932034969,0.03023950931057334,-0.004184007686376571
1772789004495601700,13.9776015625,0.02790507501363754,-0.0014678805954754352,0.00877338130325079
1772789004515634400,13.997634521484375,0.23778759637773036,0.007330342888087034,0.0775697080232203
1772789004535667700,14.017667724609375,0.01369593239724636,-0.013499971433728932,0.13507482540011406
1772789004555699700,14.03769970703125,-0.15754150875210762,0.01681011889502406,0.09911489261612295
1772789004575732700,14.057732666015625,-0.1572375573694706,0.01650295264199376,0.06849288679398596
1772789004595765500,14.077765625,-0.06571136631667614,0.018878157340735197,-0.0012731617409735918
1772789004615797500,14.097797607421874,0.05517068307995796,0.019352204593271017,-0.007017915938049554
1772789004635830500,14.11783056640625,0.13939151955544948,0.05139072614982724,0.17020685599260033
1772789004655863600,14.137863525390625,-0.08505553373396396,0.08203238652050494,0.11576317201294004
1772789004675896600,14.157896484375,-0.19276070617139338,0.05888020512238144,-0.05209302920028567
1772789004695928600,14.177928466796875,-0.11172083781957626,0.0004331307202577591,-0.12558131312876938
1772789004715961600,14.197961669921876,0.09379939668178558,0.00489142530336976,-0.008437427347153425
1772789004735994600,14.21799462890625,0.28035891012549397,-0.018694179075956344,0.17542773244604468
1772789004756027600,14.238027587890626,0.15480653083026408,-0.03302928615957498,0.2683222161773592
1772789004776059600,14.2580595703125,-0.07506663916110992,-0.028996231251209974,0.15365319607667624
1772789004796092400,14.278092529296876,-0.11378946078717708,-0.018380729212611913,0.0016885376088321207
1772789004816125700,14.298125732421875,-0.015760463711619377,-0.0166821086011827,-0.051020869924128055
1772789004836157400,14.318157470703126,0.054393268966674804,-0.025041356145590544,0.0865187381543219
1772789004856190700,14.338190673828125,-0.08833177892565727,-0.021979045965522526,0.2344664160657674
1772789004876223500,14.358223388671876,-0.23670623088181017,0.020614333483576774,0.18606895344778895
1772789004896256800,14.3782568359375,-0.13447393689751624,0.047648470881581306,0.07509498847275972
1772789004916288500,14.39828857421875,0.03550269053578377,0.04880976974591612,-0.009852189515903591
1772789004936321500,14.418321533203125,0.008493687579035758,0.033658523973822595,-0.15397680200785396
1772789004956354600,14.4383544921875,-0.02577098559439182,0.033023294810205696,-0.08625570330396294
1772789004976387600,14.4583876953125,-0.047644379228353496,0.04160378388985991,0.004137392065674066
1772789004996419600,14.478419677734376,0.055527825954556465,0.034448066916316744,0.04151742078065872
1772789005016452600,14.49845263671875,0.14770283630490302,-0.014170418041199445,0.008441226739436387
1772789005036485600,14.518485595703124,0.06885317147374152,-0.023871581713855266,-0.0239001502212137
1772789005056517600,14.538517578125,-0.04455050486624241,-0.011098317119479178,-0.0827091167382896
1772789005076550700,14.558550537109374,-0.1161497601777315,0.02338730532824993,0.03959054437130689
1772789005096583700,14.578583740234375,-0.14067045345008372,0.02864522585645318,0.18606230451129377
1772789005116617000,14.598616943359374,-0.07777882072925567,0.01765709111317992,0.20454145259708165
1772789005136649000,14.61864892578125,0.03521101411283016,0.013143559211492538,0.13366203599274157
1772789005156682000,14.638681884765624,0.007929039433598517,-0.01254632397070527,-0.0020871084723621605
1772789005176715000,14.658715087890625,-0.06449205365478992,-0.036509091099351645,0.05425576019212603
1772789005196747000,14.6787470703125,0.10442717368006706,-0.06717310943230986,0.1603982864227146
1772789005216780000,14.698780029296875,0.13073884202241898,-0.04654606259763241,0.20854805788993835
1772789005236813000,14.71881298828125,0.0020206921726465222,-0.04504121099263429,0.07856741382367909
1772789005256845800,14.738845703125,-0.14347089782357214,-0.017015578339248896,-0.12353650942817329
1772789005276877800,14.7588779296875,0.07914835551679134,0.003924041575938463,-0.07653707703985273
1772789005296911000,14.7789111328125,0.13571253878176212,0.030168343770503998,0.05721124899685383
1772789005316944000,14.79894384765625,-0.0532388382345438,0.04648951010480523,-0.018919000807777045
1772789005336977000,14.818976806640626,-0.20615502527356147,0.024179770880192516,-0.1412778447587043
1772789005357009000,14.8390087890625,0.021771102303266524,-0.015351152258366346,-0.00007394201904535293
1772789005377042200,14.859042236328126,0.09068447953164577,-0.026062223625928162,0.07133695111349225
1772789005397075000,14.879074951171875,-0.018849661898612976,-0.026699060224741694,0.06664243662171065
1772789005417107200,14.899107177734376,-0.1694412053823471,-0.028752193362265824,0.04152859976179898
1772789005437140000,14.919139892578125,-0.007166238367557525,-0.012859335442632435,0.032406405020877715
1772789005457173000,14.939173095703126,0.03262508927285671,0.00736906746327877,0.010993906896933912
1772789005477206000,14.9592060546875,-0.17799802132546902,0.022577596380561588,-0.0005072188697755336
1772789005497238000,14.979238037109376,-0.23963643911480903,0.07742270076796412,0.07375139184407889
1772789005517271000,14.99927099609375,-0.0574082328736782,0.12407295439243315,0.1981270555101335
1772789005537303800,15.0193037109375,-0.03779927704036236,0.08715791284069418,0.20235935931764543
1772789005557337000,15.039337158203125,-0.07032850472331047,0.03780132286697626,0.14751381653882562
1772789005577369000,15.059369140625,-0.0365600906342268,-0.037435996685922145,0.12863975085131824
1772789005597402000,15.079402099609375,0.060610828307271,-0.058074149436503644,0.2880292986229062
1772789005617435000,15.099434814453126,0.07736556375324725,-0.07705752071738242,0.3370644015572965
1772789005637467000,15.119466796875,-0.053471477946639055,0.011653174523264169,0.4205447949290275
1772789005657500000,15.1395,-0.13003683123290538,0.006008592765033244,-0.05777253614142537
1772789005677533000,15.159532958984375,0.011799158865213393,-0.008249357429146766,-0.27745464005134995
1772789005697566000,15.17956591796875,0.045505029112100595,0.012166823133826256,-0.0036610067255795
1772789005717598000,15.199597900390625,-0.01558686071038246,0.012474573908746242,0.19471819691471753
1772789005737631000,15.219630859375,-0.027069208711385725,0.02540858202278614,0.1416330879371613
1772789005757664000,15.2396640625,-0.059085226175189014,0.06888298209011555,-0.018785729816928505
1772789005777697000,15.259697021484374,-0.0038408933371305463,0.08110080475881695,-0.10664565344713628
1772789005797729000,15.27972900390625,-0.05078092368841171,0.055373658306151624,0.009066665161401033
1772789005817761800,15.29976171875,-0.06723346131742,0.052752369891852134,0.09534567627571523
1772789005837795000,15.319795166015625,0.00902910962998867,0.030683745946735144,0.04574555986970663
1772789005857827000,15.3398271484375,-0.0761433284819126,0.038402795891463753,-0.014982830402627587
1772789005877860000,15.359860107421875,-0.07857377049922942,0.02832490786090493,0.03945537368431687
1772789005897892900,15.379892822265624,0.020457097095251082,-0.025244185241311785,0.10830737611427903
1772789005917926100,15.399926025390625,-0.01658639314174652,-0.013438596635311842,0.19611169709973036
1772789005937958000,15.4199580078125,-0.0984825860619545,-0.04486410086005926,0.10913980835042893
1772789005957991000,15.439990966796875,-0.00265606746673584,-0.06980988767668604,0.036163784793019293
1772789005978024000,15.46002392578125,0.13564882589578628,-0.06288958689421414,0.0412938411578536
1772789005998057000,15.480056884765625,0.10559680198132991,-0.02985094838440418,0.02817899658419192
1772789006018089000,15.5000888671875,-0.02769815426468849,0.0036402561984956263,-0.005083659939840435
1772789006038122000,15.5201220703125,-0.02816051107943058,0.03634644788354635,-0.020634207227826117
1772789006058155000,15.540155029296875,0.20945114420950411,0.04066138847321272,0.08208287459872662
1772789006078187000,15.56018701171875,0.17153145565986633,-0.002304477550089359,0.11872706331983209
1772789006098219800,15.5802197265625,0.0118511813133955,-0.05471811700686812,0.030732772720232605
1772789006118252800,15.600252685546875,-0.03383329601883888,-0.05937573355436325,-0.015400544358044862
1772789006138285600,15.62028564453125,0.13050561778843403,-0.05207607806548476,0.07279942488148808
1772789006158317800,15.64031787109375,0.2517623457163572,-0.02484408000782132,0.19867146458514034
1772789006178350600,15.6603505859375,-0.06754851861596108,-0.0015333470471203326,0.1614022027682513
1772789006198383900,15.6803837890625,-0.2879436661660671,0.039529023442417384,0.016034604477882384
1772789006218416600,15.700416748046875,-0.08099252207875252,0.08746814783364534,0.017995821548253296
1772789006238449000,15.720448974609376,-0.006906126126646995,0.068282531978935,0.10716156708002089
1772789006258481700,15.740481689453125,-0.02814998968541622,0.034955870307981966,0.1259756462085992
1772789006278514700,15.7605146484375,-0.03766366796195507,-0.0008240297339856624,0.09472812889926135
1772789006298546700,15.780546630859375,-0.1373854404300451,-0.0047279053047299385,0.03065788085311651
1772789006318579700,15.800579833984376,-0.06483575252592563,0.0061981239877641195,-0.005857859182730317
1772789006338612700,15.82061279296875,0.053742696103453634,0.048185646498203276,-0.02560045133307576
1772789006358645800,15.840645751953126,0.029982465809583664,0.03379895535781979,-0.008516337802261114
1772789006378677800,15.860677734375,-0.0018710545688867567,0.030062545308470724,0.07942629567533731
1772789006398710800,15.880710693359376,-0.07708791585564613,0.0031767303399741647,0.16281170423999428
1772789006418743800,15.900743896484375,-0.012175590962171554,0.019197890814393756,0.17694588192403315
1772789006438776800,15.92077685546875,0.082474285069108,0.02055719646885991,0.08230024367645382
1772789006458808600,15.94080859375,0.03752162914276123,0.008222907813638448,-0.011442673577740788
1772789006478841900,15.960841796875,-0.1209644669830799,0.042704000216722486,0.01248867549933493
1772789006498874600,15.98087451171875,-0.14468962596356869,0.045101709008216855,0.12427636801004409
1772789006518908000,16.000907958984374,-0.08826514343023299,0.06223536076918244,0.1882715049933642
1772789006538939600,16.020939697265625,-0.07512567587196826,0.037585780420154334,0.09941365636698901
1772789006558973000,16.040972900390624,-0.024729952108860014,0.01895399905592203,-0.07892331458926201
1772789006579005700,16.061005615234375,0.12774667446911334,-0.02326119473055005,-0.07251081719845533
1772789006599037700,16.08103759765625,0.20994564972817897,-0.040365766527503726,0.0781557642828673
1772789006619070700,16.10107080078125,0.07159399461448192,0.030583500442653892,0.08342376781366766
1772789006639103700,16.121103759765624,-0.17378361850082874,0.0052465223513543605,0.009317132791131734
1772789006659136800,16.14113671875,0.015268296280503272,0.021076982559263706,-0.04519537864103913
1772789006679168800,16.161168701171874,0.3472773141443729,0.026048048970103262,-0.10713789394348859
1772789006699201800,16.181201904296874,0.36713060012757776,-0.0007854512892663478,-0.06145641228593886
1772789006719234800,16.20123486328125,0.23530863904356955,-0.0408354298658669,-0.073931643781811
1772789006739267800,16.221267822265624,0.041427404409646984,-0.05037307353988289,-0.050319224460795516
1772789006759299800,16.2412998046875,0.09907178412675857,-0.04608034478202462,-0.01424194890744984
1772789006779332600,16.26133251953125,0.12413725180029868,-0.04725771799832582,0.024262407662346958
1772789006799365600,16.28136572265625,0.08365034311115742,0.0035315351270139217,-0.008974676029011606
1772789006819397600,16.301397705078124,-0.04308920014202595,0.018022271163761615,-0.01134885781444609
1772789006839431000,16.321430908203126,-0.14317980592250823,0.023716245021671054,0.05875584809035062
1772789006859463700,16.341463623046874,-0.0955365957379341,0.0701397041529417,0.1624081649404019
1772789006879496700,16.36149658203125,-0.15842062967419623,0.0760899908594787,0.14584128021672368
1772789006899528700,16.38152880859375,-0.16852935123443602,0.07348302323147654,0.07567096172980964
1772789006919561700,16.401561767578126,-0.13601122946739197,0.03382335914671421,0.07545483476109802
1772789006939594800,16.4215947265625,-0.09955109207630157,0.01443710615336895,0.03982895623706281
1772789006959627500,16.44162744140625,-0.18021335928738116,0.013137860123068093,0.0628332535970956
1772789006979659800,16.46165966796875,-0.08167349008023739,0.013211509881168603,0.054163405733555554
1772789006999692800,16.48169287109375,0.09203180248737335,-0.004220248043537139,0.012980623734742402
1772789007019725800,16.501725830078126,0.07682838813662529,-0.017839461942762137,-0.08923238102719187
1772789007039758600,16.521758544921877,-0.11746259634196758,0.026065876887738704,-0.09294066096059977
1772789007059790800,16.541790771484376,-0.0975631331294775,0.03855126445144415,0.12238807004541158
1772789007079823600,16.56182373046875,0.09199614665210247,0.02263005722016096,0.2813478480976075
1772789007099857000,16.58185693359375,0.08731821796894072,-0.019571108040958643,0.18176818751394747
1772789007119888600,16.601888671875,-0.09356734149158,-0.03986249318048358,-0.020131591467931864
1772789007139921400,16.62192138671875,0.07451952667236328,-0.03514043309465051,-0.04276895521171391
1772789007159954400,16.641954345703127,0.17047405556142328,-0.10104556841775775,0.15443112164661288
1772789007179987500,16.661987548828126,0.18132102826833724,-0.0708323625922203,0.25387889947891235
1772789007200019700,16.682019775390625,-0.06399871717989444,-0.03138371090963483,0.18551606880538166
1772789007220052500,16.702052490234376,-0.31521570397317406,0.008218670029938221,0.04716054123416543
1772789007240085500,16.72208544921875,-0.31433716757297514,0.055536155391484494,-0.10824651277251542
1772789007260118500,16.742118408203126,-0.06260813960433007,0.10975669813975691,-0.01201981587857008
1772789007280150500,16.762150634765625,0.03891103767454624,0.0811247701562941,0.12437690577507018
1772789007300183600,16.78218359375,-0.021574118426442145,0.07706701919808984,0.055579263880848884
1772789007320216300,16.80221630859375,-0.1670668774664402,0.08327361875325441,-0.09136734722927212
1772789007340249600,16.82224951171875,-0.08697802622914313,0.09462459545955061,-0.16118103429824113
1772789007360281300,16.84228125,0.05599368990063667,0.028466069897264242,-0.12249591433405875
1772789007380314600,16.862314697265624,0.18780279150307178,-0.0055446285150945185,-0.0002649345465004444
1772789007400347400,16.882347412109375,0.08133096025288104,-0.014664046777039766,0.1858561144147068
1772789007420379400,16.90237939453125,-0.09068564857542515,-0.014255465976148842,0.16218158964291213
1772789007440412400,16.922412353515625,-0.03858721254765987,0.0032579788826406,0.04699241812564432
1772789007460445400,16.942445556640624,0.06401742188036441,-0.0010530161842703819,0.020589637433737516
1772789007480478500,16.962478515625,0.10472703340947627,-0.006217267079651355,0.13083631104752422
1772789007500510500,16.982510498046874,-0.03315992680191993,0.009373246892541647,0.15070238344706594
1772789007520543500,17.00254345703125,-0.1509673910588026,0.02887435843721032,0.17247114766277372
1772789007540576500,17.022576416015625,-0.16477146000564097,0.025550036320090293,0.11455898385494946
1772789007560609500,17.042609619140624,-0.1841676498711109,0.03267944980859756,0.05081833308935165
1772789007580641500,17.0626416015625,0.19376900643110273,0.001949818893522024,0.05778239994831383
1772789007600674300,17.08267431640625,0.1339016899675131,-0.010631284129619598,0.11798647408559917
1772789007620707600,17.10270751953125,-0.11496142717599868,-0.00826207078024745,0.047304918140918015
1772789007640740400,17.122740234375,-0.049153614747524256,-0.002469312722980976,0.044076092287525535
1772789007660772600,17.142772705078126,-0.09901450098156929,-0.009680559276044368,0.04337875767312944
1772789007680805400,17.162805419921874,-0.06154021811187267,0.004226239392906427,0.009264160494878888
1772789007700838700,17.182838623046877,0.0878203222721815,0.031324966459721326,0.026198417226225137
1772789007720871400,17.202871337890624,0.08703063319921493,0.009052052114158868,0.057884106757119295
1772789007740903400,17.2229033203125,-0.053980011990666384,0.004903554132580757,0.09486549154333769
1772789007760936400,17.2429365234375,-0.07885726361572742,-0.001709872657805681,0.12370989323370157
1772789007780969500,17.262969482421877,-0.09785773216187954,0.022536533717811107,0.13401289525702595
1772789007801001500,17.28300146484375,0.0774374599456787,0.040659781038016075,0.007211831074953079
1772789007821034500,17.303034423828127,0.1420475870221853,-0.0012923778980970383,0.04754829844273627
1772789007841067500,17.323067626953126,0.14170681076049804,-0.023142975178360937,0.05558240568600595
1772789007861100500,17.3431005859375,-0.0646498745650053,-0.04267638155743479,0.07079626836553216
1772789007881132500,17.363132568359376,-0.12629530661702154,-0.015772154149413107,0.07221044601239264
1772789007901165600,17.38316552734375,-0.041866964870691296,-0.011541530842334032,0.08419672494754195
1772789007921198600,17.403198486328126,0.02693827580809593,0.01678089280053973,0.08298413428738713
1772789007941231600,17.423231689453125,0.023650340178608894,0.02346095508635044,0.06652787033133209
1772789007961263400,17.443263427734376,0.03503799563348293,-0.003547463348507881,0.07923296506032347
1772789007981296600,17.463296630859375,-0.06456570341289043,0.0027351240523159504,0.11582615424655378
1772789008001329400,17.483329345703126,-0.14533318456411362,0.06257277603000402,0.07659552922882139
1772789008021362400,17.503362548828125,-0.14882453381121158,0.013968904119729996,-0.06321677302196621
1772789008041394400,17.52339453125,0.1336690502554178,-0.027369068440794942,0.02836940458975732
1772789008061427700,17.543427734375,0.10208090281486511,-0.03479892618060112,0.07318162913210689
1772789008081460500,17.56346044921875,0.030528409254550932,-0.0038853170007467266,0.06930537222065031
1772789008101493200,17.5834931640625,-0.08924772472679615,0.013311024732887745,-0.016552710067853332
1772789008121525200,17.603525146484376,0.0008539864808320999,0.01798383884951472,0.00997815398313105
1772789008141558500,17.62355859375,0.11586100636422633,0.006054039341956377,0.05436331221982836
1772789008161591300,17.64359130859375,-0.007595277434587478,-0.02064268279522657,0.03136347183920443
1772789008181623600,17.66362353515625,-0.06962415584623813,0.006687514939904213,0.042055180919170376
1772789008201656300,17.68365625,-0.10608020158410071,0.02944689762815833,0.12795410667471588
1772789008221689300,17.703689453125,-0.07835866644382476,0.025954379337280988,0.024482991610467433
1772789008241722400,17.723722412109375,0.006504559588432312,0.0659365533746779,0.04669445809237659
1772789008261754600,17.743754638671874,-0.18761282188892364,0.04699190666899085,-0.05028152279891073
1772789008281787400,17.763787353515625,-0.08276829957962036,0.01936769442334771,0.06267090264223515
1772789008301820400,17.7838203125,-0.09032558309137821,0.016311813984066247,0.17577179664336143
1772789008321853400,17.803853515625,-0.2036035872250795,0.031338264332711696,0.03127265175059438
1772789008341885400,17.823885498046874,-0.11424304977357387,0.03066065733209252,-0.08705722894519567
1772789008361918500,17.84391845703125,0.08756547072827815,0.028429975670576094,0.03486395424082875
1772789008381951200,17.863951171875,0.03232581406533718,-0.0015659341424703597,0.07132737956754863
1772789008401984500,17.883984619140627,-0.16675649634301662,-0.008292173657566309,0.006895093275979161
1772789008422016300,17.904016357421874,-0.010602058035135269,0.004688888468593359,-0.013462269771844148
1772789008442049500,17.924049560546877,0.11698679552376269,0.010277502255886792,0.04913578682988882
1772789008462082300,17.944082275390624,0.011385901889204979,0.006660773063451052,0.030087679749727248
1772789008482115600,17.964115478515627,-0.01395429107248783,0.011512597008794546,0.07608728744573891
1772789008502147300,17.984147216796874,0.01783902355134487,-0.01670958112999797,0.11440174746662378
1772789008522180400,18.004180419921877,0.08136544704437255,-0.03201704037711024,0.013391907949373125
1772789008542213400,18.02421337890625,0.13642214835584163,-0.02928366989046335,-0.018321546371281146
1772789008562245400,18.044245361328127,0.018568506869673727,-0.007515197935700416,0.1048399922646582
1772789008582278400,18.0642783203125,-0.08750643401741981,-0.05426277445480227,0.13644655214473606
1772789008602311400,18.0843115234375,-0.02871463783085346,-0.07186272855326532,0.23952903321757912
1772789008622344400,18.104344482421876,-0.04575637352466583,-0.03244870979264378,0.04395860338769853
1772789008642376400,18.12437646484375,-0.03204465903639793,-0.02188084628805518,-0.11086933555677532
1772789008662409200,18.1444091796875,-0.06380699400007725,0.015119535459578037,0.04333966777175664
1772789008682442500,18.1644423828125,-0.17228139724433422,0.03587225450053811,0.18018457158431408
1772789008702475300,18.184475341796876,-0.11222352664470672,0.04938537767678499,0.1569494611430913
1772789008722507500,18.204507568359375,0.013687164568901062,0.038450580555945635,-0.009075140728801489
1772789008742540300,18.224540283203126,0.28007775509655475,0.0243983820669353,0.06565495995432138
1772789008762573600,18.244573486328125,0.15295359643995762,0.026974954556673765,0.19013751806095242
1772789008782606300,18.2646064453125,0.09636427873373031,0.07748919013291597,0.10082418075203894
1772789008802638300,18.284638427734375,0.18381752125918865,0.04304813747927546,0.08474427582770586
1772789008822671400,18.30467138671875,0.1426104816019535,0.03646875908896327,0.047607773545011875
1772789008842704400,18.324704345703125,0.19511516034305096,0.1104687919318676,0.055289121827855704
1772789008862737400,18.3447373046875,0.22589257592260836,0.04503887290507555,0.005315057542920112
1772789008882769400,18.364769287109375,0.10434417157173156,0.02032631032243371,-0.06835194395333528
1772789008902802400,18.384802490234375,-0.19313187757134437,-0.00759103965088725,-0.050760027030855415
1772789008922835500,18.40483544921875,-0.34518414125740526,-0.027232436449080705,0.005426116701960563
1772789008942868500,18.424868408203125,-0.17861936809420584,-0.003058072396367788,0.11529416626170277
1772789008962900500,18.444900390625,-0.11851882739663124,0.029557518395781517,0.11128880307786165
1772789008982933500,18.46493359375,-0.2072778918236494,0.03259951644018292,-0.03024791181273758
1772789009002966500,18.484966552734374,-0.32600013283789153,0.07894464963823557,0.23553163414448497
1772789009022998300,18.504998291015625,-0.31123218729496,0.10776084814742207,0.15029825962558388
1772789009043031600,18.525031494140624,-0.23181436718702314,0.13090455397814513,0.1705051813520491
1772789009063064300,18.545064208984375,-0.017892799565196037,0.10908464409708976,0.1549254079695791
1772789009083097300,18.565097412109374,-0.024681436792016027,0.0911551657833159,0.039105902659520506
1772789009103129600,18.585129638671877,-0.09427578202188014,0.09174275641292333,-0.125794663618505
1772789009123162600,18.60516259765625,0.0011029928058385848,0.047261809651553625,-0.15650010994039476
1772789009143195600,18.625195556640627,-0.05956336508095264,0.023532412887364625,0.06870280321761965
1772789009163228400,18.645228515625,-0.1877665511459112,0.04678659335523844,0.2344987839654088
1772789009183260400,18.665260498046877,-0.21999299649000167,0.10297595195844769,0.23445187608376145
1772789009203293400,18.68529345703125,-0.12464987749755382,0.10395268803611397,0.23389716481044887
1772789009223326500,18.705326416015627,0.07166705985069274,0.033657939451932906,0.28957097510695456
1772789009243359500,18.725359375,0.05227788424789905,-0.01891381317600608,0.23617753083258866
1772789009263391500,18.7453916015625,-0.022027707412838934,-0.0251477391295135,0.20032156987972558
1772789009283424500,18.765424560546876,0.09901859263479709,-0.021026859807223082,0.13323738083988426
1772789009303457500,18.78545751953125,0.16460720935463904,-0.03337240050882101,0.07593721145056187
1772789009323490600,18.805490478515626,0.24431553684175014,-0.07425079273357987,0.09275777867436409
1772789009343522600,18.8255224609375,0.1777718113541603,-0.0707087362125516,0.1356988755825907
1772789009363555300,18.845555419921876,0.14489245505928994,-0.05596431767567992,-0.005018851075321435
1772789009383588600,18.865588623046875,0.152954765483737,-0.025804449472576377,-0.11557064511552452
1772789009403621400,18.885621337890626,0.07190496025979519,-0.029554011264443396,-0.10986848795115947
1772789009423653600,18.905653564453125,0.10134615879952907,0.013854776220768689,-0.07080218664966523
1772789009443686400,18.925686279296876,0.09654723408520222,0.03750745448693633,-0.1251695905227214
1772789009463719700,18.9457197265625,0.11916472408473491,0.027034283528476952,-0.15086195792295037
1772789009483752400,18.96575244140625,0.1778799479037523,0.006060907474160194,-0.11647175867371261
1772789009503784400,18.985784423828125,0.12867021905481815,-0.010196838235110044,-0.10979871065057814
1772789009523817500,19.0058173828125,0.046486441364884376,-0.05949249180182814,-0.13288337977044284
1772789009543850500,19.0258505859375,-0.056088382446765894,-0.025914339587837457,-0.06853285347819328
1772789009563883500,19.045883544921875,0.009034954848885536,0.002882131307572126,-0.026267463874444365
1772789009583915500,19.06591552734375,-0.09575579144656658,0.03903393340185284,-0.009745879597216844
1772789009603948500,19.085948486328125,-0.19369827928245067,0.0633928602412343,-0.11256664099395275
1772789009623981600,19.105981689453124,-0.11506488755047321,0.07509455008134246,-0.10920585932396351
1772789009644014600,19.1260146484375,-0.06128478204607963,0.09702522686049342,-0.03788162156157195
1772789009664046600,19.146046630859374,-0.19479425782561302,0.11640563463494182,0.030716917563974856
1772789009684079600,19.16607958984375,-0.3005535568922758,0.10256605598330497,0.04168013706170022
1772789009704112600,19.186112548828124,-0.2176905647665262,0.1140643322058022,0.09424604447074234
1772789009724145400,19.2061455078125,-0.041379473614692686,0.09131064860597252,0.061061202423274515
1772789009744177700,19.226177734375,0.05168225644230842,0.04614800319075584,0.0020819208405911923
1772789009764210400,19.24621044921875,0.1499649360179901,0.0020152853451669214,0.1313662532057613
1772789009784243500,19.266243408203124,0.13324819449484349,-0.031689561988413335,0.19959720112793147
1772789009804275500,19.286275390625,-0.003942015624046325,-0.04163213320150971,0.08780110611505806
1772789009824308700,19.306308837890626,0.15105974551737308,-0.04385755416601896,-0.029951486149430273
1772789009844341500,19.326341552734377,0.2444610827922821,-0.049568771419674154,-0.006712284054979681
1772789009864374500,19.34637451171875,0.16571721642315387,-0.04946954882889986,0.0017581687789410352
1772789009884406500,19.366406494140627,0.028843817168474197,-0.01543327758386731,-0.0012250117503106593
1772789009904439600,19.386439453125,-0.013072247540950774,-0.004116495408117771,0.04374956374689937
1772789009924472600,19.40647265625,-0.15549275952875613,0.06750175686478614,0.08815035794414579
1772789009944505300,19.42650537109375,-0.17482815911769867,0.11702449718564747,0.016732669744640587
1772789009964537600,19.44653759765625,-0.09898878201842308,0.10263605247959494,-0.007216653380542993
1772789009984570600,19.466570556640626,0.06326514220833777,0.06131430040150881,0.09778970842696726
1772789010004603600,19.486603759765625,-0.02054945155382156,0.04225084962174296,0.07302884972319007
1772789010024636400,19.506636474609376,-0.10428396581709384,0.04583601463213563,0.03505041672363877
1772789010044668400,19.52666845703125,-0.06472410884499549,0.029468963329494,0.06821611567921936
1772789010064701400,19.546701416015626,0.0026730186015367506,-0.0230313314974308,0.14339965921826658
1772789010084734500,19.566734375,0.05754442647397518,-0.036826194224506614,0.09241101106330751
1772789010104768000,19.58676806640625,0.03518529514968395,-0.02028743961676955,0.04262202102169394
1772789010124800000,19.606800048828124,-0.03447919270694256,0.03826046481132507,0.03886851370707154
1772789010144833000,19.6268330078125,-0.02341302429139614,0.0419027668364346,0.06075644732303917
1772789010164866000,19.646865966796874,-0.13321195413768291,0.06442249554991722,0.10576017584949732
1772789010184899000,19.666899169921876,-0.1284931089222431,0.05625117179304361,0.09551752571128308
1772789010204931000,19.68693115234375,0.0632902766495943,0.06989698143824935,0.0547456626009196
1772789010224963800,19.7069638671875,0.03215571819543838,0.019624299532920123,-0.02161978419907391
1772789010244997000,19.7269970703125,-0.07497486922442913,0.02652516496255994,0.03645370765030384
1772789010265030000,19.74702978515625,-0.17904490002989767,0.027303455858677623,0.09417480586543679
1772789010285062100,19.767062255859376,-0.056177229773998257,0.027564298751950263,0.047165728865936396
1772789010305095000,19.787094970703127,0.2357727494239807,0.02478095164373517,0.046094738633558154
1772789010325128200,19.807128173828126,0.19554244584441183,0.015667378600686788,0.08447882982455193
1772789010345161000,19.827160888671877,-0.11261048013567924,0.024922552071511745,0.012109905314818025
1772789010365193000,19.84719287109375,-0.20936288140416143,0.06732625416740774,0.0885487096119672
1772789010385226000,19.86722607421875,-0.11962941898703575,0.08975582037940621,0.1270733052521944
1772789010405259000,19.887259033203126,-0.043599487751722336,0.05999883388876914,0.05395144348330796
1772789010425292000,19.9072919921875,0.0833890618264675,0.054125265680253505,0.013761179653182624
1772789010445324000,19.927323974609376,0.005404489392042159,0.029573592747747898,0.09127484664022922
1772789010465357000,19.947357177734375,-0.16286065794825552,0.008417261341959238,0.11994966391734778
1772789010485389800,19.967389892578126,-0.19745383242368697,0.007647153752297162,0.026771760134771463
1772789010505423000,19.987423095703125,0.07908522715270519,0.029007044906169174,0.0804772660329938
1772789010525455000,20.007455078125,0.0877682998239994,0.023106004168838262,0.13545228041037916
1772789010545488000,20.02748779296875,-0.16299977415800093,0.03099968002811074,0.043162922965362664
1772789010565521000,20.04752099609375,-0.16136252834498882,0.05808189435154199,0.03745177877694368
1772789010585554000,20.067553955078125,0.047971711486577986,0.0640888796813786,0.09767010063529014
1772789010605586200,20.087586181640624,0.015988427248597146,0.014958499678969383,0.08975289776995778
1772789010625619000,20.107618896484375,0.07128069088160992,-0.02022270381748676,-0.03499627538360655
1772789010645652000,20.12765185546875,-0.017105448579788206,-0.014253858540952204,0.03212327723056078
1772789010665685000,20.14768505859375,0.0030582185268402096,0.004728197565674781,0.0720198188111186
1772789010685717000,20.167717041015624,0.12131634916067123,0.0038842940874397754,0.07814378158412873
1772789010705750000,20.18775,0.09949147084355353,0.030556320174783467,-0.08071721226871013
1772789010725782800,20.20778271484375,-0.005456511840224266,0.04467193928882479,-0.09445881043858825
1772789010745816000,20.227816162109374,-0.07345628135502338,0.06494374294504524,0.029251375056058168
1772789010765847800,20.247847900390624,-0.07118249120414256,0.06399784039705991,0.08367313946485519
1772789010785881000,20.267881103515624,-0.015459434938430786,0.055925885361433024,0.0579165477219969
1772789010805913900,20.287913818359375,-0.0902256298482418,0.02805500487834215,0.08984393705427646
1772789010825947100,20.307947021484374,-0.15423779103159904,-0.000008475567400455475,0.06382284915633499
1772789010845979000,20.327978759765625,-0.06577566372454166,-0.008054273248463868,0.08970167903937398
1772789010866012200,20.34801220703125,0.03429273022413253,-0.021353899804502724,0.11218319463431835
1772789010886045000,20.368044921875,0.1425625508069992,-0.027964111724495887,0.13071115029789507
1772789010906078200,20.388078125,0.04336100282073021,-0.06542991902679204,0.08980835428424179
1772789010926110000,20.40810986328125,-0.0819774414628744,-0.056486880245059726,0.07477160173729061
1772789010946143000,20.42814306640625,-0.031904373782873155,-0.0013249649934470654,0.044196357666328547
1772789010966176000,20.448176025390627,0.10661036293804645,0.025549305667728183,0.09872384747192263
1772789010986209000,20.468208984375,0.05246259316504001,0.04509571765884757,0.06310505627579986
1772789011006241000,20.488240966796877,-0.10039981786012649,0.03663140230476856,-0.001633519485965371
1772789011026274000,20.508274169921876,-0.09590835165977478,0.03596563187241554,-0.03345569487810135
1772789011046307000,20.52830712890625,-0.009306757527589797,0.02188274598419666,-0.04948204298429191
1772789011066340000,20.548340087890626,0.07424070973098278,0.01756736700311303,0.09618943362347782
1772789011086371800,20.568371826171877,-0.13787526977360248,-0.00583864302560687,0.11479388858936726
1772789011106405000,20.588405029296876,-0.19223755908012388,-0.0009648995094001292,0.07894523416012525
1772789011126438100,20.608438232421875,0.016112930411100387,0.012387918538600206,0.10087598400451242
1772789011146471000,20.628470947265626,0.09659750296771526,-0.023356764059513806,0.12057035309895872
1772789011166503200,20.648503173828125,-0.02896948937475681,-0.04204465952515602,0.051517567399889226
1772789011186536200,20.6685361328125,-0.1232218905210495,-0.06120002637207508,0.01002601171284914
1772789011206569200,20.6885693359375,-0.016528525474667547,-0.04318666916713118,0.09123897160924971
1772789011226602000,20.70860205078125,-0.05745265653729439,0.012801029384136199,0.13822481386363505
1772789011246634000,20.728634033203125,0.1893658030360937,-0.023417554336041212,0.08669256035126745
1772789011266667000,20.7486669921875,0.12011515667736529,-0.03386822120174766,0.10882847737893461
1772789011286700000,20.768699951171875,-0.10090075311958789,-0.03633709553331137,-0.036963556868582964
1772789011306733000,20.788733154296875,0.10866787998974323,-0.04203443039208651,-0.14251988070905208
1772789011326765000,20.80876513671875,0.032139936104416844,-0.015073504360765218,0.10049546025432646
1772789011346798000,20.828798095703124,0.13839081808030604,-0.04953808402046561,0.04507401728369295
1772789011366831000,20.8488310546875,0.22242928372621534,-0.12261734875664114,-0.2885513497356325
1772789011386864000,20.868864013671875,0.10388415284454822,-0.10693250756449997,-0.22272300597578285
1772789011406896000,20.888896240234374,0.07045651501715183,0.08014467307776212,0.37941052824705834
1772789011426929000,20.908928955078125,-0.08626549404561519,-0.15773761584609747,0.3094432580515742
1772789011446962200,20.928962158203124,-0.18396072912216185,0.2968237957794219,0.130846978572011
1772789011466995000,20.948994873046875,-0.3221083860963583,0.33055114720575507,0.1550618207655847
1772789011487027200,20.969027099609374,-0.7516554026484489,-0.10738923835605382,0.5688919204868376
1772789011507060000,20.98906005859375,-0.6523743596851825,0.03854154677502811,0.25254984283223747
1772789011527093200,21.00909326171875,-0.43027708439230916,0.0656638739131391,-0.20474661978036163
1772789011547126000,21.0291259765625,-0.3464040384411812,0.22839586398042738,-0.2586461138807237
1772789011567159300,21.0491591796875,0.3905699279040098,0.11963372983597219,-0.12479206244722008
1772789011587191000,21.06919091796875,0.3639572307884693,-0.15627316931672394,0.08723375455588102
1772789011607224300,21.089224365234376,0.12787702285051344,-0.04748465862199664,-0.16924875155016778
1772789011627257000,21.109257080078127,-0.14798574489951133,-0.10521284416504204,-0.4042581153862178
1772789011647290000,21.1292900390625,0.20060908158421514,0.06821699246205389,-0.4973692375428974
1772789011667322000,21.149322021484377,0.38561318227946756,0.03097308428213,-0.313095350818336
1772789011687355100,21.169355224609376,0.13159925824403762,-0.0634090807236731,-0.11057780526429414
1772789011707388200,21.18938818359375,0.26033611279428004,0.09233750743567944,-0.3395427743695676
1772789011727421000,21.2094208984375,0.42225335241258144,-0.04795242226421833,-0.4255364657364785
1772789011747453200,21.229453125,0.3482224860399961,0.0353780412428081,0.04163213320150971
1772789011767486200,21.249486328125,0.04188683861494064,-0.006848404590040445,0.27583412617743014
1772789011787519200,21.269519287109375,-0.22074293807446954,-0.04791362462379038,0.2440028176307678
1772789011807552000,21.289552001953126,-0.21983692914545536,-0.03817176361456513,0.275499633526057
1772789011827584000,21.309583984375,-0.10673135896921157,0.015344284126162528,0.18472849862426519
1772789011847617000,21.329616943359376,0.17383096477389334,0.03397431192472577,0.04764686344638466
1772789011867650000,21.349650146484375,0.12095511463284492,-0.21783055775910615,0.2289402730554342
1772789011887683000,21.36968310546875,0.024345336705446242,-0.10694003328382969,0.2945373653426766
1772789011907715000,21.389715087890625,-0.4044909012287855,-0.0940533714428544,0.014077479060739279
1772789011927748000,21.409748046875,-0.01044949782192707,-0.08050956086739897,0.37497985232323405
1772789011947781000,21.429781005859375,0.23241759377717972,-0.14461159229129553,0.3799947578758001
1772789011967814100,21.449814208984375,-0.04614274249374866,0.060627194920182224,0.19883622669279574
1772789011987846100,21.46984619140625,-0.325270064997673,-0.015719254918396472,0.03765314656794071
1772789012007879000,21.48987890625,-0.054848026996850964,0.008905483250319958,0.15500804475173352
1772789012027912200,21.509912109375,-0.08411971418857574,0.0713791828200221,0.15902078752443194
1772789012047945000,21.529945068359375,-0.038198505491018296,0.05674027048423886,-0.023412878160923717
1772789012067977200,21.549977294921874,0.2041670663267374,-0.08024725666940212,-0.019110797052830458
1772789012088010000,21.570010009765625,0.12517594719827174,0.1391883981987834,0.13188611236140133
1772789012108042800,21.590042724609376,-0.37114392742216584,0.21002572922706603,0.031301147192716594
1772789012128075800,21.61007568359375,-0.4023252476274967,0.05582637050971388,0.11327011308819054
1772789012148107800,21.630107666015626,-0.11783902843892574,-0.00349500250890851,0.15718991883546113
1772789012168140500,21.650140625,0.2637134802728891,0.23319281593337654,0.22714535246267914
1772789012188173800,21.670173828125,0.1284276424705982,-0.06496098634079098,0.02935293573439121
1772789012208206600,21.69020654296875,0.044025019687414166,0.12302023046910762,0.020763532695919275
1772789012228238800,21.71023876953125,-0.21616437811255454,-0.017157763288915155,0.11243658487349747
1772789012248271600,21.730271728515625,-0.11431319240033626,-0.14093041956052182,-0.028577421317249534
1772789012268305000,21.750304931640624,0.10499766704440117,0.20025734553709626,0.1252317690387368
1772789012288337700,21.770337646484375,-0.1426110661238432,-0.0327343948662281,0.12090133861899376
1772789012308369700,21.79036962890625,-0.12342296605110167,-0.0336268136613071,0.19573826067745684
1772789012328402700,21.810402587890625,0.18647417324781418,0.029653964507579803,0.211144796384871
1772789012348435700,21.830435791015624,0.17592589122653007,0.007142857491970062,0.13949877932220697
1772789012368468700,21.85046875,-0.16580372566282747,-0.0320822145678103,-0.010912439158558844
1772789012388500700,21.870500732421874,-0.3422720532029867,0.05281359855979681,-0.0601132540486753
1772789012408533800,21.89053369140625,-0.0699479809731245,0.09784209620133041,-0.08460209087803959
1772789012428566800,21.91056689453125,0.032409985217452045,0.10876271866634488,0.04282674981355667
1772789012448599800,21.930599853515623,0.24483693036735057,0.06903831878229975,0.1653042517080903
1772789012468632600,21.950632568359374,0.3688958562344312,-0.00963452817723155,0.0486813210606575
1772789012488664600,21.97066455078125,0.1729179415822029,0.0003568506136536598,0.22017653636336326
1772789012508697900,21.99069775390625,0.020073066213726995,-0.24203999312520025,0.18505276214256883
1772789012528730600,22.010730712890624,0.1591366689890623,-0.23758549793437123,0.10760434241145848
1772789012548763600,22.030763671875,0.18645313045978545,-0.10433438083007932,0.05894362574741244
1772789012568795600,22.050795654296873,0.08262333815097808,-0.056434565535932776,0.0365641822874546
1772789012588829000,22.070828857421876,-0.05862345388233661,-0.03162146518826484,-0.01111716795042157
1772789012608861700,22.09086181640625,-0.1535550694644451,0.08077318023964762,-0.07126271683350205
1772789012628894700,22.110894775390626,-0.09312895007431507,0.11180530123263596,-0.045783261531591415
1772789012648926700,22.1309267578125,-0.021592823126912117,0.175863493514806,-0.04723068386092782
1772789012668959700,22.150959716796876,-0.13242518767416475,0.20397651219069957,-0.04031301342695951
1772789012688992800,22.17099267578125,-0.14442133041620253,0.22221271836608647,-0.11139598977938293
1772789012709025500,22.191025634765627,0.008648001357913018,0.14775091323032974,-0.14695961672216654
1772789012729057800,22.211057861328126,-0.03997720560133457,0.06361176368892192,0.002220306397974491
1772789012749090600,22.231090576171876,-0.21095161190032957,0.13925547208562492,0.0673272770807147
1772789012769123800,22.251123779296876,-0.16347849758565425,0.19592983772680161,-0.1120654134735465
1772789012789156600,22.271156494140627,0.07802665801048278,-0.07966200412735343,-0.11892054006531834
1772789012809188900,22.29118896484375,0.3166168029427528,-0.1532572555616498,0.10073416438102721
1772789012829221600,22.3112216796875,0.09249006764888763,0.0892420256383717,0.1628510133370757
1772789012849255000,22.3312548828125,-0.18964111284613608,0.023741671723872423,-0.06720028970018029
1772789012869287700,22.35128759765625,-0.15636778879761695,-0.07236132572516799,-0.0572090570397675
1772789012889319700,22.371319580078126,0.13987725724577904,0.018690818075090647,-0.02911138206347823
1772789012909352700,22.391352783203125,0.62804071341753,-0.17032690217569468,0.21326617245301602
1772789012929385700,22.4113857421875,0.5922013382732868,-0.2011778213828802,0.45619756145998835
1772789012949418800,22.431418701171875,0.04871697689592838,-0.13611147497147322,0.16917963183671236
1772789012969450800,22.45145068359375,-0.46077276042103765,-0.10825418462231755,0.06178630182743072
1772789012989483800,22.47148388671875,-0.6668781013339757,0.11089359321519732,-0.03159939948692918
1772789013009516800,22.491516845703124,-0.32749592435359953,0.21012495181784033,0.07128156766444445
1772789013029549800,22.5115498046875,-0.06508709693849087,0.19366452314332128,-0.0072949793137609955
1772789013049581800,22.531581787109374,-0.2624941676110029,0.2413666239082813,-0.14858860616348682
1772789013069614600,22.551614501953125,-0.3313748116135597,0.2583903855539858,-0.3738831431277096
1772789013089647900,22.57164794921875,-0.07655015571713447,0.2928372834265232,-0.4007955538421869
1772789013109680600,22.5916806640625,0.22045126165151593,0.14900734303221105,-0.34382457987461235
1772789013129713000,22.611712890625,0.21033786391615866,-0.13731193680241705,-0.18574289983119815
1772789013149745700,22.63174560546875,0.4137707707494497,-0.006601297961175441,0.11563486945815384
1772789013169779000,22.651779052734376,0.462211853313446,-0.03638078854456544,0.26668025765661146
1772789013189811700,22.671811767578124,0.325221549680829,-0.0835078659005463,0.21656090314947068
1772789013209844700,22.6918447265625,0.03853402105569839,-0.030017829383909702,0.1901906730202958
1772789013229876700,22.711876708984374,-0.32650983592569827,-0.0555206655614078,0.23459840841498225
1772789013249909800,22.73190966796875,-0.2069412072151899,-0.030566987699270246,0.30557726680580527
1772789013269942800,22.75194287109375,-0.05451134238839149,-0.0008519406542181968,0.26971125938296314
1772789013289975600,22.7719755859375,-0.033621699094772334,0.08083148629814386,0.12807466431446374
1772789013310007800,22.7920078125,-0.19393734873533247,-0.02817132473438978,0.2788415643651038
1772789013330040600,22.81204052734375,0.03329962753355503,0.09107362497970461,0.11911657409407198
1772789013350073900,22.832073974609376,0.12000526656210422,0.005042816472798585,-0.0403493999145925
1772789013370106600,22.852106689453127,-0.08853694610893725,0.026044834099709986,-0.032723069754615426
1772789013390138600,22.872138671875,-0.22266952222287653,0.0915171309635043,-0.1324194155205041
1772789013410171600,22.892171630859377,-0.2851478979676962,-0.04372296800091863,-0.13127872105278074
1772789013430204700,22.91220458984375,0.09400573290884494,0.16081673103049396,0.01721490030363202
1772789013450237700,22.93223779296875,0.12949790205061434,0.21635171737819908,0.07945698307454585
1772789013470269700,22.952269775390626,-0.2617114928007126,0.1725602141857147,0.044950756230205294
1772789013490302700,22.972302734375,-0.2489753453463316,0.11159034330770373,-0.18439868214800953
1772789013510335700,22.992335693359376,-0.25851591162979604,0.0364433323867619,-0.07293035778477787
1772789013530368800,23.01236865234375,-0.2845791581690311,0.09580006897971033,0.045504663785919545
1772789013550400800,23.03240087890625,0.07324702251851559,0.13511384223625064,0.21757548701949417
1772789013570433800,23.052433837890625,0.2327671378672123,0.08385770225152372,0.17579934223741292
1772789013590466800,23.072466796875,0.12573884177803993,-0.10513649099320173,0.020206775595992803
1772789013610499800,23.092499755859375,0.05437456426620483,-0.028157734600454568,0.08959434620738028
1772789013630532900,23.112532958984374,-0.05291150597631931,-0.003748977269977331,0.18575484599731862
1772789013650564600,23.132564697265625,0.08529811031818389,-0.13995441413521767,0.4207531769827008
1772789013670598000,23.152597900390624,0.09852233355045319,-0.00811214091554284,0.3381748470172286
1772789013690630700,23.172630615234375,-0.0969184054851532,-0.018286036666482687,0.06585742372386157
1772789013710663700,23.19266357421875,-0.3586842588216066,-0.01023103276565671,-0.017364391776919366
1772789013730695700,23.21269580078125,-0.15222703573107718,0.0007492109321057797,0.12815540140047668
1772789013750729000,23.23272900390625,0.06069850659072399,0.004779050970077514,0.23900807808339594
1772789013770761700,23.25276171875,0.06280395443737506,0.03492430612593889,0.23461408090814947
1772789013790794800,23.272794677734375,0.15568331366479396,0.0068089493624866005,0.030066929222643375
1772789013810826800,23.29282666015625,0.025153730478882787,0.11506328011527657,-0.13661730560176075
1772789013830859800,23.31285986328125,-0.3993839334785938,-0.11508885294795036,-0.07187595336101948
1772789013850892800,23.332892822265624,-0.34517946508228775,0.14162453930452465,-0.25724238456264137
1772789013870925600,23.352925537109375,0.06391688411533832,0.0867272663384676,0.0037149288699030872
1772789013890957800,23.372957763671874,0.35407705728709693,0.036735739462077616,0.06921718248054384
1772789013910990600,23.392990478515625,0.18704174400269985,0.06048384092673659,0.013382190272957086
1772789013931024000,23.41302392578125,-0.029622400325536726,0.004377338301390409,-0.06313976226300001
1772789013951056600,23.433056640625,-0.18118483466804025,0.204006468937546,-0.1368007724098861
1772789013971088600,23.453088623046874,-0.1829828240007162,-0.07672814263254403,-0.021293328723683953
1772789013991121700,23.47312158203125,0.12096271341741084,0.10453779444769024,-0.013614026267454027
1772789014011154700,23.49315478515625,0.04525952991843223,-0.06581833382248878,-0.035360724781826135
1772789014031187700,23.513187744140627,-0.021355507239699364,0.07565262235552073,-0.17665606866460293
1772789014051219700,23.5332197265625,-0.06929214741289615,0.02578589090257883,-0.033678507315926254
1772789014071252700,23.553252685546877,-0.22534312534630296,0.030281887147575615,0.09739559454284608
1772789014091285800,23.57328564453125,-0.2682365106552839,0.04712093987613916,0.17222689057812093
1772789014111319300,23.5933193359375,-0.11617957079410553,0.08105243557244539,0.16908676592148839
1772789014131352000,23.61335205078125,0.03490647820830345,0.07930573803558945,0.04066091354917735
1772789014151384300,23.63338427734375,-0.05529343267679214,0.014695026437193155,-0.024907829426415264
1772789014171417300,23.653417236328124,-0.014537643918395042,-0.03297287979722023,0.0422963692639023
1772789014191450400,23.673450439453124,0.2357598899424076,-0.07166282206699252,0.12485029544048011
1772789014211483100,23.693483154296874,0.6621709465563297,-0.1275783321648836,0.27703524559549986
1772789014231515100,23.71351513671875,0.7311720020681619,-0.20302549507617948,0.3231447068741545
1772789014251548400,23.73354833984375,0.22824060035347937,-0.20110241805911064,0.18775139010939745
1772789014271581200,23.753581298828124,-0.06505845536589622,-0.22696166645884513,0.02399447744116187
1772789014291614200,23.7736142578125,-0.1312514677196741,-0.16125877570956945,0.03173902715332806
1772789014311646200,23.793646240234374,-0.03844926538169384,-0.07246990066617727,0.07978409613706171
1772789014331679200,23.81367919921875,0.005995441022515297,-0.033088322870433326,0.04070234153810888
1772789014351712300,23.833712158203124,-0.25188743340075015,-0.008463730832189322,0.07748984772004186
1772789014371745300,23.853745361328127,-0.5423468817800283,0.05617182294651866,-0.04100505081173032
1772789014391777300,23.87377734375,-0.5965168633848429,0.11734423065930605,-0.11268471441566943
1772789014411810000,23.89381005859375,-0.2972983544886112,0.179076902603358,-0.02411445055902004
1772789014431843300,23.91384326171875,0.1851706894338131,0.2370695112362504,0.10740976968742906
1772789014451876000,23.9338759765625,0.013621113595366477,0.2004142896644771,0.0275348534617573
1772789014471908400,23.953908447265626,-0.40625791090130803,0.13284648182615638,-0.13072601907346396
1772789014491941000,23.973941162109377,-0.23402444445192813,0.076704907887429,-0.16289178373888133
1772789014511974400,23.993974365234376,0.13466624459922313,0.08472060269117355,-0.05711290318891406
1772789014532007200,24.014007080078127,0.14411620998978614,0.07414455588012933,0.07116992398351431
1772789014552040400,24.03404052734375,0.14251111288070678,0.015262451061606406,-0.016055720331147313
1772789014572072200,24.054072265625,-0.08604162216186523,-0.07872063162401319,-0.021871347807347775
1772789014592105200,24.074105224609376,0.04751286180317402,-0.06472454723641276,-0.06883147109858691
1772789014612138200,24.09413818359375,0.2575736623436212,-0.041352001085877416,-0.06514642591029406
1772789014632171300,24.114171142578126,0.3271487183511257,-0.026059885538369416,0.11325279662720858
1772789014652203300,24.134203369140625,0.10106909542381763,-0.07291428343281149,0.1746522910941392
1772789014672236300,24.154236328125,-0.15108838708996772,-0.05868234446272254,0.06832395996786654
1772789014692269300,24.174269287109375,-0.09900807124078273,0.026157354563474653,-0.03539261775743216
1772789014712302000,24.194302001953126,-0.07335165193676949,0.03162438779771328,-0.002883263818733394
1772789014732334000,24.214333984375,0.11999123803675174,0.0546929825656116,0.10855660163499414
1772789014752367400,24.234367431640624,0.010946341428160667,-0.005291676667332649,0.13385492821633815
1772789014772400000,24.254400146484375,-0.24144436531960964,0.05074599850550294,0.10233838470727205
1772789014792433200,24.27443310546875,-0.33088089061677456,0.03832052443549037,-0.03963993647098541
1772789014812465200,24.294465087890625,0.18351941509544847,0.03283668619692325,0.0018219912627711892
1772789014832498400,24.31449853515625,0.1719762768179178,0.01764905393719673,-0.006657850454002618
1772789014852531200,24.33453125,-0.12731938896775244,0.04533668680787086,-0.08719934082962572
