time,seconds_elapsed,z,y,x
1772788990576636700,0.05863671875,-0.92803955078125,-0.1856536865234375,0.1257476806640625
1772788990596669400,0.07866943359375,-1.00390625,-0.166259765625,0.1131439208984375
1772788990616702500,0.098702392578125,-1.039581298828125,-0.1288299560546875,0.0786895751953125
1772788990636734500,0.118734375,-1.0831298828125,-0.1164703369140625,0.06207275390625
1772788990656767500,0.138767578125,-1.09124755859375,-0.105255126953125,0.0521087646484375
1772788990676800500,0.158800537109375,-1.1210174560546875,-0.09991455078125,0.0777740478515625
1772788990696832500,0.17883251953125,-1.13018798828125,-0.0964202880859375,0.048736572265625
1772788990716865500,0.198865478515625,-1.142333984375,-0.1060028076171875,0.00823974609375
1772788990736898300,0.218898193359375,-1.109893798828125,-0.146575927734375,0.0047454833984375
1772788990756930600,0.2389306640625,-1.0489501953125,-0.178863525390625,0.0155792236328125
1772788990776963600,0.258963623046875,-1.0136566162109375,-0.1873321533203125,0.0107574462890625
1772788990796996600,0.27899658203125,-1.058807373046875,-0.1520843505859375,0.013885498046875
1772788990817028600,0.299028564453125,-1.065155029296875,-0.140777587890625,-0.018707275390625
1772788990837061400,0.319061279296875,-1.0148162841796875,-0.1458282470703125,-0.05657958984375
1772788990857094400,0.339094482421875,-0.9660491943359375,-0.1645660400390625,-0.067657470703125
1772788990877127400,0.35912744140625,-0.920745849609375,-0.177703857421875,-0.0677947998046875
1772788990897159700,0.37915966796875,-0.907958984375,-0.222076416015625,-0.07122802734375
1772788990917192400,0.3991923828125,-0.8689117431640625,-0.23211669921875,-0.0532684326171875
1772788990937225500,0.4192255859375,-0.9365081787109375,-0.2158355712890625,-0.0848541259765625
1772788990957257500,0.439257568359375,-1.03533935546875,-0.1978912353515625,-0.1005706787109375
1772788990977290500,0.45929052734375,-1.0513916015625,-0.188262939453125,-0.0962982177734375
1772788990997323500,0.479323486328125,-1.0042572021484375,-0.196563720703125,-0.0880126953125
1772788991017355500,0.49935546875,-0.8897857666015625,-0.22314453125,-0.077117919921875
1772788991037388500,0.519388427734375,-0.9376373291015625,-0.1687164306640625,-0.10186767578125
1772788991057421600,0.539421630859375,-1.02117919921875,-0.1134796142578125,-0.142974853515625
1772788991077453300,0.559453369140625,-1.02362060546875,-0.0790557861328125,-0.1301116943359375
1772788991097486600,0.579486572265625,-0.950103759765625,-0.0819549560546875,-0.1105804443359375
1772788991117519400,0.599519287109375,-0.97198486328125,-0.0784912109375,-0.0874176025390625
1772788991137552400,0.619552490234375,-1.12408447265625,-0.01239013671875,0.01898193359375
1772788991157584400,0.63958447265625,-1.2103424072265625,0.00384521484375,0.076263427734375
1772788991177617700,0.65961767578125,-1.0592498779296875,-0.0760955810546875,0.0129852294921875
1772788991197650400,0.679650390625,-0.903594970703125,-0.1230621337890625,-0.0225067138671875
1772788991217682700,0.6996826171875,-0.8611297607421875,-0.1220245361328125,-0.10400390625
1772788991237715500,0.719715576171875,-0.91015625,-0.1046142578125,-0.1350555419921875
1772788991257748500,0.73974853515625,-0.9777679443359375,-0.0867156982421875,-0.074005126953125
1772788991277780500,0.759780517578125,-1.0463104248046875,-0.071807861328125,-0.0624237060546875
1772788991297813500,0.7798134765625,-1.0561676025390625,-0.12249755859375,-0.0680694580078125
1772788991317846500,0.799846435546875,-1.01708984375,-0.1766357421875,-0.0673980712890625
1772788991337878500,0.81987841796875,-0.988861083984375,-0.185821533203125,-0.017425537109375
1772788991357911600,0.83991162109375,-0.9649658203125,-0.1977386474609375,-0.022491455078125
1772788991377944600,0.859944580078125,-0.970733642578125,-0.178253173828125,-0.0658416748046875
1772788991397976300,0.879976318359375,-0.954010009765625,-0.17694091796875,-0.1138458251953125
1772788991418009600,0.900009521484375,-0.9714202880859375,-0.1966094970703125,-0.0925445556640625
1772788991438042400,0.92004248046875,-1.121337890625,-0.1595001220703125,-0.0891571044921875
1772788991458075600,0.94007568359375,-1.06024169921875,-0.182037353515625,-0.21441650390625
1772788991478107400,0.960107421875,-0.97467041015625,-0.2178955078125,-0.24920654296875
1772788991498140700,0.980140625,-1.026397705078125,-0.1990509033203125,-0.204833984375
1772788991518173400,1.00017333984375,-1.14697265625,-0.1656951904296875,-0.20770263671875
1772788991538205400,1.020205322265625,-1.30731201171875,-0.0906524658203125,-0.13665771484375
1772788991558238500,1.040238525390625,-1.3831939697265625,-0.1001739501953125,-0.084930419921875
1772788991578271500,1.060271484375,-1.2828521728515625,-0.1454620361328125,-0.104400634765625
1772788991598303500,1.080303466796875,-1.101104736328125,-0.2027740478515625,-0.1202850341796875
1772788991618336500,1.10033642578125,-1.0374603271484375,-0.202056884765625,-0.137542724609375
1772788991638369500,1.12036962890625,-1.114227294921875,-0.1931610107421875,-0.163970947265625
1772788991658401500,1.140401611328125,-1.3226318359375,-0.1015167236328125,-0.1399688720703125
1772788991678434300,1.160434326171875,-1.179290771484375,-0.094451904296875,-0.07586669921875
1772788991698467600,1.180467529296875,-1.021636962890625,-0.122589111328125,-0.0562744140625
1772788991718499300,1.200499267578125,-0.9805755615234375,-0.0882415771484375,-0.1602020263671875
1772788991738532600,1.22053271484375,-0.98199462890625,-0.041961669921875,-0.1304168701171875
1772788991758565400,1.2405654296875,-0.8773345947265625,-0.0068511962890625,-0.0801849365234375
1772788991778597600,1.26059765625,-0.8228759765625,0.027587890625,-0.118804931640625
1772788991798630400,1.28063037109375,-0.9326629638671875,0.007171630859375,-0.042388916015625
1772788991818663700,1.30066357421875,-1.1931915283203125,0.052734375,0.120025634765625
1772788991838696400,1.320696533203125,-1.1501312255859375,0.114501953125,0.097869873046875
1772788991858728400,1.340728515625,-0.82208251953125,0.1463470458984375,-0.046722412109375
1772788991878761500,1.360761474609375,-0.63433837890625,0.10205078125,-0.137298583984375
1772788991898794500,1.38079443359375,-0.595703125,0.1157684326171875,-0.196807861328125
1772788991918826500,1.400826416015625,-0.6744842529296875,0.137725830078125,-0.1239776611328125
1772788991938859500,1.420859619140625,-0.752685546875,0.1924896240234375,-0.0496063232421875
1772788991958892500,1.440892578125,-0.6634674072265625,0.1916656494140625,-0.044769287109375
1772788991978924500,1.460924560546875,-0.619049072265625,0.126373291015625,-0.0291595458984375
1772788991998957300,1.480957275390625,-0.614349365234375,0.0615234375,-0.0252227783203125
1772788992018990600,1.500990478515625,-0.6635284423828125,0.031158447265625,-0.0843353271484375
1772788992039022300,1.521022216796875,-0.836273193359375,-0.009979248046875,-0.2107086181640625
1772788992059055600,1.5410556640625,-0.90716552734375,-0.125732421875,-0.2978973388671875
1772788992079088400,1.56108837890625,-0.811614990234375,-0.234649658203125,-0.3087615966796875
1772788992099121200,1.58112109375,-0.81756591796875,-0.249237060546875,-0.1751861572265625
1772788992119154200,1.601154296875,-0.8411102294921875,-0.2544403076171875,-0.1196746826171875
1772788992139187200,1.621187255859375,-0.97003173828125,-0.2286376953125,-0.12457275390625
1772788992159220200,1.64122021484375,-1.10260009765625,-0.1726531982421875,-0.0329742431640625
1772788992179252200,1.661252197265625,-1.19793701171875,-0.0911407470703125,0.0214385986328125
1772788992199285000,1.681284912109375,-1.205474853515625,-0.0547637939453125,0.008087158203125
1772788992219318300,1.701318359375,-1.09283447265625,-0.10015869140625,-0.0503692626953125
1772788992239350000,1.72135009765625,-0.9858551025390625,-0.1643218994140625,-0.0074310302734375
1772788992259383300,1.74138330078125,-0.903472900390625,-0.1771697998046875,-0.0040740966796875
1772788992279416000,1.761416015625,-0.939117431640625,-0.1803741455078125,-0.077423095703125
1772788992299448000,1.781447998046875,-0.9586334228515625,-0.183380126953125,-0.07855224609375
1772788992319481000,1.801481201171875,-0.9620513916015625,-0.14300537109375,0.0019683837890625
1772788992339514000,1.82151416015625,-1.07281494140625,-0.1255645751953125,0.0629425048828125
1772788992359546000,1.841546142578125,-1.1212158203125,-0.124969482421875,0.06988525390625
1772788992379579100,1.8615791015625,-1.1862640380859375,-0.1269989013671875,0.0699310302734375
1772788992399612200,1.881612060546875,-1.2100830078125,-0.1362762451171875,0.0527496337890625
1772788992419644200,1.90164404296875,-1.0641632080078125,-0.1329498291015625,-0.0041961669921875
1772788992439677000,1.921677001953125,-0.9390869140625,-0.1513671875,-0.0622406005859375
1772788992459710200,1.941710205078125,-0.9454193115234375,-0.129730224609375,-0.07196044921875
1772788992479742000,1.961741943359375,-1.013458251953125,-0.1053009033203125,-0.094573974609375
1772788992499775200,1.981775146484375,-1.0936126708984375,-0.078643798828125,-0.0658111572265625
1772788992519808000,2.00180810546875,-1.0671539306640625,-0.070770263671875,-0.0430450439453125
1772788992539841300,2.02184130859375,-0.985809326171875,-0.0701446533203125,-0.039703369140625
1772788992559873000,2.041873046875,-0.9306640625,-0.066741943359375,-0.06640625
1772788992579906300,2.06190625,-0.9600372314453125,-0.10260009765625,-0.0812225341796875
1772788992599939000,2.08193896484375,-0.9110107421875,-0.1294097900390625,-0.072723388671875
1772788992619971000,2.10197119140625,-0.84912109375,-0.14874267578125,-0.043548583984375
1772788992640004000,2.122004150390625,-0.84466552734375,-0.1907196044921875,-0.003936767578125
1772788992660037000,2.142037109375,-0.858551025390625,-0.1742095947265625,-0.0106658935546875
1772788992680069000,2.162069091796875,-0.959564208984375,-0.158050537109375,-0.0602569580078125
1772788992700102100,2.18210205078125,-1.0184173583984375,-0.1523590087890625,-0.0791168212890625
1772788992720135200,2.20213525390625,-1.0383453369140625,-0.1305999755859375,-0.091156005859375
1772788992740167200,2.222167236328125,-1.0128326416015625,-0.1206207275390625,-0.0981903076171875
1772788992760200000,2.242199951171875,-1.0030975341796875,-0.0855712890625,-0.0654449462890625
1772788992780233200,2.262233154296875,-1.0388031005859375,-0.0473785400390625,-0.0515899658203125
1772788992800265000,2.282264892578125,-1.04449462890625,0.0029449462890625,-0.0491180419921875
1772788992820298200,2.30229833984375,-1.1320953369140625,0.050201416015625,-0.04833984375
1772788992840331000,2.3223310546875,-1.1515045166015625,0.0513763427734375,-0.0751190185546875
1772788992860363000,2.342363037109375,-1.1301116943359375,0.05023193359375,-0.08258056640625
1772788992880396000,2.36239599609375,-1.0708770751953125,0.03106689453125,-0.0774993896484375
1772788992900429000,2.382428955078125,-1.035888671875,0.008056640625,-0.06512451171875
1772788992920461000,2.4024609375,-0.9902191162109375,-0.0055084228515625,-0.0516815185546875
1772788992940494000,2.422494140625,-0.99078369140625,-0.0264739990234375,-0.051116943359375
1772788992960527000,2.442527099609375,-0.97216796875,-0.0512847900390625,-0.0528564453125
1772788992980560100,2.46256005859375,-0.974578857421875,-0.0651397705078125,-0.0567779541015625
1772788993000592100,2.482592041015625,-0.953216552734375,-0.078277587890625,-0.0608673095703125
1772788993020625200,2.502625244140625,-0.95330810546875,-0.08013916015625,-0.05572509765625
1772788993040658000,2.522657958984375,-0.9542236328125,-0.0930023193359375,-0.0491180419921875
1772788993060690200,2.542690185546875,-0.9704437255859375,-0.1064453125,-0.04119873046875
1772788993080723000,2.562722900390625,-0.9661102294921875,-0.11395263671875,-0.0298919677734375
1772788993100755500,2.58275537109375,-0.9934539794921875,-0.121826171875,-0.024017333984375
1772788993120787500,2.602787353515625,-1.004302978515625,-0.1221466064453125,-0.034698486328125
1772788993140820500,2.622820556640625,-0.991455078125,-0.1179656982421875,-0.037200927734375
1772788993160853500,2.642853515625,-0.9771270751953125,-0.11968994140625,-0.0360107421875
1772788993180885500,2.662885498046875,-0.961151123046875,-0.113311767578125,-0.03753662109375
1772788993200918500,2.68291845703125,-0.9881591796875,-0.10186767578125,-0.0308990478515625
1772788993220951600,2.70295166015625,-1.0095672607421875,-0.0972137451171875,-0.038787841796875
1772788993240983600,2.722983642578125,-1.0559539794921875,-0.081817626953125,-0.0180511474609375
1772788993261016600,2.7430166015625,-1.07440185546875,-0.0795135498046875,0.0130615234375
1772788993281049600,2.763049560546875,-0.983673095703125,-0.0749969482421875,0.0165557861328125
1772788993301081300,2.783081298828125,-0.926025390625,-0.093353271484375,-0.003814697265625
1772788993321114600,2.803114501953125,-0.950653076171875,-0.103118896484375,-0.0265045166015625
1772788993341147400,2.8231474609375,-0.977325439453125,-0.1165618896484375,-0.05950927734375
1772788993361179600,2.8431796875,-0.97698974609375,-0.13031005859375,-0.0661163330078125
1772788993381212400,2.86321240234375,-0.946807861328125,-0.1365509033203125,-0.0483245849609375
1772788993401245700,2.88324560546875,-0.9527435302734375,-0.1332550048828125,-0.0437164306640625
1772788993421278500,2.903278564453125,-0.974884033203125,-0.129150390625,-0.0487213134765625
1772788993441310500,2.923310546875,-0.9996185302734375,-0.12042236328125,-0.04437255859375
1772788993461343500,2.943343505859375,-1.0139923095703125,-0.11163330078125,-0.0514984130859375
1772788993481376500,2.96337646484375,-0.9926910400390625,-0.1031646728515625,-0.057769775390625
1772788993501408500,2.983408447265625,-0.9750823974609375,-0.098297119140625,-0.0361328125
1772788993521441500,3.003441650390625,-1.009368896484375,-0.095245361328125,-0.0217437744140625
1772788993541474600,3.023474609375,-1.0363616943359375,-0.100006103515625,-0.036956787109375
1772788993561506600,3.043506591796875,-1.0102081298828125,-0.1060028076171875,-0.0557403564453125
1772788993581539300,3.063539306640625,-0.987274169921875,-0.1002960205078125,-0.044464111328125
1772788993601572600,3.083572509765625,-1.00994873046875,-0.0978240966796875,-0.050628662109375
1772788993621604400,3.103604248046875,-1.0286712646484375,-0.104156494140625,-0.0475616455078125
1772788993641637600,3.1236376953125,-1.0254058837890625,-0.1060943603515625,-0.0516357421875
1772788993661670400,3.14367041015625,-0.98358154296875,-0.10601806640625,-0.067657470703125
1772788993681702400,3.163702392578125,-0.9641265869140625,-0.1074371337890625,-0.06536865234375
1772788993701735400,3.1837353515625,-0.969268798828125,-0.104034423828125,-0.059539794921875
1772788993721768400,3.2037685546875,-0.9863739013671875,-0.1039581298828125,-0.0640106201171875
1772788993741800400,3.223800537109375,-1.00439453125,-0.09991455078125,-0.061370849609375
1772788993761833500,3.24383349609375,-0.9633941650390625,-0.1026458740234375,-0.0601959228515625
1772788993781866500,3.263866455078125,-0.9481048583984375,-0.0994415283203125,-0.071319580078125
1772788993801898500,3.2838984375,-0.9925079345703125,-0.100555419921875,-0.0754547119140625
1772788993821931500,3.303931640625,-1.0192413330078125,-0.104888916015625,-0.069183349609375
1772788993841964500,3.323964599609375,-0.994964599609375,-0.11376953125,-0.0516204833984375
1772788993861997600,3.34399755859375,-0.9943084716796875,-0.1143646240234375,-0.0418548583984375
1772788993882029600,3.364029541015625,-1.01519775390625,-0.114013671875,-0.0508270263671875
1772788993902062300,3.384062255859375,-1.019989013671875,-0.111907958984375,-0.0521240234375
1772788993922095600,3.404095703125,-0.99798583984375,-0.1071319580078125,-0.0485382080078125
1772788993942127400,3.42412744140625,-0.9878387451171875,-0.09515380859375,-0.0440216064453125
1772788993962160600,3.44416064453125,-0.9989471435546875,-0.09027099609375,-0.0408477783203125
1772788993982193400,3.464193359375,-1.0127716064453125,-0.0892333984375,-0.042083740234375
1772788994002225400,3.484225341796875,-1.020843505859375,-0.09375,-0.043609619140625
1772788994022258400,3.504258544921875,-1.00732421875,-0.1047210693359375,-0.047760009765625
1772788994042291500,3.52429150390625,-0.99627685546875,-0.1100311279296875,-0.059173583984375
1772788994062323500,3.544323486328125,-0.9947052001953125,-0.116241455078125,-0.07843017578125
1772788994082356500,3.5643564453125,-0.974822998046875,-0.1240234375,-0.085662841796875
1772788994102389500,3.584389404296875,-0.9640350341796875,-0.1250152587890625,-0.0695343017578125
1772788994122421500,3.60442138671875,-0.9552764892578125,-0.1280059814453125,-0.052337646484375
1772788994142454500,3.62445458984375,-0.9816131591796875,-0.125335693359375,-0.038421630859375
1772788994162487600,3.644487548828125,-1.0104827880859375,-0.1237640380859375,-0.04693603515625
1772788994182519600,3.66451953125,-0.9923248291015625,-0.114227294921875,-0.0462646484375
1772788994202552600,3.684552490234375,-0.9727783203125,-0.11090087890625,-0.0361175537109375
1772788994222585300,3.70458544921875,-0.9862213134765625,-0.102874755859375,-0.0432281494140625
1772788994242618600,3.72461865234375,-0.9947052001953125,-0.09979248046875,-0.0414581298828125
1772788994262650400,3.744650390625,-1.00347900390625,-0.1045074462890625,-0.0392913818359375
1772788994282683600,3.76468359375,-1.02716064453125,-0.104949951171875,-0.0545501708984375
1772788994302716400,3.78471630859375,-1.023101806640625,-0.10919189453125,-0.051177978515625
1772788994322748400,3.80474853515625,-1.0168609619140625,-0.105987548828125,-0.0437164306640625
1772788994342781400,3.824781494140625,-1.002471923828125,-0.114349365234375,-0.0379180908203125
1772788994362814500,3.844814453125,-0.990570068359375,-0.120269775390625,-0.023193359375
1772788994382846700,3.8648466796875,-1.0035858154296875,-0.1187591552734375,-0.023162841796875
1772788994402879500,3.88487939453125,-1.0142974853515625,-0.119110107421875,-0.0326690673828125
1772788994422912500,3.90491259765625,-1.0045166015625,-0.1230621337890625,-0.038970947265625
1772788994442944500,3.924944580078125,-0.96600341796875,-0.1307220458984375,-0.0428619384765625
1772788994462977500,3.9449775390625,-0.944976806640625,-0.1357421875,-0.0336456298828125
1772788994483010600,3.965010498046875,-0.9401702880859375,-0.1405487060546875,-0.037933349609375
1772788994503042600,3.98504248046875,-0.9713897705078125,-0.13604736328125,-0.0412750244140625
1772788994523072500,4.005072509765625,-1.01275634765625,-0.1322021484375,-0.0617828369140625
1772788994543105500,4.02510546875,-0.9984588623046875,-0.1239013671875,-0.06842041015625
1772788994563137500,4.045137451171875,-0.9695281982421875,-0.1205291748046875,-0.0634765625
1772788994583170300,4.06517041015625,-0.98211669921875,-0.1249847412109375,-0.0621185302734375
1772788994603203600,4.08520361328125,-0.9923248291015625,-0.1250457763671875,-0.06488037109375
1772788994623235600,4.105235595703125,-1.0030670166015625,-0.113372802734375,-0.0627899169921875
1772788994643268600,4.1252685546875,-1.02752685546875,-0.112091064453125,-0.074462890625
1772788994663301400,4.14530126953125,-1.0041656494140625,-0.1046295166015625,-0.0965728759765625
1772788994683333600,4.165333740234375,-0.9838409423828125,-0.1018218994140625,-0.11456298828125
1772788994703366400,4.185366455078125,-0.996307373046875,-0.0984344482421875,-0.1174163818359375
1772788994723399700,4.205399658203125,-1.0052947998046875,-0.10015869140625,-0.1177215576171875
1772788994743431700,4.225431640625,-1.0026092529296875,-0.10955810546875,-0.09832763671875
1772788994763464400,4.24546435546875,-0.9723663330078125,-0.113494873046875,-0.0861053466796875
1772788994783497500,4.26549755859375,-0.980438232421875,-0.1155548095703125,-0.077545166015625
1772788994803530500,4.285530517578125,-0.9944610595703125,-0.116851806640625,-0.0751800537109375
1772788994823562500,4.3055625,-0.999786376953125,-0.1161346435546875,-0.057891845703125
1772788994843595500,4.325595458984375,-0.989013671875,-0.1171112060546875,-0.0536956787109375
1772788994863628500,4.345628662109375,-0.97369384765625,-0.117767333984375,-0.0560760498046875
1772788994883660500,4.36566064453125,-0.9783782958984375,-0.12237548828125,-0.0619354248046875
1772788994903693300,4.385693359375,-0.982208251953125,-0.1271514892578125,-0.074676513671875
1772788994923726600,4.4057265625,-0.9864501953125,-0.1242828369140625,-0.070770263671875
1772788994943758600,4.425758544921875,-1.001556396484375,-0.1246337890625,-0.057586669921875
1772788994963791600,4.44579150390625,-1.022857666015625,-0.1233673095703125,-0.0628509521484375
1772788994983824400,4.465824462890625,-1.024688720703125,-0.1216583251953125,-0.0671539306640625
1772788995003856400,4.4858564453125,-0.9812774658203125,-0.123321533203125,-0.054595947265625
1772788995023889700,4.5058896484375,-0.97900390625,-0.12847900390625,-0.04595947265625
1772788995043922400,4.52592236328125,-0.99761962890625,-0.1333770751953125,-0.07440185546875
1772788995063954700,4.54595458984375,-1.0167236328125,-0.1337127685546875,-0.0915069580078125
1772788995083987500,4.565987548828125,-1.0251007080078125,-0.1310882568359375,-0.0911407470703125
1772788995104020500,4.5860205078125,-1.0128021240234375,-0.1255645751953125,-0.06536865234375
1772788995124053500,4.606053466796875,-1.0084991455078125,-0.1228179931640625,-0.0315093994140625
1772788995144085500,4.62608544921875,-0.9811553955078125,-0.1119842529296875,-0.08453369140625
1772788995164118300,4.6461181640625,-0.9638824462890625,-0.1058807373046875,-0.133209228515625
1772788995184151300,4.6661513671875,-0.98028564453125,-0.105224609375,-0.16064453125
1772788995204183300,4.686183349609375,-0.9994049072265625,-0.11260986328125,-0.1341552734375
1772788995224216600,4.706216552734375,-0.9868621826171875,-0.1239776611328125,-0.088836669921875
1772788995244249300,4.726249267578125,-0.9546661376953125,-0.129730224609375,-0.076141357421875
1772788995264281600,4.746281494140625,-0.941070556640625,-0.13916015625,-0.0877532958984375
1772788995284314400,4.766314453125,-0.9595947265625,-0.1446533203125,-0.093231201171875
1772788995304347400,4.786347412109375,-0.985626220703125,-0.1478424072265625,-0.0910797119140625
1772788995324379400,4.80637939453125,-0.9886474609375,-0.14892578125,-0.0805206298828125
1772788995344412400,4.826412353515625,-0.9637908935546875,-0.1480255126953125,-0.083282470703125
1772788995364445400,4.846445556640625,-0.942779541015625,-0.1426544189453125,-0.087860107421875
1772788995384477400,4.8664775390625,-0.9689178466796875,-0.1397552490234375,-0.0862579345703125
1772788995404510500,4.886510498046875,-1.0099945068359375,-0.1322784423828125,-0.08123779296875
1772788995424543500,4.90654345703125,-1.00921630859375,-0.12158203125,-0.076324462890625
1772788995444576500,4.926576416015625,-0.9878692626953125,-0.11962890625,-0.0711669921875
1772788995464608500,4.9466083984375,-0.976806640625,-0.1200408935546875,-0.0807647705078125
1772788995484641300,4.966641357421875,-0.9931182861328125,-0.123016357421875,-0.0876007080078125
1772788995504674600,4.986674560546875,-0.994659423828125,-0.1201019287109375,-0.085174560546875
1772788995524706300,5.006706298828125,-0.9963836669921875,-0.1177825927734375,-0.0803375244140625
1772788995544739600,5.026739501953125,-0.9963226318359375,-0.11676025390625,-0.08746337890625
1772788995564772400,5.0467724609375,-0.992889404296875,-0.1188812255859375,-0.0739593505859375
1772788995584804400,5.066804443359375,-1.004608154296875,-0.1143798828125,-0.07110595703125
1772788995604837400,5.08683740234375,-1.01483154296875,-0.1087188720703125,-0.0768585205078125
1772788995624870400,5.106870361328125,-1.024383544921875,-0.1034393310546875,-0.0615692138671875
1772788995644902400,5.12690234375,-1.022613525390625,-0.10723876953125,-0.0537872314453125
1772788995664935400,5.146935302734375,-1.0265655517578125,-0.114471435546875,-0.0403594970703125
1772788995684968400,5.166968505859375,-1.016937255859375,-0.1280364990234375,-0.0470733642578125
1772788995705000400,5.18700048828125,-0.985565185546875,-0.134521484375,-0.0464019775390625
1772788995725033500,5.207033447265625,-0.9767303466796875,-0.13824462890625,-0.043212890625
1772788995745066500,5.22706640625,-0.985137939453125,-0.1441192626953125,-0.053863525390625
1772788995765099500,5.247099609375,-0.986114501953125,-0.1435699462890625,-0.059173583984375
1772788995785131500,5.267131591796875,-0.9890289306640625,-0.14208984375,-0.0633087158203125
1772788995805164300,5.287164306640625,-0.9673614501953125,-0.1424713134765625,-0.0720977783203125
1772788995825197600,5.307197509765625,-0.97064208984375,-0.14581298828125,-0.07464599609375
1772788995845229300,5.327229248046875,-0.9932708740234375,-0.1371307373046875,-0.082183837890625
1772788995865262600,5.3472626953125,-0.99468994140625,-0.13140869140625,-0.0839691162109375
1772788995885295400,5.36729541015625,-0.9974517822265625,-0.1255035400390625,-0.08050537109375
1772788995905327400,5.387327392578125,-0.976531982421875,-0.1233062744140625,-0.072845458984375
1772788995925360400,5.4073603515625,-0.981475830078125,-0.1227264404296875,-0.07159423828125
1772788995945393400,5.427393310546875,-0.9990997314453125,-0.1233062744140625,-0.080841064453125
1772788995965425400,5.44742529296875,-0.9930572509765625,-0.134857177734375,-0.0803985595703125
1772788995985458400,5.46745849609375,-0.993896484375,-0.1413116455078125,-0.07574462890625
1772788996005491500,5.487491455078125,-0.9785003662109375,-0.1406707763671875,-0.066009521484375
1772788996025523500,5.5075234375,-0.9854888916015625,-0.137939453125,-0.064666748046875
1772788996045556200,5.52755615234375,-0.9781646728515625,-0.1382598876953125,-0.0638885498046875
1772788996065589500,5.547589599609375,-0.997314453125,-0.1438140869140625,-0.0553131103515625
1772788996085622300,5.567622314453125,-1.0019683837890625,-0.1497802734375,-0.0582427978515625
1772788996105654500,5.587654541015625,-0.9854888916015625,-0.15069580078125,-0.0596923828125
1772788996125687300,5.607687255859375,-0.9726409912109375,-0.1537322998046875,-0.04949951171875
1772788996145720600,5.627720458984375,-0.97344970703125,-0.157562255859375,-0.05419921875
1772788996165752300,5.64775244140625,-0.9779815673828125,-0.15399169921875,-0.062469482421875
1772788996185785300,5.667785400390625,-0.9884796142578125,-0.1560821533203125,-0.0738983154296875
1772788996205818400,5.687818359375,-0.970428466796875,-0.1608428955078125,-0.0896453857421875
1772788996225850400,5.707850341796875,-0.9626312255859375,-0.1607666015625,-0.0890045166015625
1772788996245883400,5.72788330078125,-0.9717254638671875,-0.1559600830078125,-0.08477783203125
1772788996265916400,5.74791650390625,-0.9953460693359375,-0.1511688232421875,-0.086669921875
1772788996285948200,5.7679482421875,-1.0073394775390625,-0.1444854736328125,-0.0758209228515625
1772788996305981400,5.7879814453125,-0.992218017578125,-0.1405029296875,-0.0762786865234375
1772788996326014200,5.80801416015625,-0.980987548828125,-0.136138916015625,-0.0731201171875
1772788996346046500,5.82804638671875,-0.9743499755859375,-0.1343536376953125,-0.0792236328125
1772788996366079200,5.848079345703125,-0.994110107421875,-0.1391448974609375,-0.0881805419921875
1772788996386112500,5.868112548828125,-0.9954071044921875,-0.1433563232421875,-0.09429931640625
1772788996406144300,5.888144287109375,-0.97955322265625,-0.14617919921875,-0.0927276611328125
1772788996426177300,5.90817724609375,-0.9498138427734375,-0.15234375,-0.0872955322265625
1772788996446210300,5.928210205078125,-0.948822021484375,-0.1491851806640625,-0.0784759521484375
1772788996466243300,5.948243408203125,-0.98516845703125,-0.147552490234375,-0.0944976806640625
1772788996486275300,5.968275390625,-0.9891815185546875,-0.150665283203125,-0.105255126953125
1772788996506308400,5.988308349609375,-0.949493408203125,-0.1428985595703125,-0.0721282958984375
1772788996526341400,6.00834130859375,-0.9511871337890625,-0.1460418701171875,-0.079498291015625
1772788996546373400,6.028373291015625,-0.9874725341796875,-0.1433563232421875,-0.1029052734375
1772788996566406100,6.04840625,-1.002197265625,-0.1444091796875,-0.1098480224609375
1772788996586439400,6.068439453125,-0.9995880126953125,-0.1408843994140625,-0.09710693359375
1772788996606471400,6.088471435546875,-0.995330810546875,-0.137603759765625,-0.0987396240234375
1772788996626504400,6.10850439453125,-0.9810638427734375,-0.1351165771484375,-0.095550537109375
1772788996646537200,6.128537109375,-0.9832763671875,-0.136566162109375,-0.1033782958984375
1772788996666569500,6.148569580078125,-0.9992218017578125,-0.13287353515625,-0.119232177734375
1772788996686602200,6.168602294921875,-1.0249481201171875,-0.1306915283203125,-0.12530517578125
1772788996706635500,6.188635498046875,-1.00927734375,-0.1317596435546875,-0.11505126953125
1772788996726668300,6.208668212890625,-0.98199462890625,-0.1346588134765625,-0.0845794677734375
1772788996746700300,6.2287001953125,-0.9791412353515625,-0.134521484375,-0.0588836669921875
1772788996766733300,6.2487333984375,-1.00958251953125,-0.136627197265625,-0.0604705810546875
1772788996786766300,6.268766357421875,-1.015625,-0.137603759765625,-0.0906524658203125
1772788996806798300,6.28879833984375,-0.970001220703125,-0.14324951171875,-0.0904998779296875
1772788996826831400,6.308831298828125,-0.9442291259765625,-0.1477203369140625,-0.07928466796875
1772788996846864400,6.328864501953125,-0.9503631591796875,-0.1512451171875,-0.0785369873046875
1772788996866896400,6.348896484375,-0.9747314453125,-0.1516265869140625,-0.085723876953125
1772788996886929200,6.36892919921875,-0.98248291015625,-0.153839111328125,-0.08831787109375
1772788996906962400,6.38896240234375,-0.9781036376953125,-0.1555328369140625,-0.0914764404296875
1772788996926994400,6.408994384765625,-0.9752044677734375,-0.158477783203125,-0.0936737060546875
1772788996947027500,6.42902734375,-0.958404541015625,-0.15911865234375,-0.0880584716796875
1772788996967060200,6.449060302734375,-0.975433349609375,-0.1497344970703125,-0.086151123046875
1772788996987093500,6.469093505859375,-1.0006866455078125,-0.1375885009765625,-0.0941925048828125
1772788997007125500,6.48912548828125,-1.0208587646484375,-0.1286163330078125,-0.1059722900390625
1772788997027158300,6.509158203125,-1.007476806640625,-0.1208648681640625,-0.11627197265625
1772788997047191300,6.52919140625,-0.9798583984375,-0.1129608154296875,-0.099151611328125
1772788997067223300,6.549223388671875,-0.9883575439453125,-0.1092071533203125,-0.0941009521484375
1772788997087256300,6.56925634765625,-1.0207366943359375,-0.114410400390625,-0.09954833984375
1772788997107290000,6.5892900390625,-1.027252197265625,-0.116851806640625,-0.105255126953125
1772788997127321900,6.60932177734375,-0.9837646484375,-0.1211700439453125,-0.1029052734375
1772788997147355100,6.629355224609375,-0.97601318359375,-0.12261962890625,-0.09320068359375
1772788997167388000,6.649387939453125,-0.97760009765625,-0.125640869140625,-0.096435546875
1772788997187420000,6.669419921875,-0.9896087646484375,-0.1235504150390625,-0.0822601318359375
1772788997207453000,6.689452880859375,-1.0036773681640625,-0.1204833984375,-0.0939483642578125
1772788997227486000,6.70948583984375,-0.9938201904296875,-0.11907958984375,-0.100067138671875
1772788997247518000,6.72951806640625,-0.9779052734375,-0.1190185546875,-0.088958740234375
1772788997267551000,6.749551025390625,-0.980255126953125,-0.1194305419921875,-0.085723876953125
1772788997287584000,6.769583984375,-0.9787139892578125,-0.122955322265625,-0.0938720703125
1772788997307617000,6.789616943359375,-0.9910430908203125,-0.1264495849609375,-0.0913543701171875
1772788997327648800,6.809648681640625,-0.99456787109375,-0.125396728515625,-0.0894317626953125
1772788997347682000,6.82968212890625,-0.983123779296875,-0.123626708984375,-0.0970611572265625
1772788997367714800,6.84971484375,-0.9766998291015625,-0.1215057373046875,-0.09320068359375
1772788997387747000,6.8697470703125,-1.0079803466796875,-0.1208343505859375,-0.0984649658203125
1772788997407779800,6.88977978515625,-1.0209503173828125,-0.1204071044921875,-0.1021881103515625
1772788997427813000,6.909813232421875,-1.017578125,-0.1242523193359375,-0.1116790771484375
1772788997447844900,6.929844970703125,-0.9911346435546875,-0.1189117431640625,-0.113006591796875
1772788997467878100,6.949878173828125,-0.9836273193359375,-0.1169891357421875,-0.1034698486328125
1772788997487911000,6.969910888671875,-1.0005340576171875,-0.11761474609375,-0.0969390869140625
1772788997507943000,6.98994287109375,-1.00640869140625,-0.121002197265625,-0.093109130859375
1772788997527976000,7.009975830078125,-1.0022735595703125,-0.120330810546875,-0.09112548828125
1772788997548009000,7.030009033203125,-0.9767913818359375,-0.1207427978515625,-0.095794677734375
1772788997568042000,7.0500419921875,-0.957794189453125,-0.119842529296875,-0.0938568115234375
1772788997588074000,7.070073974609375,-0.9670562744140625,-0.1238555908203125,-0.1012725830078125
1772788997608107000,7.09010693359375,-0.98577880859375,-0.1275634765625,-0.1020660400390625
1772788997628140000,7.11014013671875,-0.988433837890625,-0.13140869140625,-0.0984649658203125
1772788997648171800,7.130171875,-0.967803955078125,-0.132171630859375,-0.09442138671875
1772788997668205000,7.150205078125,-0.9710693359375,-0.1333160400390625,-0.0962677001953125
1772788997688237800,7.17023779296875,-0.9873504638671875,-0.13580322265625,-0.1034088134765625
1772788997708270000,7.19027001953125,-0.983795166015625,-0.1378936767578125,-0.103546142578125
1772788997728302800,7.210302734375,-0.9798431396484375,-0.1405029296875,-0.0981903076171875
1772788997748336000,7.230336181640625,-0.97369384765625,-0.1408233642578125,-0.0936279296875
1772788997768368000,7.2503681640625,-0.9629669189453125,-0.12957763671875,-0.096160888671875
1772788997788401000,7.27040087890625,-0.98773193359375,-0.1132049560546875,-0.0954437255859375
1772788997808434000,7.290433837890625,-1.0031280517578125,-0.10235595703125,-0.09588623046875
1772788997828467000,7.310467041015625,-1.0074462890625,-0.0974884033203125,-0.0890045166015625
1772788997848499000,7.3304990234375,-1.0108642578125,-0.096954345703125,-0.0916900634765625
1772788997868532000,7.350531982421875,-1.0159759521484375,-0.1001129150390625,-0.0981292724609375
1772788997888565000,7.37056494140625,-1.0031890869140625,-0.107696533203125,-0.099578857421875
1772788997908597000,7.390596923828125,-1.0015869140625,-0.1155853271484375,-0.0965423583984375
1772788997928629800,7.410629638671875,-0.9906158447265625,-0.1202392578125,-0.0919189453125
1772788997948663000,7.4306630859375,-0.987274169921875,-0.1240234375,-0.089935302734375
1772788997968695000,7.450695068359375,-0.9836273193359375,-0.1219329833984375,-0.0890655517578125
1772788997988728000,7.47072802734375,-0.99041748046875,-0.1218719482421875,-0.095947265625
1772788998008760800,7.4907607421875,-0.9934539794921875,-0.1238861083984375,-0.095550537109375
1772788998028794000,7.510794189453125,-0.9750823974609375,-0.126983642578125,-0.0832672119140625
1772788998048825900,7.530825927734375,-0.96038818359375,-0.1311492919921875,-0.0692596435546875
1772788998068859100,7.550859130859375,-0.983673095703125,-0.1274566650390625,-0.0483856201171875
1772788998088892000,7.570891845703125,-1.006622314453125,-0.121856689453125,-0.0646514892578125
1772788998108923400,7.59092333984375,-0.9890594482421875,-0.1177825927734375,-0.108245849609375
1772788998128956400,7.610956298828125,-0.980804443359375,-0.1172027587890625,-0.1046142578125
1772788998148989400,7.630989501953125,-0.9855194091796875,-0.119537353515625,-0.0734710693359375
1772788998169021400,7.651021484375,-0.9922027587890625,-0.1195526123046875,-0.058563232421875
1772788998189054200,7.67105419921875,-1.0113983154296875,-0.118621826171875,-0.057403564453125
1772788998209087500,7.69108740234375,-1.011566162109375,-0.1183319091796875,-0.082550048828125
1772788998229119200,7.711119140625,-0.9931182861328125,-0.120208740234375,-0.08819580078125
1772788998249152500,7.731152587890625,-0.984710693359375,-0.123931884765625,-0.07940673828125
1772788998269185300,7.751185302734375,-0.9818115234375,-0.1262969970703125,-0.070648193359375
1772788998289218300,7.77121826171875,-1.00006103515625,-0.1297454833984375,-0.0685272216796875
1772788998309250300,7.791250244140625,-1.006256103515625,-0.1273345947265625,-0.0830230712890625
1772788998329283600,7.81128369140625,-0.9996337890625,-0.1269683837890625,-0.0958709716796875
1772788998349316400,7.83131640625,-0.9879608154296875,-0.1259918212890625,-0.090301513671875
1772788998369348400,7.851348388671875,-0.9626312255859375,-0.127899169921875,-0.0593109130859375
1772788998389381400,7.87138134765625,-0.9926910400390625,-0.128387451171875,-0.053192138671875
1772788998409414400,7.891414306640625,-1.0151824951171875,-0.1275634765625,-0.0759124755859375
1772788998429446400,7.9114462890625,-0.9961700439453125,-0.1283721923828125,-0.0943756103515625
1772788998449479400,7.9314794921875,-0.9410552978515625,-0.1278839111328125,-0.0799560546875
1772788998469512400,7.951512451171875,-0.9755859375,-0.1330413818359375,-0.08856201171875
1772788998489545500,7.97154541015625,-1.005126953125,-0.12994384765625,-0.0909576416015625
1772788998509577200,7.9915771484375,-1.0156097412109375,-0.1263885498046875,-0.0818023681640625
1772788998529610500,8.011610595703125,-0.987457275390625,-0.126495361328125,-0.0718994140625
1772788998549643300,8.031643310546874,-0.9764251708984375,-0.131072998046875,-0.0749359130859375
1772788998569675500,8.051675537109375,-0.9830322265625,-0.1308441162109375,-0.0906219482421875
1772788998589708300,8.071708251953124,-0.98419189453125,-0.12701416015625,-0.08514404296875
1772788998609741600,8.091741455078125,-1.0001373291015625,-0.1260528564453125,-0.0947723388671875
1772788998629773300,8.111773193359374,-1.002777099609375,-0.12738037109375,-0.0989532470703125
1772788998649806300,8.131806396484375,-0.991424560546875,-0.13262939453125,-0.0922088623046875
1772788998669839400,8.15183935546875,-0.979095458984375,-0.1352691650390625,-0.0857696533203125
1772788998689871400,8.171871337890625,-0.9854736328125,-0.13641357421875,-0.0885009765625
1772788998709904400,8.191904296875,-0.9929656982421875,-0.135223388671875,-0.084503173828125
1772788998729937400,8.2119375,-1.0043792724609375,-0.1331787109375,-0.0903167724609375
1772788998749970400,8.231970458984375,-1.003326416015625,-0.1304473876953125,-0.094940185546875
1772788998770002400,8.25200244140625,-0.9777984619140625,-0.1300048828125,-0.0945892333984375
1772788998790035200,8.27203515625,-0.964508056640625,-0.1393890380859375,-0.0840606689453125
1772788998810068500,8.292068359375,-0.9710540771484375,-0.1392669677734375,-0.0842742919921875
1772788998830100200,8.312100341796874,-0.9911956787109375,-0.13714599609375,-0.0987548828125
1772788998850133500,8.332133544921875,-1.00140380859375,-0.137908935546875,-0.1079864501953125
1772788998870166300,8.352166259765625,-1.0026092529296875,-0.135040283203125,-0.0980682373046875
1772788998890198500,8.372198486328125,-1.00177001953125,-0.138427734375,-0.0902252197265625
1772788998910231300,8.392231201171874,-0.982147216796875,-0.1364288330078125,-0.078704833984375
1772788998930267400,8.412267333984374,-0.9750823974609375,-0.1391143798828125,-0.0841064453125
1772788998950300400,8.432300537109375,-0.9820098876953125,-0.141693115234375,-0.086273193359375
1772788998970332400,8.45233251953125,-1.004974365234375,-0.1380615234375,-0.089447021484375
1772788998990365200,8.472365234375,-1.0028533935546875,-0.140228271484375,-0.09197998046875
1772788999010398500,8.4923984375,-0.9779052734375,-0.1405181884765625,-0.0883941650390625
1772788999030431200,8.51243115234375,-0.9635467529296875,-0.1452178955078125,-0.083038330078125
1772788999050463500,8.53246337890625,-0.97186279296875,-0.1434173583984375,-0.0858001708984375
1772788999070496300,8.552496337890625,-0.9876861572265625,-0.138275146484375,-0.0940093994140625
1772788999090529500,8.572529541015625,-0.9951324462890625,-0.136993408203125,-0.0953216552734375
1772788999110561300,8.592561279296875,-0.991943359375,-0.1406402587890625,-0.0972442626953125
1772788999130594600,8.612594482421875,-0.98272705078125,-0.140045166015625,-0.0908966064453125
1772788999150627300,8.63262744140625,-0.9839935302734375,-0.139923095703125,-0.0917510986328125
1772788999170659600,8.65265966796875,-0.977813720703125,-0.14215087890625,-0.0973663330078125
1772788999190692400,8.6726923828125,-0.9681243896484375,-0.1472320556640625,-0.1029510498046875
1772788999210725600,8.6927255859375,-0.9719390869140625,-0.1486663818359375,-0.1002960205078125
1772788999230758400,8.71275830078125,-0.988311767578125,-0.1515655517578125,-0.09368896484375
1772788999250790700,8.732790771484375,-0.9805755615234375,-0.15087890625,-0.090118408203125
1772788999270823400,8.752823486328126,-0.973388671875,-0.15179443359375,-0.090972900390625
1772788999290856700,8.772856689453125,-0.96856689453125,-0.1492462158203125,-0.081390380859375
1772788999310888400,8.792888427734376,-0.99365234375,-0.1446380615234375,-0.0920257568359375
1772788999330921500,8.81292138671875,-1.00091552734375,-0.1371002197265625,-0.099029541015625
1772788999350954500,8.83295458984375,-0.9770660400390625,-0.136962890625,-0.078460693359375
1772788999370986500,8.852986572265625,-0.994415283203125,-0.136566162109375,-0.0775299072265625
1772788999391019500,8.87301953125,-0.995758056640625,-0.1363677978515625,-0.088409423828125
1772788999411052500,8.893052490234375,-0.995849609375,-0.1375579833984375,-0.096038818359375
1772788999431085600,8.91308544921875,-0.972808837890625,-0.14306640625,-0.1032257080078125
1772788999451117600,8.93311767578125,-0.95208740234375,-0.143402099609375,-0.0981292724609375
1772788999471150300,8.953150390625,-0.9709014892578125,-0.146636962890625,-0.0851593017578125
1772788999491183600,8.97318359375,-0.9934844970703125,-0.1440277099609375,-0.0915679931640625
1772788999511215400,8.99321533203125,-1.0004730224609375,-0.144744873046875,-0.089599609375
1772788999531248600,9.01324853515625,-0.9740142822265625,-0.1395111083984375,-0.08270263671875
1772788999551281400,9.033281494140626,-0.9779510498046875,-0.1390838623046875,-0.081817626953125
1772788999571313400,9.0533134765625,-0.991363525390625,-0.13458251953125,-0.0916748046875
1772788999591346400,9.073346435546876,-1.002532958984375,-0.1307373046875,-0.088836669921875
1772788999611379500,9.09337939453125,-1.006195068359375,-0.1301727294921875,-0.088409423828125
1772788999631412500,9.11341259765625,-0.9957122802734375,-0.130035400390625,-0.0979766845703125
1772788999651444500,9.133444580078125,-0.9792327880859375,-0.130157470703125,-0.0883331298828125
1772788999671477500,9.1534775390625,-0.9858551025390625,-0.130645751953125,-0.0872802734375
1772788999691510500,9.173510498046875,-0.9947052001953125,-0.127166748046875,-0.092987060546875
1772788999711542500,9.19354248046875,-1.000732421875,-0.126129150390625,-0.096282958984375
1772788999731575600,9.213575439453125,-1.001007080078125,-0.1217041015625,-0.097686767578125
1772788999751608300,9.2336083984375,-0.97442626953125,-0.124237060546875,-0.1002960205078125
1772788999771640600,9.253640625,-0.9598236083984375,-0.1277313232421875,-0.0802001953125
1772788999791673300,9.27367333984375,-0.9781646728515625,-0.1309814453125,-0.0922393798828125
1772788999811706600,9.29370654296875,-1.00958251953125,-0.12615966796875,-0.100677490234375
1772788999831739400,9.313739501953124,-1.0013580322265625,-0.123138427734375,-0.1037445068359375
1772788999851771600,9.333771728515625,-0.9723968505859375,-0.1265716552734375,-0.0906982421875
1772788999871804400,9.353804443359374,-0.9728240966796875,-0.124176025390625,-0.080963134765625
1772788999891837700,9.373837646484375,-0.9838409423828125,-0.115203857421875,-0.0879364013671875
1772788999911869400,9.393869384765624,-1.00341796875,-0.11468505859375,-0.1053619384765625
1772788999931902500,9.41390234375,-0.987457275390625,-0.1199798583984375,-0.1067047119140625
1772788999951935500,9.433935546875,-0.9788055419921875,-0.1222991943359375,-0.090789794921875
1772788999971967500,9.453967529296875,-0.9768524169921875,-0.121856689453125,-0.0801849365234375
1772788999992000500,9.47400048828125,-1.0052032470703125,-0.1253509521484375,-0.074798583984375
1772789000012033500,9.494033447265625,-1.005615234375,-0.127899169921875,-0.0827484130859375
1772789000032066600,9.514066650390625,-1.0026397705078125,-0.126861572265625,-0.0859222412109375
1772789000052098600,9.5340986328125,-1.00732421875,-0.1244049072265625,-0.079559326171875
1772789000072131300,9.55413134765625,-0.9973297119140625,-0.1204071044921875,-0.068450927734375
1772789000092164600,9.57416455078125,-0.987548828125,-0.1182098388671875,-0.056976318359375
1772789000112196400,9.5941962890625,-0.997772216796875,-0.117828369140625,-0.0667877197265625
1772789000132229600,9.614229736328125,-1.0054779052734375,-0.121856689453125,-0.0872955322265625
1772789000152262400,9.634262451171875,-0.9895782470703125,-0.1270294189453125,-0.0967559814453125
1772789000172295700,9.654295654296876,-0.944488525390625,-0.13494873046875,-0.078460693359375
1772789000192327400,9.674327392578125,-0.961395263671875,-0.1399688720703125,-0.069854736328125
1772789000212360700,9.694360595703126,-0.9876251220703125,-0.1392059326171875,-0.0789337158203125
1772789000232393500,9.7143935546875,-0.9896240234375,-0.1374664306640625,-0.083160400390625
1772789000252425500,9.734425537109376,-0.9683990478515625,-0.1375885009765625,-0.0874481201171875
1772789000272458500,9.75445849609375,-0.9565277099609375,-0.137481689453125,-0.07965087890625
1772789000292491500,9.774491455078126,-0.976226806640625,-0.1346282958984375,-0.064422607421875
1772789000312523500,9.7945234375,-1.0000457763671875,-0.127166748046875,-0.0692291259765625
1772789000332556500,9.814556640625,-1.015472412109375,-0.1219635009765625,-0.080657958984375
1772789000352589600,9.834589599609375,-1.000152587890625,-0.121246337890625,-0.084136962890625
1772789000372622600,9.85462255859375,-0.971527099609375,-0.1197967529296875,-0.07806396484375
1772789000392654300,9.874654296875,-0.96673583984375,-0.1252899169921875,-0.07794189453125
1772789000412687600,9.8946875,-1.002197265625,-0.1256256103515625,-0.079345703125
1772789000432720400,9.914720458984375,-1.01959228515625,-0.12628173828125,-0.0877838134765625
1772789000452752600,9.934752685546876,-1.001922607421875,-0.126373291015625,-0.089630126953125
1772789000472785400,9.954785400390625,-0.9867095947265625,-0.125,-0.0884857177734375
1772789000492818700,9.974818603515626,-0.9838714599609375,-0.12384033203125,-0.082061767578125
1772789000512850400,9.994850341796875,-0.98699951171875,-0.1231689453125,-0.07122802734375
1772789000532883700,10.0148837890625,-0.999298095703125,-0.120880126953125,-0.0777435302734375
1772789000552916500,10.03491650390625,-1.008331298828125,-0.1217193603515625,-0.088775634765625
1772789000572949800,10.05494970703125,-0.9920654296875,-0.1196441650390625,-0.0921478271484375
1772789000592981500,10.0749814453125,-0.97930908203125,-0.12738037109375,-0.0881500244140625
1772789000613014500,10.0950146484375,-0.9769744873046875,-0.1291656494140625,-0.078277587890625
1772789000633047600,10.115047607421875,-0.988372802734375,-0.1316375732421875,-0.077606201171875
1772789000653079600,10.13507958984375,-0.996124267578125,-0.1328582763671875,-0.0787811279296875
1772789000673112600,10.155112548828125,-0.99884033203125,-0.1316680908203125,-0.083953857421875
1772789000693145600,10.1751455078125,-0.96624755859375,-0.1269378662109375,-0.0776214599609375
1772789000713177300,10.19517724609375,-0.9698333740234375,-0.127716064453125,-0.081390380859375
1772789000733210600,10.215210693359374,-0.995819091796875,-0.123443603515625,-0.0840911865234375
1772789000753243400,10.235243408203125,-1.0225372314453125,-0.1201019287109375,-0.07958984375
1772789000773276700,10.255276611328124,-1.013671875,-0.1201324462890625,-0.085968017578125
1772789000793308400,10.275308349609375,-0.983428955078125,-0.116180419921875,-0.0838623046875
1772789000813341700,10.295341796875,-0.9839630126953125,-0.1200408935546875,-0.0923919677734375
1772789000833374500,10.31537451171875,-0.997802734375,-0.1227569580078125,-0.0924072265625
1772789000853406500,10.335406494140624,-0.9959716796875,-0.1259002685546875,-0.0921478271484375
1772789000873439500,10.355439453125,-0.9985809326171875,-0.125579833984375,-0.086273193359375
1772789000893472500,10.375472412109374,-0.985931396484375,-0.1260223388671875,-0.091705322265625
1772789000913504500,10.39550439453125,-0.972381591796875,-0.1291046142578125,-0.095916748046875
1772789000933537500,10.41553759765625,-0.9788818359375,-0.13134765625,-0.0950164794921875
1772789000953570600,10.435570556640625,-0.99163818359375,-0.1286468505859375,-0.0872802734375
1772789000973603600,10.455603515625,-0.99908447265625,-0.1279296875,-0.0822906494140625
1772789000993635300,10.47563525390625,-0.9925384521484375,-0.1282806396484375,-0.0857696533203125
1772789001013668600,10.495668701171875,-0.9797821044921875,-0.12701416015625,-0.0872344970703125
1772789001033701400,10.515701416015625,-0.991058349609375,-0.1272735595703125,-0.086090087890625
1772789001053733600,10.535733642578125,-1.0006256103515625,-0.1257476806640625,-0.0783538818359375
1772789001073766400,10.555766357421875,-0.9986724853515625,-0.1273651123046875,-0.0765228271484375
1772789001093800000,10.575800048828125,-0.975067138671875,-0.1269378662109375,-0.086181640625
1772789001113833000,10.5958330078125,-0.9748077392578125,-0.1266632080078125,-0.0922393798828125
1772789001133865000,10.615864990234375,-0.99261474609375,-0.13275146484375,-0.0955657958984375
1772789001153897700,10.635897705078126,-0.99822998046875,-0.1341400146484375,-0.0798797607421875
1772789001173931000,10.655930908203125,-0.9857635498046875,-0.1340789794921875,-0.0700836181640625
1772789001193962800,10.675962646484376,-0.981292724609375,-0.134857177734375,-0.072998046875
1772789001213996000,10.69599609375,-0.9857177734375,-0.1360931396484375,-0.0893096923828125
1772789001234028800,10.71602880859375,-0.9789886474609375,-0.1346435546875,-0.1032257080078125
1772789001254061800,10.736061767578125,-0.98016357421875,-0.1280975341796875,-0.093505859375
1772789001274093800,10.75609375,-0.9871826171875,-0.123504638671875,-0.0837249755859375
1772789001294126800,10.776126953125,-0.9912109375,-0.1252593994140625,-0.0874786376953125
1772789001314159900,10.796159912109376,-0.9857025146484375,-0.129058837890625,-0.0920562744140625
1772789001334191900,10.81619189453125,-0.982147216796875,-0.1273193359375,-0.0953826904296875
1772789001354225000,10.836224853515626,-0.980072021484375,-0.1270751953125,-0.0835113525390625
1772789001374258000,10.8562578125,-0.9815521240234375,-0.12847900390625,-0.0856170654296875
1772789001394290000,10.8762900390625,-0.98126220703125,-0.1299285888671875,-0.08404541015625
1772789001414323000,10.896322998046875,-0.9958953857421875,-0.1281890869140625,-0.087432861328125
1772789001434356000,10.91635595703125,-0.9981536865234375,-0.1203460693359375,-0.09014892578125
1772789001454388700,10.936388671875,-0.992340087890625,-0.1195068359375,-0.08331298828125
1772789001474420700,10.956420654296876,-0.9920654296875,-0.1210784912109375,-0.0825042724609375
1772789001494454000,10.9764541015625,-0.9970855712890625,-0.1246337890625,-0.083099365234375
1772789001514486800,10.99648681640625,-1.000244140625,-0.1263275146484375,-0.080780029296875
1772789001534519000,11.01651904296875,-0.99395751953125,-0.12554931640625,-0.07940673828125
1772789001554551800,11.0365517578125,-0.9867401123046875,-0.1285400390625,-0.08294677734375
1772789001574585000,11.056585205078125,-0.9763031005859375,-0.126861572265625,-0.0837554931640625
1772789001594617900,11.076617919921874,-0.9917144775390625,-0.1244049072265625,-0.086151123046875
1772789001614649900,11.09664990234375,-1.0083770751953125,-0.120361328125,-0.087677001953125
1772789001634683000,11.116682861328124,-0.9921112060546875,-0.1202392578125,-0.0896759033203125
1772789001654716000,11.1367158203125,-0.9747467041015625,-0.1223602294921875,-0.0761260986328125
1772789001674748000,11.156747802734374,-0.985626220703125,-0.125762939453125,-0.083740234375
1772789001694781000,11.176781005859375,-1.003265380859375,-0.1237945556640625,-0.0989532470703125
1772789001714814000,11.19681396484375,-0.994873046875,-0.124542236328125,-0.09552001953125
1772789001734846700,11.2168466796875,-0.98870849609375,-0.1245269775390625,-0.079833984375
1772789001754878700,11.236878662109374,-0.985687255859375,-0.1226806640625,-0.0797882080078125
1772789001774912000,11.256912109375,-0.9958343505859375,-0.121490478515625,-0.0836029052734375
1772789001794944800,11.27694482421875,-0.99481201171875,-0.121337890625,-0.0955810546875
1772789001814977000,11.29697705078125,-0.99053955078125,-0.1263580322265625,-0.1046295166015625
1772789001835009800,11.317009765625,-0.97833251953125,-0.1301116943359375,-0.0976409912109375
1772789001855042800,11.337042724609375,-0.9638519287109375,-0.1298675537109375,-0.0806121826171875
1772789001875075800,11.357075927734375,-0.9788970947265625,-0.1303863525390625,-0.0811004638671875
1772789001895107800,11.37710791015625,-0.9991455078125,-0.13134765625,-0.092529296875
1772789001915140900,11.397140869140625,-0.9900360107421875,-0.1269989013671875,-0.0963592529296875
1772789001935173600,11.417173583984376,-0.9818878173828125,-0.120330810546875,-0.09478759765625
1772789001955206000,11.437205810546875,-0.993377685546875,-0.118072509765625,-0.0908660888671875
1772789001975239000,11.457239013671876,-0.99884033203125,-0.1165008544921875,-0.087738037109375
1772789001995272000,11.47727197265625,-0.9864349365234375,-0.123016357421875,-0.0869598388671875
1772789002015304700,11.4973046875,-0.980255126953125,-0.125335693359375,-0.094085693359375
1772789002035337000,11.5173369140625,-0.9932708740234375,-0.1244964599609375,-0.08807373046875
1772789002055369700,11.53736962890625,-1.000457763671875,-0.1241912841796875,-0.0804901123046875
1772789002075403000,11.557403076171875,-0.986053466796875,-0.123291015625,-0.0782470703125
1772789002095434500,11.5774345703125,-0.9761505126953125,-0.123138427734375,-0.0842742919921875
1772789002115467300,11.59746728515625,-0.9934844970703125,-0.121856689453125,-0.0888824462890625
1772789002135500500,11.61750048828125,-1.012969970703125,-0.1200103759765625,-0.0894317626953125
1772789002155532300,11.6375322265625,-1.001739501953125,-0.1229705810546875,-0.0812835693359375
1772789002175565600,11.657565673828126,-0.9764862060546875,-0.1259002685546875,-0.0687255859375
1772789002195598300,11.677598388671875,-0.975677490234375,-0.128570556640625,-0.069488525390625
1772789002215631400,11.69763134765625,-0.997100830078125,-0.131500244140625,-0.0832061767578125
1772789002235663400,11.717663330078125,-1.00048828125,-0.129180908203125,-0.0897979736328125
1772789002255696400,11.7376962890625,-0.979705810546875,-0.1333770751953125,-0.082977294921875
1772789002275729400,11.7577294921875,-0.9577178955078125,-0.13238525390625,-0.071380615234375
1772789002295761400,11.777761474609376,-0.9800872802734375,-0.1285552978515625,-0.078155517578125
1772789002315794400,11.79779443359375,-1.0016021728515625,-0.1238861083984375,-0.0970458984375
1772789002335827500,11.817827392578126,-1.009063720703125,-0.1213531494140625,-0.0982818603515625
1772789002355860500,11.837860595703125,-0.988616943359375,-0.1160736083984375,-0.089508056640625
1772789002375892500,11.857892578125,-0.981353759765625,-0.1134033203125,-0.0850677490234375
1772789002395925500,11.877925537109375,-0.9982147216796875,-0.1143951416015625,-0.0805816650390625
1772789002415958500,11.89795849609375,-1.0103759765625,-0.1122589111328125,-0.0850982666015625
1772789002435990300,11.917990234375,-1.0072479248046875,-0.11358642578125,-0.0928192138671875
1772789002456023600,11.9380234375,-0.9835357666015625,-0.117462158203125,-0.092132568359375
1772789002476056300,11.958056396484375,-0.98797607421875,-0.116363525390625,-0.086395263671875
1772789002496089300,11.97808935546875,-1.003204345703125,-0.1164398193359375,-0.08343505859375
1772789002516118300,11.9981181640625,-0.998748779296875,-0.117706298828125,-0.0810089111328125
1772789002536151300,12.0181513671875,-0.98724365234375,-0.1163177490234375,-0.085968017578125
1772789002556184300,12.038184326171875,-0.9897918701171875,-0.1146697998046875,-0.093994140625
1772789002576216600,12.058216552734375,-0.9873809814453125,-0.1112060546875,-0.089385986328125
1772789002596249300,12.078249267578125,-0.993011474609375,-0.1160125732421875,-0.08477783203125
1772789002616282400,12.098282470703126,-1.000946044921875,-0.1112518310546875,-0.086334228515625
1772789002636314400,12.118314453125,-1.007080078125,-0.1201171875,-0.0929412841796875
1772789002656347400,12.138347412109376,-1.002899169921875,-0.1263885498046875,-0.0961761474609375
1772789002676380400,12.15838037109375,-0.97894287109375,-0.1349029541015625,-0.0911712646484375
1772789002696413400,12.178413330078126,-0.9667510986328125,-0.1355743408203125,-0.0762176513671875
1772789002716445400,12.198445556640625,-0.9897918701171875,-0.1378326416015625,-0.077972412109375
1772789002736478200,12.218478271484376,-0.99945068359375,-0.1333770751953125,-0.0851898193359375
1772789002756511500,12.238511474609375,-0.9793853759765625,-0.1319580078125,-0.088043212890625
1772789002776543500,12.25854345703125,-0.96234130859375,-0.1280364990234375,-0.0871734619140625
1772789002796576500,12.278576416015625,-0.98321533203125,-0.128875732421875,-0.09039306640625
1772789002816609300,12.298609375,-0.9976806640625,-0.1275787353515625,-0.0914306640625
1772789002836642600,12.318642578125,-0.990386962890625,-0.1249847412109375,-0.0835418701171875
1772789002856674600,12.338674560546876,-0.9829864501953125,-0.126312255859375,-0.0939178466796875
1772789002876707300,12.358707275390625,-0.993377685546875,-0.1233673095703125,-0.096038818359375
1772789002896740400,12.378740234375,-1.0035552978515625,-0.1197357177734375,-0.09588623046875
1772789002916772400,12.3987724609375,-0.998260498046875,-0.121978759765625,-0.099151611328125
1772789002936806400,12.418806396484374,-0.9846343994140625,-0.128936767578125,-0.0970458984375
1772789002956839400,12.43883935546875,-0.9838409423828125,-0.1327667236328125,-0.0967254638671875
1772789002976872400,12.45887255859375,-0.9876708984375,-0.13543701171875,-0.0984649658203125
1772789002996904400,12.478904541015625,-0.975250244140625,-0.1361541748046875,-0.087921142578125
1772789003016937500,12.4989375,-0.9735870361328125,-0.1363372802734375,-0.0757598876953125
1772789003036970500,12.518970458984375,-0.9857177734375,-0.1383819580078125,-0.08544921875
1772789003057003500,12.53900341796875,-0.9881439208984375,-0.1396331787109375,-0.095245361328125
1772789003077035500,12.559035400390625,-0.9777374267578125,-0.136627197265625,-0.0874176025390625
1772789003097068800,12.57906884765625,-0.9709930419921875,-0.1358795166015625,-0.0888519287109375
1772789003117101800,12.599101806640626,-0.977386474609375,-0.1370086669921875,-0.086639404296875
1772789003137133800,12.6191337890625,-0.99462890625,-0.13653564453125,-0.0792388916015625
1772789003157166800,12.639166748046875,-1.007110595703125,-0.13531494140625,-0.0856170654296875
1772789003177199900,12.659199951171875,-0.993255615234375,-0.12994384765625,-0.0964202880859375
1772789003197233000,12.67923291015625,-0.9656219482421875,-0.130767822265625,-0.090972900390625
1772789003217265000,12.699264892578125,-0.967010498046875,-0.13140869140625,-0.0855560302734375
1772789003237297700,12.719297607421876,-1.0036163330078125,-0.129119873046875,-0.0890655517578125
1772789003257331000,12.7393310546875,-1.016632080078125,-0.1274261474609375,-0.0978546142578125
1772789003277363000,12.759363037109376,-0.9914398193359375,-0.125579833984375,-0.095703125
1772789003297396000,12.77939599609375,-0.9778594970703125,-0.1307220458984375,-0.084991455078125
1772789003317428700,12.7994287109375,-0.988494873046875,-0.1289825439453125,-0.0867156982421875
1772789003337462000,12.8194619140625,-0.9958648681640625,-0.1333465576171875,-0.0857391357421875
1772789003357493800,12.83949365234375,-0.9854583740234375,-0.1382598876953125,-0.085479736328125
1772789003377526800,12.85952685546875,-0.9773406982421875,-0.1399993896484375,-0.089691162109375
1772789003397559800,12.879559814453126,-0.9773406982421875,-0.1385955810546875,-0.0915374755859375
1772789003417591800,12.899591796875,-0.9863739013671875,-0.13629150390625,-0.0870819091796875
1772789003437624800,12.919624755859376,-0.9823150634765625,-0.1340484619140625,-0.089996337890625
1772789003457657900,12.939657958984375,-0.9771270751953125,-0.131195068359375,-0.0931854248046875
1772789003477691000,12.95969091796875,-0.96429443359375,-0.1302337646484375,-0.091339111328125
1772789003497723000,12.979722900390625,-0.975250244140625,-0.137542724609375,-0.0890655517578125
1772789003517755600,12.999755615234376,-0.9938201904296875,-0.1365966796875,-0.0801239013671875
1772789003537789000,13.019788818359375,-0.993438720703125,-0.1342315673828125,-0.0699615478515625
1772789003557821700,13.03982177734375,-0.99896240234375,-0.133575439453125,-0.066375732421875
1772789003577854000,13.05985400390625,-0.9986419677734375,-0.1322784423828125,-0.0661773681640625
1772789003597886700,13.07988671875,-0.9913787841796875,-0.1391754150390625,-0.0773162841796875
1772789003617920000,13.099919921875,-0.98046875,-0.1410064697265625,-0.0795745849609375
1772789003637951700,13.11995166015625,-0.97845458984375,-0.14044189453125,-0.0741119384765625
1772789003657985000,13.139985107421875,-0.9926300048828125,-0.139068603515625,-0.0738983154296875
1772789003678017800,13.160017822265624,-0.9950408935546875,-0.1336212158203125,-0.077728271484375
1772789003698051000,13.180051025390625,-0.9722900390625,-0.132537841796875,-0.0885009765625
1772789003718082800,13.200082763671874,-0.9637603759765625,-0.131591796875,-0.0877838134765625
1772789003738115800,13.22011572265625,-0.999725341796875,-0.1260833740234375,-0.095123291015625
1772789003758148900,13.24014892578125,-1.0113525390625,-0.12567138671875,-0.0941162109375
1772789003778180900,13.260180908203125,-0.9840240478515625,-0.1291656494140625,-0.083282470703125
1772789003798214000,13.2802138671875,-0.96466064453125,-0.1307373046875,-0.07415771484375
1772789003818247000,13.300246826171875,-0.9876251220703125,-0.129913330078125,-0.0823974609375
1772789003838280000,13.320280029296875,-1.010711669921875,-0.130401611328125,-0.095458984375
1772789003858312000,13.34031201171875,-1.004302978515625,-0.13427734375,-0.0867462158203125
1772789003878344700,13.3603447265625,-0.990081787109375,-0.132965087890625,-0.068359375
1772789003898378000,13.3803779296875,-0.98114013671875,-0.1331024169921875,-0.0728607177734375
1772789003918409700,13.40040966796875,-0.979034423828125,-0.131988525390625,-0.084869384765625
1772789003938443000,13.420443115234375,-0.989959716796875,-0.1285552978515625,-0.0920867919921875
1772789003958475800,13.440475830078125,-1.000457763671875,-0.1286773681640625,-0.1001739501953125
1772789003978509000,13.460509033203126,-0.985687255859375,-0.1255950927734375,-0.0876007080078125
1772789003998540800,13.480540771484375,-0.9807586669921875,-0.1239166259765625,-0.0730743408203125
1772789004018573800,13.50057373046875,-0.986785888671875,-0.129913330078125,-0.084686279296875
1772789004038606800,13.52060693359375,-0.996002197265625,-0.13238525390625,-0.1037139892578125
1772789004058638800,13.540638916015626,-0.9878692626953125,-0.12982177734375,-0.1054534912109375
1772789004078672000,13.560671875,-0.9648590087890625,-0.12896728515625,-0.08538818359375
1772789004098704600,13.58070458984375,-0.9738616943359375,-0.1293487548828125,-0.066131591796875
1772789004118737700,13.600737548828125,-0.99774169921875,-0.128143310546875,-0.083526611328125
1772789004138769700,13.620769775390626,-1.00543212890625,-0.1270751953125,-0.10308837890625
1772789004158802400,13.640802490234375,-0.9913482666015625,-0.12158203125,-0.0990447998046875
1772789004178835700,13.660835693359376,-0.9900054931640625,-0.11767578125,-0.0836029052734375
1772789004198868500,13.680868408203125,-0.997833251953125,-0.1199493408203125,-0.0771942138671875
1772789004218900700,13.700900634765626,-1.000579833984375,-0.1186370849609375,-0.078094482421875
1772789004238933500,13.72093359375,-1.014373779296875,-0.1243438720703125,-0.0888824462890625
1772789004258966800,13.740966796875,-1.008880615234375,-0.1265869140625,-0.093170166015625
1772789004278998500,13.76099853515625,-0.9970550537109375,-0.12957763671875,-0.0943145751953125
1772789004299031600,13.781031494140626,-0.993072509765625,-0.1343994140625,-0.0868682861328125
1772789004319064600,13.801064697265625,-0.981353759765625,-0.1331024169921875,-0.073699951171875
1772789004339097600,13.82109765625,-0.9897003173828125,-0.1331787109375,-0.0681610107421875
1772789004359129600,13.841129638671875,-0.9975128173828125,-0.1324005126953125,-0.0959625244140625
1772789004379162600,13.86116259765625,-0.9850921630859375,-0.1320343017578125,-0.1017303466796875
1772789004399195600,13.881195556640625,-0.9633636474609375,-0.1363983154296875,-0.09027099609375
1772789004419227600,13.9012275390625,-0.960418701171875,-0.1349639892578125,-0.076416015625
1772789004439260700,13.9212607421875,-0.9924468994140625,-0.1337890625,-0.085662841796875
1772789004459293700,13.941293701171874,-0.9953460693359375,-0.1331634521484375,-0.0962982177734375
1772789004479326700,13.96132666015625,-0.98590087890625,-0.13311767578125,-0.0909271240234375
1772789004499358700,13.981358642578124,-0.96954345703125,-0.1367950439453125,-0.0909423828125
1772789004519391500,14.0013916015625,-0.969512939453125,-0.1356353759765625,-0.079132080078125
1772789004539424800,14.0214248046875,-0.9973297119140625,-0.1324462890625,-0.081817626953125
1772789004559456500,14.04145654296875,-1.005889892578125,-0.1337738037109375,-0.086700439453125
1772789004579489800,14.06148974609375,-0.995391845703125,-0.1302642822265625,-0.08721923828125
1772789004599522600,14.0815224609375,-0.990753173828125,-0.13421630859375,-0.0967864990234375
1772789004619555600,14.1015556640625,-0.9715576171875,-0.131988525390625,-0.083465576171875
1772789004639587600,14.121587646484375,-0.9853057861328125,-0.1265716552734375,-0.075347900390625
1772789004659620600,14.14162060546875,-1.0032501220703125,-0.126434326171875,-0.0897979736328125
1772789004679653600,14.161653564453125,-1.0028839111328125,-0.13385009765625,-0.105072021484375
1772789004699686400,14.181686279296875,-0.9851226806640625,-0.1365966796875,-0.0977020263671875
1772789004719718700,14.20171875,-0.9666290283203125,-0.13726806640625,-0.08538818359375
1772789004739751700,14.221751708984375,-0.959320068359375,-0.138214111328125,-0.0639495849609375
1772789004759784700,14.24178466796875,-0.987548828125,-0.1377716064453125,-0.07049560546875
1772789004779816700,14.261816650390625,-1.000335693359375,-0.1376495361328125,-0.08294677734375
1772789004799849500,14.281849365234375,-0.993865966796875,-0.1370849609375,-0.0953369140625
1772789004819882800,14.3018828125,-0.9841156005859375,-0.13671875,-0.089630126953125
1772789004839915500,14.32191552734375,-0.985687255859375,-0.135833740234375,-0.0691986083984375
1772789004859947800,14.34194775390625,-1.0059814453125,-0.1335906982421875,-0.068023681640625
1772789004879980500,14.36198046875,-1.0073394775390625,-0.12921142578125,-0.077545166015625
1772789004900013600,14.382013671875,-0.98858642578125,-0.1294708251953125,-0.0852813720703125
1772789004920046600,14.402046630859376,-0.981689453125,-0.1309967041015625,-0.10150146484375
1772789004940078600,14.42207861328125,-0.9898529052734375,-0.1311492919921875,-0.10400390625
1772789004960111600,14.442111572265626,-0.9906768798828125,-0.130584716796875,-0.091949462890625
1772789004980144400,14.462144287109375,-0.9853515625,-0.13177490234375,-0.0895233154296875
1772789005000176600,14.4821767578125,-0.9769744873046875,-0.135040283203125,-0.087554931640625
1772789005020209700,14.502209716796875,-0.9723663330078125,-0.13555908203125,-0.0888214111328125
1772789005040242700,14.52224267578125,-0.9882049560546875,-0.1385498046875,-0.0962677001953125
1772789005060275500,14.542275390625,-0.9945526123046875,-0.1319122314453125,-0.0912933349609375
1772789005080307700,14.5623076171875,-1.0005340576171875,-0.1317138671875,-0.0790863037109375
1772789005100341000,14.582341064453125,-1.002838134765625,-0.1324462890625,-0.06671142578125
1772789005120374000,14.6023740234375,-0.984344482421875,-0.1331024169921875,-0.0701751708984375
1772789005140406000,14.622406005859375,-0.9866943359375,-0.13604736328125,-0.0818328857421875
1772789005160439000,14.64243896484375,-0.9893341064453125,-0.1373748779296875,-0.08563232421875
1772789005180471800,14.662471923828125,-0.9853363037109375,-0.141204833984375,-0.0792083740234375
1772789005200505000,14.682505126953124,-0.9731292724609375,-0.1414947509765625,-0.0655975341796875
1772789005220536800,14.702536865234375,-0.977508544921875,-0.140625,-0.0712738037109375
1772789005240570000,14.722570068359374,-1.00042724609375,-0.1395721435546875,-0.0921173095703125
1772789005260603000,14.742602783203125,-0.990570068359375,-0.13525390625,-0.1015472412109375
1772789005280636200,14.76263623046875,-0.9739990234375,-0.1326446533203125,-0.0861663818359375
1772789005300668000,14.78266796875,-0.9810333251953125,-0.130645751953125,-0.0824737548828125
1772789005320701000,14.802700927734374,-1.0047149658203125,-0.13134765625,-0.0986785888671875
1772789005340734000,14.82273388671875,-0.998443603515625,-0.135284423828125,-0.095184326171875
1772789005360766000,14.842765869140624,-0.9770660400390625,-0.1373443603515625,-0.0794219970703125
1772789005380799000,14.862799072265625,-0.9806060791015625,-0.13818359375,-0.0793304443359375
1772789005400832000,14.88283203125,-1.0010528564453125,-0.137420654296875,-0.07965087890625
1772789005420865000,14.902864990234375,-0.9957733154296875,-0.1363983154296875,-0.08349609375
1772789005440897000,14.92289697265625,-0.9814605712890625,-0.1352691650390625,-0.0821685791015625
1772789005460929800,14.9429296875,-0.9942474365234375,-0.1316986083984375,-0.08404541015625
1772789005480963000,14.962963134765625,-1.01495361328125,-0.1295318603515625,-0.0821380615234375
1772789005500995800,14.982995849609376,-1.0006866455078125,-0.123626708984375,-0.068115234375
1772789005521028000,15.003028076171875,-0.98883056640625,-0.125030517578125,-0.06439208984375
1772789005541060900,15.023060791015626,-0.9938201904296875,-0.128143310546875,-0.067108154296875
1772789005561094100,15.04309423828125,-0.993499755859375,-0.13653564453125,-0.0691986083984375
1772789005581126000,15.0631259765625,-0.98394775390625,-0.143646240234375,-0.0644073486328125
1772789005601159200,15.0831591796875,-0.97979736328125,-0.1481170654296875,-0.0508880615234375
1772789005621192000,15.10319189453125,-0.9822845458984375,-0.142425537109375,-0.0381317138671875
1772789005641225200,15.12322509765625,-1.00128173828125,-0.1420745849609375,-0.0613861083984375
1772789005661257000,15.143257080078126,-0.99224853515625,-0.1392822265625,-0.101776123046875
1772789005681290000,15.1632900390625,-0.97998046875,-0.1407318115234375,-0.0951690673828125
1772789005701323000,15.183322998046876,-0.9886627197265625,-0.139251708984375,-0.066497802734375
1772789005721356000,15.20335595703125,-0.9878692626953125,-0.14007568359375,-0.061553955078125
1772789005741388000,15.223387939453126,-0.9918975830078125,-0.1368560791015625,-0.07464599609375
1772789005761421000,15.243421142578125,-0.9890899658203125,-0.1332855224609375,-0.0908050537109375
1772789005781454000,15.2634541015625,-0.9890289306640625,-0.13458251953125,-0.0870208740234375
1772789005801486000,15.283486083984375,-0.9928131103515625,-0.137176513671875,-0.0731964111328125
1772789005821518800,15.303518798828126,-0.991668701171875,-0.13995361328125,-0.0750732421875
1772789005841552100,15.32355224609375,-0.9879608154296875,-0.1384735107421875,-0.0789337158203125
1772789005861585000,15.3435849609375,-0.994171142578125,-0.1414794921875,-0.0839996337890625
1772789005881617200,15.3636171875,-0.9876708984375,-0.1435546875,-0.0732574462890625
1772789005901650000,15.38364990234375,-0.984161376953125,-0.147125244140625,-0.06707763671875
1772789005921683200,15.40368310546875,-0.9930877685546875,-0.150054931640625,-0.0671234130859375
1772789005941716000,15.423716064453124,-0.991912841796875,-0.1516571044921875,-0.0768280029296875
1772789005961748000,15.443748046875,-0.9777679443359375,-0.154388427734375,-0.0780487060546875
1772789005981781000,15.463781005859374,-0.9696807861328125,-0.151947021484375,-0.0779876708984375
1772789006001814000,15.48381396484375,-0.9833984375,-0.1500701904296875,-0.0830535888671875
1772789006021846000,15.503845947265624,-0.991546630859375,-0.144866943359375,-0.08343505859375
1772789006041879000,15.523879150390625,-0.975677490234375,-0.1449127197265625,-0.0813446044921875
1772789006061912000,15.543912109375,-0.9602813720703125,-0.1468505859375,-0.0691680908203125
1772789006081944800,15.56394482421875,-0.9787445068359375,-0.1532440185546875,-0.0744171142578125
1772789006101976600,15.5839765625,-0.9893646240234375,-0.155181884765625,-0.081787109375
1772789006122009900,15.604009765625,-0.9817962646484375,-0.1548309326171875,-0.0791015625
1772789006142042600,15.624042724609374,-0.9602508544921875,-0.152923583984375,-0.0665740966796875
1772789006162075600,15.64407568359375,-0.974853515625,-0.1490325927734375,-0.058990478515625
1772789006182107600,15.664107666015624,-1.0117645263671875,-0.1440887451171875,-0.070953369140625
1772789006202141000,15.684140869140625,-1.0049896240234375,-0.1395111083984375,-0.08197021484375
1772789006222173700,15.704173583984375,-0.9858856201171875,-0.13726806640625,-0.0712127685546875
1772789006242206000,15.7242060546875,-0.989776611328125,-0.1446533203125,-0.0686798095703125
1772789006262238700,15.74423876953125,-0.9886474609375,-0.1469268798828125,-0.07000732421875
1772789006282271700,15.764271728515626,-0.9948272705078125,-0.14752197265625,-0.0733795166015625
1772789006302304800,15.7843046875,-0.997100830078125,-0.14886474609375,-0.0791778564453125
1772789006322336800,15.804336669921875,-0.9855804443359375,-0.144287109375,-0.0809173583984375
1772789006342369800,15.824369873046875,-0.978851318359375,-0.142669677734375,-0.08245849609375
1772789006362402600,15.844402587890626,-0.98553466796875,-0.14654541015625,-0.0779571533203125
1772789006382435800,15.864435791015625,-0.9909820556640625,-0.146942138671875,-0.0678253173828125
1772789006402467800,15.8844677734375,-0.9913177490234375,-0.147369384765625,-0.063934326171875
1772789006422500900,15.9045009765625,-0.98114013671875,-0.147796630859375,-0.0676422119140625
1772789006442533600,15.92453369140625,-0.975372314453125,-0.147247314453125,-0.0781402587890625
1772789006462565600,15.944565673828125,-0.9904937744140625,-0.146728515625,-0.0856781005859375
1772789006482598700,15.9645986328125,-1.0016326904296875,-0.145050048828125,-0.07666015625
1772789006502631700,15.984631591796875,-0.9948272705078125,-0.142242431640625,-0.0645904541015625
1772789006522664000,16.004663818359376,-0.9940643310546875,-0.145782470703125,-0.068328857421875
1772789006542695700,16.02469580078125,-0.9925079345703125,-0.14794921875,-0.08648681640625
1772789006562728700,16.044728759765626,-0.980010986328125,-0.15081787109375,-0.0970611572265625
1772789006582761700,16.06476171875,-0.9637908935546875,-0.1563720703125,-0.0854949951171875
1772789006602794800,16.084794677734376,-0.96649169921875,-0.149200439453125,-0.0755462646484375
1772789006622826800,16.10482666015625,-0.9932403564453125,-0.1481475830078125,-0.0849456787109375
1772789006642859800,16.12485986328125,-0.997802734375,-0.152191162109375,-0.0924072265625
1772789006662892800,16.144892822265625,-0.959136962890625,-0.1510467529296875,-0.09844970703125
1772789006682924800,16.1649248046875,-0.9467926025390625,-0.1514892578125,-0.0986785888671875
1772789006702957600,16.18495751953125,-0.9515380859375,-0.154296875,-0.097900390625
1772789006722990800,16.204990966796874,-0.972259521484375,-0.1556854248046875,-0.0981903076171875
1772789006743023600,16.225023681640625,-0.9784393310546875,-0.154052734375,-0.09515380859375
1772789006763055900,16.245055908203124,-0.97161865234375,-0.15380859375,-0.089691162109375
1772789006783088600,16.265088623046875,-0.9736175537109375,-0.149688720703125,-0.0923614501953125
1772789006803122000,16.285121826171874,-0.9804534912109375,-0.14630126953125,-0.0957183837890625
1772789006823154700,16.30515478515625,-0.9979095458984375,-0.1436920166015625,-0.091766357421875
1772789006843187000,16.32518701171875,-0.996124267578125,-0.1383514404296875,-0.0803680419921875
1772789006863219700,16.3452197265625,-0.9980010986328125,-0.1363372802734375,-0.077117919921875
1772789006883252700,16.365252685546874,-1.003814697265625,-0.1361236572265625,-0.0833740234375
1772789006903284700,16.38528466796875,-1.00164794921875,-0.136688232421875,-0.0880889892578125
1772789006923317800,16.40531787109375,-0.9957733154296875,-0.1406097412109375,-0.0905914306640625
1772789006943351800,16.425351806640624,-0.9984588623046875,-0.140594482421875,-0.0892486572265625
1772789006963384600,16.445384521484375,-1.0013580322265625,-0.141845703125,-0.0916595458984375
1772789006983417900,16.46541796875,-0.981658935546875,-0.142333984375,-0.0922393798828125
1772789007003449600,16.48544970703125,-0.9716339111328125,-0.1453399658203125,-0.098358154296875
1772789007023483000,16.50548291015625,-0.99072265625,-0.1416778564453125,-0.1053009033203125
1772789007043515600,16.525515625,-0.9986572265625,-0.1472015380859375,-0.09307861328125
1772789007063548000,16.5455478515625,-0.977630615234375,-0.139739990234375,-0.070648193359375
1772789007083580700,16.56558056640625,-0.977294921875,-0.144561767578125,-0.0687103271484375
1772789007103613400,16.585613525390624,-0.9885101318359375,-0.1459808349609375,-0.091827392578125
1772789007123646500,16.605646484375,-0.986114501953125,-0.1458282470703125,-0.1017913818359375
1772789007143678500,16.625678466796874,-0.971405029296875,-0.1480560302734375,-0.09564208984375
1772789007163711500,16.64571142578125,-0.9668121337890625,-0.150604248046875,-0.076995849609375
1772789007183744500,16.66574462890625,-0.974517822265625,-0.1422576904296875,-0.0820465087890625
1772789007203777500,16.685777587890627,-1.00897216796875,-0.13519287109375,-0.0957794189453125
1772789007223809500,16.7058095703125,-1.0230865478515625,-0.1278228759765625,-0.111846923828125
1772789007243842600,16.725842529296877,-1.0057525634765625,-0.1253204345703125,-0.1157379150390625
1772789007263875600,16.74587548828125,-0.9794921875,-0.12530517578125,-0.1002044677734375
1772789007283908600,16.76590869140625,-0.9843292236328125,-0.1295013427734375,-0.09320068359375
1772789007303940600,16.785940673828126,-0.9960784912109375,-0.1280517578125,-0.1043701171875
1772789007323973400,16.805973388671877,-1.0020904541015625,-0.127410888671875,-0.114532470703125
1772789007344006700,16.826006591796876,-0.9850006103515625,-0.133056640625,-0.11163330078125
1772789007364038400,16.846038330078127,-0.972991943359375,-0.14068603515625,-0.105255126953125
1772789007384071700,16.86607177734375,-0.968994140625,-0.140411376953125,-0.08038330078125
1772789007404104400,16.8861044921875,-0.9883880615234375,-0.1415863037109375,-0.074127197265625
1772789007424137500,16.906137451171876,-0.995330810546875,-0.1413726806640625,-0.080047607421875
1772789007444169500,16.92616943359375,-0.9830474853515625,-0.141845703125,-0.0875091552734375
1772789007464202500,16.946202392578126,-0.976287841796875,-0.1432342529296875,-0.0794219970703125
1772789007484235500,16.966235595703125,-0.980987548828125,-0.1396636962890625,-0.0709991455078125
1772789007504268300,16.986268310546876,-0.9989013671875,-0.1385040283203125,-0.07183837890625
1772789007524300500,17.006300537109375,-1.002532958984375,-0.1369171142578125,-0.07208251953125
1772789007544333600,17.02633349609375,-1.0051116943359375,-0.137054443359375,-0.0778045654296875
1772789007564366600,17.04636669921875,-0.9873809814453125,-0.1415557861328125,-0.0861053466796875
1772789007584399400,17.0663994140625,-0.9620208740234375,-0.1397705078125,-0.072265625
1772789007604431400,17.086431396484375,-0.988372802734375,-0.142364501953125,-0.0788726806640625
1772789007624464400,17.10646435546875,-0.9939422607421875,-0.1408233642578125,-0.0823974609375
1772789007644497400,17.126497314453125,-0.995880126953125,-0.139984130859375,-0.079376220703125
1772789007664530400,17.146530517578125,-0.997955322265625,-0.142669677734375,-0.089141845703125
1772789007684562400,17.1665625,-0.9825897216796875,-0.14117431640625,-0.083648681640625
1772789007704595500,17.186595458984375,-0.9731597900390625,-0.14508056640625,-0.0801544189453125
1772789007724628500,17.20662841796875,-0.9832763671875,-0.1423187255859375,-0.0737152099609375
1772789007744660500,17.226660400390625,-0.997467041015625,-0.1414642333984375,-0.073486328125
1772789007764693500,17.246693603515624,-1.0038604736328125,-0.135406494140625,-0.07037353515625
1772789007784726300,17.266726318359375,-0.9815216064453125,-0.141143798828125,-0.081329345703125
1772789007804759600,17.286759521484374,-0.9744720458984375,-0.142120361328125,-0.07965087890625
1772789007824791600,17.30679150390625,-0.9680633544921875,-0.14349365234375,-0.0801544189453125
1772789007844824600,17.326824462890624,-0.983489990234375,-0.145233154296875,-0.0794677734375
1772789007864857300,17.346857421875,-0.9992828369140625,-0.1429443359375,-0.0793609619140625
1772789007884890600,17.366890625,-0.9931488037109375,-0.14190673828125,-0.0780029296875
1772789007904922400,17.38692236328125,-0.987030029296875,-0.1408843994140625,-0.0768890380859375
1772789007924955600,17.40695556640625,-0.980987548828125,-0.1387786865234375,-0.08203125
1772789007944988400,17.426988525390627,-0.9833984375,-0.14129638671875,-0.080657958984375
1772789007965021400,17.447021484375,-0.98565673828125,-0.139923095703125,-0.0755615234375
1772789007985053400,17.467053466796877,-0.9991302490234375,-0.13623046875,-0.074493408203125
1772789008005086500,17.48708642578125,-1.0022430419921875,-0.1349945068359375,-0.0918731689453125
1772789008025119500,17.507119384765623,-0.9839630126953125,-0.1409149169921875,-0.0934295654296875
1772789008045152500,17.527152587890626,-0.9723358154296875,-0.1440277099609375,-0.078460693359375
1772789008065184500,17.5471845703125,-0.97930908203125,-0.1433563232421875,-0.0806884765625
1772789008085217500,17.567217529296876,-0.99151611328125,-0.1363677978515625,-0.086517333984375
1772789008105250300,17.587250244140623,-0.9907073974609375,-0.136383056640625,-0.08856201171875
1772789008125282300,17.6072822265625,-0.9766082763671875,-0.136932373046875,-0.086883544921875
1772789008145315300,17.6273154296875,-0.98199462890625,-0.140838623046875,-0.0842437744140625
1772789008165348400,17.647348388671876,-0.9918365478515625,-0.1372528076171875,-0.087677001953125
1772789008185381400,17.66738134765625,-0.993896484375,-0.1358489990234375,-0.0789031982421875
1772789008205413400,17.687413330078126,-0.999603271484375,-0.1331634521484375,-0.0800323486328125
1772789008225446400,17.7074462890625,-0.98663330078125,-0.130035400390625,-0.08551025390625
1772789008245479400,17.7274794921875,-0.996490478515625,-0.131500244140625,-0.0911712646484375
1772789008265512400,17.747512451171875,-1.0031280517578125,-0.134002685546875,-0.090423583984375
1772789008285544400,17.76754443359375,-0.99163818359375,-0.1328125,-0.0746917724609375
1772789008305577500,17.787577392578125,-1.003204345703125,-0.134918212890625,-0.0784912109375
1772789008325610500,17.807610595703125,-1.007049560546875,-0.133636474609375,-0.097076416015625
1772789008345643500,17.8276435546875,-0.98162841796875,-0.1327056884765625,-0.0947265625
1772789008365675500,17.847675537109374,-0.9772491455078125,-0.136871337890625,-0.0836944580078125
1772789008385708300,17.867708251953125,-0.99700927734375,-0.1369781494140625,-0.0845489501953125
1772789008405741600,17.887741455078125,-0.996734619140625,-0.1387176513671875,-0.0941314697265625
1772789008425773300,17.907773193359375,-0.9788055419921875,-0.13897705078125,-0.0848236083984375
1772789008445806600,17.927806640625,-0.9793701171875,-0.1361846923828125,-0.0855712890625
1772789008465839400,17.94783935546875,-0.990936279296875,-0.1368560791015625,-0.0847015380859375
1772789008485872400,17.967872314453125,-0.983734130859375,-0.139190673828125,-0.0779266357421875
1772789008505904400,17.987904296875,-0.982330322265625,-0.142181396484375,-0.08123779296875
1772789008525937400,18.0079375,-0.9722747802734375,-0.1430816650390625,-0.090087890625
1772789008545970400,18.027970458984374,-0.9766082763671875,-0.139251708984375,-0.0833587646484375
1772789008566003200,18.048003173828125,-0.9900970458984375,-0.142364501953125,-0.078216552734375
1772789008586035500,18.068035400390624,-0.993621826171875,-0.1435089111328125,-0.0770263671875
1772789008606068500,18.088068359375,-0.98760986328125,-0.143524169921875,-0.071563720703125
1772789008626101500,18.1081015625,-0.9903564453125,-0.1391448974609375,-0.091278076171875
1772789008646134300,18.12813427734375,-0.98907470703125,-0.139404296875,-0.097442626953125
1772789008666166300,18.148166259765624,-0.9998779296875,-0.132598876953125,-0.076507568359375
1772789008686199600,18.168199462890627,-1.001068115234375,-0.13092041015625,-0.0710601806640625
1772789008706232300,18.188232421875,-0.993499755859375,-0.131744384765625,-0.0843963623046875
1772789008726265300,18.208265380859373,-0.9681549072265625,-0.1352691650390625,-0.0917510986328125
1772789008746297300,18.22829736328125,-0.963043212890625,-0.134490966796875,-0.074859619140625
1772789008766330400,18.248330322265623,-0.9759674072265625,-0.131134033203125,-0.0780181884765625
1772789008786363400,18.26836328125,-0.9706573486328125,-0.1295318603515625,-0.0873260498046875
1772789008806396400,18.288396484375,-0.971771240234375,-0.1320343017578125,-0.0832977294921875
1772789008826428400,18.308428466796876,-0.9694366455078125,-0.1285858154296875,-0.0895538330078125
1772789008846461200,18.328461181640623,-0.9648284912109375,-0.1284332275390625,-0.0911712646484375
1772789008866494500,18.348494384765626,-0.9671173095703125,-0.1298370361328125,-0.0976409912109375
1772789008886527200,18.36852734375,-0.9939727783203125,-0.1305694580078125,-0.10198974609375
1772789008906559500,18.3885595703125,-1.01995849609375,-0.1331329345703125,-0.097076416015625
1772789008926592300,18.40859228515625,-1.014862060546875,-0.13055419921875,-0.0880279541015625
1772789008946625500,18.42862548828125,-0.9973907470703125,-0.1308135986328125,-0.081878662109375
1772789008966657300,18.4486572265625,-1.0034027099609375,-0.12347412109375,-0.09088134765625
1772789008986690600,18.468690673828124,-1.01611328125,-0.12469482421875,-0.0831146240234375
1772789009006723300,18.488723388671875,-1.022705078125,-0.1200103759765625,-0.0855712890625
1772789009026756600,18.508756591796875,-1.018463134765625,-0.115875244140625,-0.088623046875
1772789009046788400,18.528788330078125,-0.9951629638671875,-0.1176300048828125,-0.094696044921875
1772789009066821400,18.5488212890625,-0.9857940673828125,-0.121795654296875,-0.0971221923828125
1772789009086854400,18.5688544921875,-0.994873046875,-0.1207733154296875,-0.11395263671875
1772789009106887700,18.5888876953125,-0.9876708984375,-0.123504638671875,-0.1277008056640625
1772789009126919400,18.60891943359375,-0.9872283935546875,-0.130157470703125,-0.1114044189453125
1772789009146952700,18.62895263671875,-0.99761962890625,-0.1294403076171875,-0.0887451171875
1772789009166985500,18.6489853515625,-1.007110595703125,-0.1256866455078125,-0.0853424072265625
1772789009187018800,18.669018798828127,-1.00225830078125,-0.1240081787109375,-0.085235595703125
1772789009207050500,18.689050537109374,-0.986724853515625,-0.12933349609375,-0.0788421630859375
1772789009227083500,18.70908349609375,-0.9755859375,-0.139678955078125,-0.079437255859375
1772789009247116500,18.729116455078124,-0.985809326171875,-0.1422576904296875,-0.086700439453125
1772789009267149600,18.749149658203127,-0.9809417724609375,-0.1438751220703125,-0.0923614501953125
1772789009287181600,18.769181640625,-0.9685211181640625,-0.14459228515625,-0.0962982177734375
1772789009307214600,18.789214599609377,-0.9640045166015625,-0.1498870849609375,-0.10186767578125
1772789009327247600,18.80924755859375,-0.9615020751953125,-0.15093994140625,-0.0933685302734375
1772789009347280400,18.8292802734375,-0.967987060546875,-0.1505584716796875,-0.1013336181640625
1772789009367312400,18.8493125,-0.9660186767578125,-0.1476287841796875,-0.1163787841796875
1772789009387345700,18.869345703125,-0.973175048828125,-0.1471405029296875,-0.1212310791015625
1772789009407378400,18.88937841796875,-0.974517822265625,-0.1455078125,-0.1168365478515625
1772789009427411500,18.909411376953123,-0.974212646484375,-0.14117431640625,-0.1199798583984375
1772789009447443500,18.929443359375,-0.9720916748046875,-0.1434326171875,-0.1241455078125
1772789009467476500,18.9494765625,-0.9673309326171875,-0.143768310546875,-0.1234893798828125
1772789009487509500,18.969509521484376,-0.967254638671875,-0.1451873779296875,-0.12066650390625
1772789009507542500,18.98954248046875,-0.973297119140625,-0.1476593017578125,-0.12091064453125
1772789009527574500,19.009574462890626,-0.987762451171875,-0.146087646484375,-0.1164703369140625
1772789009547607300,19.029607177734373,-0.985137939453125,-0.1440582275390625,-0.115325927734375
1772789009567640600,19.049640625,-0.985992431640625,-0.1358489990234375,-0.1089630126953125
1772789009587672600,19.069672607421875,-1.001556396484375,-0.135589599609375,-0.11676025390625
1772789009607705600,19.08970556640625,-1.0026397705078125,-0.13275146484375,-0.1233367919921875
1772789009627738400,19.10973828125,-0.9913787841796875,-0.1310577392578125,-0.1146087646484375
1772789009647771600,19.129771728515625,-0.996002197265625,-0.1280059814453125,-0.1088409423828125
1772789009667803600,19.1498037109375,-1.0138702392578125,-0.1273193359375,-0.1051788330078125
1772789009687836700,19.169836669921875,-1.010711669921875,-0.127685546875,-0.1021881103515625
1772789009707869400,19.189869384765625,-0.9963531494140625,-0.130401611328125,-0.0980377197265625
1772789009727902500,19.20990234375,-0.9828338623046875,-0.133758544921875,-0.107635498046875
1772789009747934500,19.2299345703125,-0.9756317138671875,-0.1396942138671875,-0.1039276123046875
1772789009767967500,19.249967529296875,-0.96466064453125,-0.1430206298828125,-0.08984375
1772789009788000500,19.27000048828125,-0.982269287109375,-0.145782470703125,-0.09393310546875
1772789009808033500,19.290033447265625,-0.9780120849609375,-0.1475067138671875,-0.1100006103515625
1772789009828065500,19.3100654296875,-0.9609375,-0.146270751953125,-0.1102752685546875
1772789009848098600,19.3300986328125,-0.962158203125,-0.1459197998046875,-0.108001708984375
1772789009868131600,19.350131591796874,-0.976287841796875,-0.144134521484375,-0.109039306640625
1772789009888164600,19.37016455078125,-0.9829254150390625,-0.1416473388671875,-0.1082305908203125
1772789009908196400,19.3901962890625,-0.995391845703125,-0.136810302734375,-0.0991973876953125
1772789009928229600,19.410229736328127,-1.0019989013671875,-0.12890625,-0.1029815673828125
1772789009948262400,19.430262451171874,-1.0016021728515625,-0.1248321533203125,-0.1069183349609375
1772789009968295700,19.450295654296873,-0.9813995361328125,-0.1322479248046875,-0.1022796630859375
1772789009988327400,19.470327392578124,-0.9834442138671875,-0.1347503662109375,-0.09698486328125
1772789010008360700,19.490360595703127,-0.9929656982421875,-0.1340484619140625,-0.1012725830078125
1772789010028393500,19.5103935546875,-0.993896484375,-0.1347198486328125,-0.1043701171875
1772789010048426800,19.5304267578125,-0.9861602783203125,-0.1392822265625,-0.094482421875
1772789010068458500,19.55045849609375,-0.9806365966796875,-0.14312744140625,-0.0930633544921875
1772789010088491500,19.570491455078123,-0.9792327880859375,-0.1407470703125,-0.099456787109375
1772789010108525000,19.590525146484374,-0.9839630126953125,-0.1369171142578125,-0.1013031005859375
1772789010128557800,19.610557861328125,-0.9870758056640625,-0.13568115234375,-0.1014556884765625
1772789010148590000,19.630590087890624,-0.99322509765625,-0.134124755859375,-0.0940399169921875
1772789010168622800,19.650622802734375,-0.9993133544921875,-0.1318817138671875,-0.094818115234375
1772789010188656000,19.67065625,-0.9884796142578125,-0.1317138671875,-0.0979461669921875
1772789010208689000,19.69068896484375,-0.97662353515625,-0.13372802734375,-0.102081298828125
1772789010228721000,19.710720947265624,-0.9874420166015625,-0.1371002197265625,-0.1020355224609375
1772789010248754000,19.73075390625,-1.001739501953125,-0.135528564453125,-0.0992584228515625
1772789010268787000,19.750786865234375,-0.99859619140625,-0.13653564453125,-0.0966033935546875
1772789010288820000,19.770820068359374,-0.9729461669921875,-0.136962890625,-0.10174560546875
1772789010308852000,19.79085205078125,-0.9543609619140625,-0.13641357421875,-0.0946197509765625
1772789010328885000,19.810885009765624,-0.986785888671875,-0.136474609375,-0.099609375
1772789010348918000,19.83091796875,-1.0023193359375,-0.133148193359375,-0.0983123779296875
1772789010368951000,19.850950927734374,-1.0009765625,-0.130340576171875,-0.0921783447265625
1772789010388983000,19.870983154296876,-0.993499755859375,-0.1305084228515625,-0.0926055908203125
1772789010409015800,19.891015869140624,-0.9809112548828125,-0.1313323974609375,-0.0999603271484375
1772789010429049000,19.911049072265627,-0.9778594970703125,-0.133880615234375,-0.096588134765625
1772789010449081900,19.931081787109374,-0.9955291748046875,-0.13604736328125,-0.08880615234375
1772789010469114000,19.951114013671877,-1.0060882568359375,-0.1366424560546875,-0.0953826904296875
1772789010489147000,19.97114697265625,-0.988494873046875,-0.1360015869140625,-0.099853515625
1772789010509180200,19.99118017578125,-0.972198486328125,-0.135162353515625,-0.0870208740234375
1772789010529212000,20.0112119140625,-0.9917755126953125,-0.135467529296875,-0.09197998046875
1772789010549244000,20.031243896484376,-1.0062103271484375,-0.133697509765625,-0.0995635986328125
1772789010569277000,20.05127685546875,-0.9873046875,-0.131988525390625,-0.095550537109375
1772789010589310000,20.07131005859375,-0.9816741943359375,-0.1365203857421875,-0.0911102294921875
1772789010609343000,20.091343017578126,-0.9805450439453125,-0.142425537109375,-0.1048126220703125
1772789010629375000,20.111375,-0.981903076171875,-0.1374359130859375,-0.10595703125
1772789010649408000,20.131407958984376,-0.98785400390625,-0.1419830322265625,-0.0995330810546875
1772789010669441000,20.15144091796875,-0.978271484375,-0.1418914794921875,-0.09271240234375
1772789010689473000,20.17147314453125,-0.9713134765625,-0.1387939453125,-0.10406494140625
1772789010709506000,20.191506103515625,-0.98046875,-0.138580322265625,-0.1159210205078125
1772789010729538800,20.211538818359376,-0.989990234375,-0.13323974609375,-0.105743408203125
1772789010749572000,20.231572021484375,-0.99432373046875,-0.1351470947265625,-0.0977020263671875
1772789010769603800,20.251603759765626,-0.9868927001953125,-0.1332855224609375,-0.093414306640625
1772789010789637000,20.27163720703125,-0.9909210205078125,-0.1369171142578125,-0.096710205078125
1772789010809670000,20.291669921875,-0.999267578125,-0.138916015625,-0.0932464599609375
1772789010829703200,20.311703125,-0.9958038330078125,-0.141845703125,-0.0973052978515625
1772789010849735000,20.33173486328125,-0.9842529296875,-0.1435394287109375,-0.0895538330078125
1772789010869768000,20.351767822265625,-0.97113037109375,-0.1447296142578125,-0.08984375
1772789010889801000,20.371801025390624,-0.97369384765625,-0.1475372314453125,-0.0919189453125
1772789010909834000,20.391833984375,-0.9886474609375,-0.1489715576171875,-0.094085693359375
1772789010929866000,20.411865966796874,-0.9938201904296875,-0.1439208984375,-0.0984649658203125
1772789010949900000,20.431900146484374,-0.978515625,-0.1398468017578125,-0.094268798828125
1772789010969933000,20.45193310546875,-0.9749298095703125,-0.137725830078125,-0.094451904296875
1772789010989965800,20.4719658203125,-0.987213134765625,-0.1378631591796875,-0.099822998046875
1772789011009999000,20.4919990234375,-0.99542236328125,-0.1392059326171875,-0.1076202392578125
1772789011030030800,20.51203076171875,-0.9927520751953125,-0.1391754150390625,-0.10662841796875
1772789011050064100,20.532064208984377,-0.9744873046875,-0.1384429931640625,-0.09814453125
1772789011070097000,20.552096923828124,-0.9880218505859375,-0.14117431640625,-0.09075927734375
1772789011090130200,20.572130126953127,-1.006866455078125,-0.1421966552734375,-0.0921478271484375
1772789011110162000,20.592161865234374,-0.9933013916015625,-0.141021728515625,-0.0925445556640625
1772789011130195200,20.6121953125,-0.97589111328125,-0.14453125,-0.0878143310546875
1772789011150228000,20.63222802734375,-0.9805145263671875,-0.1455078125,-0.0924530029296875
1772789011170261200,20.65226123046875,-0.9951019287109375,-0.147613525390625,-0.10003662109375
1772789011190293000,20.67229296875,-0.9923095703125,-0.14935302734375,-0.095916748046875
1772789011210326300,20.692326171875,-0.9844970703125,-0.1454620361328125,-0.0897064208984375
1772789011230359000,20.712359130859376,-0.980621337890625,-0.145355224609375,-0.093048095703125
1772789011250392300,20.732392333984375,-0.9575042724609375,-0.1464996337890625,-0.0916290283203125
1772789011270424000,20.752424072265626,-0.9914093017578125,-0.1463470458984375,-0.0986785888671875
1772789011290457000,20.77245703125,-0.982574462890625,-0.144561767578125,-0.113311767578125
1772789011310490000,20.792489990234376,-0.9810333251953125,-0.1366119384765625,-0.1002960205078125
1772789011330523100,20.812523193359375,-0.9819183349609375,-0.1357574462890625,-0.096160888671875
1772789011350555100,20.83255517578125,-0.9625091552734375,-0.142822265625,-0.12158203125
1772789011370588200,20.852588134765625,-0.9578857421875,-0.1414794921875,-0.140411376953125
1772789011390621200,20.87262109375,-0.992156982421875,-0.1014404296875,-0.1453399658203125
1772789011410654000,20.892654052734375,-0.9812469482421875,-0.0987091064453125,-0.0827789306640625
1772789011430686000,20.91268603515625,-1.0117950439453125,-0.0896759033203125,-0.1209259033203125
1772789011450719200,20.93271923828125,-1.0083465576171875,-0.0532684326171875,-0.1287841796875
1772789011470752000,20.952751953125,-1.04119873046875,-0.080322265625,-0.112060546875
1772789011490785000,20.972784912109375,-1.0659942626953125,-0.0928955078125,-0.1008148193359375
1772789011510817000,20.992817138671874,-1.0313568115234375,-0.0932159423828125,-0.15399169921875
1772789011530850000,21.01285009765625,-1.031219482421875,-0.0841064453125,-0.1743621826171875
1772789011550883000,21.032883056640625,-0.97955322265625,-0.0833740234375,-0.174163818359375
1772789011570916000,21.052916015625,-0.9307708740234375,-0.11822509765625,-0.1379547119140625
1772789011590948000,21.072947998046875,-0.9643402099609375,-0.1205596923828125,-0.1490478515625
1772789011610981000,21.092981201171874,-0.9889678955078125,-0.1277008056640625,-0.1781005859375
1772789011631014100,21.11301416015625,-0.9866180419921875,-0.115264892578125,-0.1992340087890625
1772789011651047200,21.133047119140624,-0.94110107421875,-0.1195831298828125,-0.186431884765625
1772789011671079200,21.1530791015625,-0.96075439453125,-0.12158203125,-0.1433868408203125
1772789011691112000,21.17311181640625,-0.9676971435546875,-0.1352386474609375,-0.1557769775390625
1772789011711145200,21.193145263671877,-0.944427490234375,-0.118988037109375,-0.18646240234375
1772789011731178000,21.213177978515624,-0.9433441162109375,-0.14129638671875,-0.1621246337890625
1772789011751210200,21.233210205078127,-0.9560546875,-0.124725341796875,-0.1307525634765625
1772789011771243000,21.253242919921874,-0.9989776611328125,-0.1169891357421875,-0.1144866943359375
1772789011791276300,21.2732763671875,-1.0016937255859375,-0.12835693359375,-0.111663818359375
1772789011811309000,21.29330908203125,-1.008087158203125,-0.1412506103515625,-0.1228790283203125
1772789011831342300,21.31334228515625,-0.9763336181640625,-0.127685546875,-0.127410888671875
1772789011851374000,21.3333740234375,-0.965911865234375,-0.1480865478515625,-0.1068878173828125
1772789011871407000,21.353406982421873,-0.9704132080078125,-0.146575927734375,-0.0967559814453125
1772789011891440000,21.373440185546876,-1.0108642578125,-0.14007568359375,-0.1202850341796875
1772789011911473200,21.39347314453125,-1.0008544921875,-0.1561737060546875,-0.1227569580078125
1772789011931505200,21.413505126953126,-0.9619293212890625,-0.1510467529296875,-0.10028076171875
1772789011951538200,21.4335380859375,-0.9669189453125,-0.126678466796875,-0.1135711669921875
1772789011971571200,21.4535712890625,-1.0103302001953125,-0.1392974853515625,-0.134765625
1772789011991604000,21.47360400390625,-1.000244140625,-0.138214111328125,-0.1302947998046875
1772789012011636000,21.493635986328126,-0.98345947265625,-0.134765625,-0.1119537353515625
1772789012031669200,21.513669189453125,-0.9958953857421875,-0.13897705078125,-0.1305084228515625
1772789012051702000,21.533701904296876,-0.9686431884765625,-0.1305389404296875,-0.142974853515625
1772789012071735000,21.553735107421875,-0.953125,-0.1428070068359375,-0.139251708984375
1772789012091767000,21.57376708984375,-0.9939422607421875,-0.10467529296875,-0.1493682861328125
1772789012111799800,21.5937998046875,-1.0207366943359375,-0.104583740234375,-0.157073974609375
1772789012131832800,21.613832763671876,-1.0058135986328125,-0.1393585205078125,-0.1574554443359375
1772789012151865600,21.633865478515624,-0.960784912109375,-0.1209869384765625,-0.1596221923828125
1772789012171897600,21.653897705078126,-0.9490509033203125,-0.119659423828125,-0.156219482421875
1772789012191931000,21.673930908203126,-0.9659576416015625,-0.1381683349609375,-0.1886138916015625
1772789012211963600,21.693963623046876,-0.98699951171875,-0.127593994140625,-0.1773834228515625
1772789012231996700,21.71399658203125,-0.99517822265625,-0.1271820068359375,-0.170623779296875
1772789012252028700,21.734028564453126,-0.9668121337890625,-0.1297149658203125,-0.187774658203125
1772789012272062000,21.75406201171875,-0.9617767333984375,-0.13818359375,-0.1906890869140625
1772789012292094700,21.7740947265625,-0.9927978515625,-0.1505584716796875,-0.185150146484375
1772789012312127700,21.794127685546876,-0.9629974365234375,-0.1463165283203125,-0.169647216796875
1772789012332159700,21.81415966796875,-0.9469451904296875,-0.145538330078125,-0.1728363037109375
1772789012352192800,21.83419287109375,-0.9702911376953125,-0.151031494140625,-0.1819000244140625
1772789012372225800,21.854225830078125,-0.9975738525390625,-0.141204833984375,-0.18634033203125
1772789012392258600,21.874258544921876,-0.985809326171875,-0.146942138671875,-0.1965179443359375
1772789012412290800,21.894290771484375,-0.9736175537109375,-0.15301513671875,-0.1986236572265625
1772789012432323600,21.914323486328126,-0.9488525390625,-0.1447296142578125,-0.1738433837890625
1772789012452356900,21.93435693359375,-0.93865966796875,-0.15325927734375,-0.1718292236328125
1772789012472389600,21.9543896484375,-0.9342803955078125,-0.1670074462890625,-0.1645050048828125
1772789012492421600,21.974421630859375,-0.9646148681640625,-0.1802978515625,-0.160919189453125
1772789012512454700,21.99445458984375,-0.960784912109375,-0.1819000244140625,-0.169097900390625
1772789012532487700,22.01448779296875,-0.95654296875,-0.171539306640625,-0.175018310546875
1772789012552520700,22.034520751953124,-0.9517669677734375,-0.1631622314453125,-0.179656982421875
1772789012572552700,22.054552734375,-0.97247314453125,-0.155059814453125,-0.1840057373046875
1772789012592585700,22.074585693359374,-0.9823150634765625,-0.1542510986328125,-0.18719482421875
1772789012612618800,22.09461865234375,-0.9866485595703125,-0.1416473388671875,-0.184326171875
1772789012632651800,22.11465185546875,-0.97454833984375,-0.1391143798828125,-0.179412841796875
1772789012652683800,22.134683837890623,-0.978179931640625,-0.1360321044921875,-0.1779937744140625
1772789012672716800,22.154716796875,-0.9891204833984375,-0.135345458984375,-0.1781158447265625
1772789012692749800,22.174749755859374,-0.9765777587890625,-0.1402740478515625,-0.190093994140625
1772789012712782600,22.194782470703124,-0.9712677001953125,-0.1527862548828125,-0.1785888671875
1772789012732815600,22.214815673828124,-0.9881744384765625,-0.15655517578125,-0.16802978515625
1772789012752847600,22.23484765625,-0.9937744140625,-0.1522979736328125,-0.1766815185546875
1772789012772881000,22.254880859375,-0.969329833984375,-0.1683197021484375,-0.190643310546875
1772789012792913700,22.27491357421875,-0.94378662109375,-0.20123291015625,-0.17291259765625
1772789012812946700,22.29494677734375,-0.939971923828125,-0.1808013916015625,-0.14459228515625
1772789012832978700,22.314978759765626,-0.9876861572265625,-0.1842041015625,-0.1595306396484375
1772789012853012000,22.335011962890626,-0.9984283447265625,-0.2048492431640625,-0.156158447265625
1772789012873044700,22.355044677734377,-0.9610443115234375,-0.1971282958984375,-0.146240234375
1772789012893077800,22.375077880859376,-0.938995361328125,-0.2114105224609375,-0.13232421875
1772789012913109800,22.39510986328125,-0.896240234375,-0.21563720703125,-0.0877685546875
1772789012933142800,22.415142822265626,-0.9410400390625,-0.2071380615234375,-0.1102752685546875
1772789012953175800,22.43517578125,-0.997344970703125,-0.20037841796875,-0.1268463134765625
1772789012973208600,22.45520849609375,-1.0341949462890625,-0.182281494140625,-0.144744873046875
1772789012993240800,22.47524072265625,-1.027923583984375,-0.1681976318359375,-0.1361541748046875
1772789013013273600,22.495273681640626,-0.9864959716796875,-0.169342041015625,-0.1282958984375
1772789013033307000,22.515306884765625,-0.98675537109375,-0.1718902587890625,-0.1253662109375
1772789013053339600,22.535339599609376,-1.0085601806640625,-0.17620849609375,-0.1299896240234375
1772789013073371600,22.55537158203125,-1.0008392333984375,-0.1900787353515625,-0.124176025390625
1772789013093404700,22.57540478515625,-0.9649200439453125,-0.198211669921875,-0.1078948974609375
1772789013113437700,22.595437744140625,-0.94244384765625,-0.224700927734375,-0.072723388671875
1772789013133470700,22.615470703125,-0.94476318359375,-0.246124267578125,-0.0471649169921875
1772789013153502700,22.635502685546875,-0.9238739013671875,-0.228668212890625,-0.02001953125
1772789013173535700,22.65553564453125,-0.9324493408203125,-0.233856201171875,-0.0251007080078125
1772789013193568800,22.67556884765625,-0.9540252685546875,-0.2328643798828125,-0.0349578857421875
1772789013213601800,22.695601806640624,-0.9955596923828125,-0.2256011962890625,-0.0318145751953125
1772789013233634800,22.715634765625,-1.0052490234375,-0.2199554443359375,-0.032806396484375
1772789013253666600,22.73566650390625,-0.9862518310546875,-0.2169342041015625,-0.0296173095703125
1772789013273699800,22.755699951171874,-0.9741363525390625,-0.2095184326171875,-0.0493621826171875
1772789013293732600,22.775732666015625,-0.9937896728515625,-0.204132080078125,-0.04156494140625
1772789013313766000,22.795765869140624,-0.984222412109375,-0.2087554931640625,-0.0505523681640625
1772789013333797600,22.815797607421874,-0.9631805419921875,-0.2075042724609375,-0.0720977783203125
1772789013353831000,22.835830810546874,-0.9690093994140625,-0.2003631591796875,-0.079437255859375
1772789013373863700,22.85586376953125,-0.9970855712890625,-0.2036590576171875,-0.0818939208984375
1772789013393896700,22.875896728515624,-1.006439208984375,-0.1986541748046875,-0.0992279052734375
1772789013413928700,22.8959287109375,-0.9817657470703125,-0.1996612548828125,-0.0801544189453125
1772789013433961700,22.915961669921874,-0.9525909423828125,-0.1902313232421875,-0.08251953125
1772789013453994800,22.935994873046877,-0.9857940673828125,-0.181427001953125,-0.0727996826171875
1772789013474027500,22.956027587890624,-1.004730224609375,-0.1952056884765625,-0.09881591796875
1772789013494059800,22.976059814453127,-0.9982147216796875,-0.1888427734375,-0.076873779296875
1772789013514092800,22.9960927734375,-1.00628662109375,-0.201873779296875,-0.0776824951171875
1772789013534125800,23.016125732421877,-0.9875640869140625,-0.202545166015625,-0.0554046630859375
1772789013554158600,23.03615869140625,-0.949859619140625,-0.2088470458984375,-0.049072265625
1772789013574190800,23.05619091796875,-0.958221435546875,-0.232391357421875,-0.0617218017578125
1772789013594223600,23.0762236328125,-0.9625701904296875,-0.21905517578125,-0.0573272705078125
1772789013614257000,23.0962568359375,-0.9778900146484375,-0.22576904296875,-0.0539703369140625
1772789013634289700,23.11628955078125,-0.96636962890625,-0.2323150634765625,-0.0396270751953125
1772789013654321700,23.13632177734375,-0.95660400390625,-0.2220458984375,-0.0316925048828125
1772789013674354700,23.156354736328126,-0.97283935546875,-0.2193145751953125,-0.0655059814453125
1772789013694387700,23.1763876953125,-0.99713134765625,-0.2151031494140625,-0.088104248046875
1772789013714420700,23.196420654296876,-1.002532958984375,-0.2197418212890625,-0.078033447265625
1772789013734453800,23.216453857421875,-0.9752349853515625,-0.21844482421875,-0.06353759765625
1772789013754485800,23.23648583984375,-0.96246337890625,-0.2146148681640625,-0.0598602294921875
1772789013774518800,23.256518798828125,-0.9620819091796875,-0.212615966796875,-0.078155517578125
1772789013794551800,23.2765517578125,-0.9589996337890625,-0.2167205810546875,-0.0930328369140625
1772789013814584800,23.296584716796875,-0.9996795654296875,-0.2137603759765625,-0.0984039306640625
1772789013834616600,23.316616455078126,-1.0149383544921875,-0.20867919921875,-0.10552978515625
1772789013854649900,23.33664990234375,-0.990509033203125,-0.209869384765625,-0.0969390869140625
1772789013874682600,23.3566826171875,-0.9432220458984375,-0.21685791015625,-0.068511962890625
1772789013894716000,23.3767158203125,-0.937774658203125,-0.2137908935546875,-0.0716552734375
1772789013914747600,23.39674755859375,-0.967437744140625,-0.2159576416015625,-0.083648681640625
1772789013934781000,23.416781005859374,-0.988555908203125,-0.2129364013671875,-0.0845794677734375
1772789013954813700,23.436813720703125,-1.0016632080078125,-0.2236328125,-0.0807342529296875
1772789013974846700,23.4568466796875,-0.9724884033203125,-0.2148590087890625,-0.0779266357421875
1772789013994878700,23.476878662109375,-0.9570159912109375,-0.206939697265625,-0.0743255615234375
1772789014014911700,23.496911865234374,-0.9682769775390625,-0.223236083984375,-0.0730438232421875
1772789014034944800,23.51694482421875,-0.9752349853515625,-0.2243499755859375,-0.0667572021484375
1772789014054977500,23.5369775390625,-0.9842071533203125,-0.225555419921875,-0.0554656982421875
1772789014075009800,23.557009765625,-1.0031585693359375,-0.2245025634765625,-0.042327880859375
1772789014095042800,23.577042724609374,-0.9876861572265625,-0.2243804931640625,-0.038909912109375
1772789014115076400,23.597076416015625,-0.970703125,-0.2216033935546875,-0.0472259521484375
1772789014135109000,23.617109130859376,-0.97430419921875,-0.228515625,-0.0589599609375
1772789014155141400,23.637141357421875,-0.970794677734375,-0.2325592041015625,-0.0575408935546875
1772789014175174100,23.657174072265626,-0.964508056640625,-0.240509033203125,-0.0454254150390625
1772789014195207400,23.67720751953125,-0.9171905517578125,-0.2409210205078125,-0.033294677734375
1772789014215240200,23.697240234375,-0.8909149169921875,-0.2489776611328125,-0.0223236083984375
1772789014235272200,23.717272216796875,-0.9271392822265625,-0.2358551025390625,-0.0190582275390625
1772789014255305200,23.73730517578125,-0.9712066650390625,-0.2367706298828125,-0.0460968017578125
1772789014275338200,23.757338134765625,-0.9886627197265625,-0.224761962890625,-0.0506591796875
1772789014295371300,23.777371337890624,-0.9888763427734375,-0.212066650390625,-0.045654296875
1772789014315404300,23.797404296875,-0.97698974609375,-0.20068359375,-0.0474700927734375
1772789014335436300,23.817436279296874,-0.9920196533203125,-0.1949920654296875,-0.0426788330078125
1772789014355469300,23.83746923828125,-1.02435302734375,-0.183868408203125,-0.046173095703125
1772789014375502300,23.85750244140625,-1.044036865234375,-0.175689697265625,-0.06787109375
1772789014395535000,23.87753515625,-1.027587890625,-0.170379638671875,-0.066680908203125
1772789014415567000,23.897567138671874,-0.9765472412109375,-0.1611175537109375,-0.0539703369140625
1772789014435600400,23.917600341796874,-0.9635162353515625,-0.160614013671875,-0.0495147705078125
1772789014455633200,23.937633056640625,-1.0089569091796875,-0.167572021484375,-0.06781005859375
1772789014475666200,23.957666259765624,-1.019317626953125,-0.1748199462890625,-0.078857421875
1772789014495698200,23.9776982421875,-0.9800262451171875,-0.1763916015625,-0.077728271484375
1772789014515731500,23.9977314453125,-0.9630279541015625,-0.1739349365234375,-0.064208984375
1772789014535764200,24.01776416015625,-0.9622955322265625,-0.177734375,-0.0648193359375
1772789014555797200,24.03779736328125,-0.9837799072265625,-0.189849853515625,-0.0644378662109375
1772789014575829200,24.057829345703126,-0.9835205078125,-0.196563720703125,-0.0701904296875
1772789014595862300,24.0778623046875,-0.9632568359375,-0.1929779052734375,-0.0705413818359375
1772789014615895300,24.097895263671877,-0.943206787109375,-0.1880950927734375,-0.0623779296875
1772789014635928000,24.117927978515624,-0.957489013671875,-0.19085693359375,-0.0452880859375
1772789014655960300,24.137960205078127,-0.98773193359375,-0.1913299560546875,-0.050048828125
1772789014675993000,24.1579931640625,-0.9949493408203125,-0.1876068115234375,-0.060638427734375
1772789014696026400,24.1780263671875,-0.9889068603515625,-0.181732177734375,-0.0626068115234375
1772789014716059100,24.19805908203125,-0.9763336181640625,-0.1788787841796875,-0.0566864013671875
1772789014736092400,24.218092529296875,-0.9697723388671875,-0.1827392578125,-0.048828125
1772789014756124200,24.238124267578126,-0.99267578125,-0.1803741455078125,-0.05194091796875
1772789014776157200,24.2581572265625,-1.0159454345703125,-0.1806488037109375,-0.058685302734375
1772789014796190200,24.278190185546876,-0.98681640625,-0.1834564208984375,-0.0627288818359375
1772789014816223200,24.29822314453125,-0.9511871337890625,-0.181976318359375,-0.06195068359375
1772789014836255200,24.318255126953126,-0.9818878173828125,-0.1834259033203125,-0.07012939453125
1772789014856288300,24.338288330078125,-0.9986724853515625,-0.1790771484375,-0.073974609375
1772789014876321300,24.3583212890625,-0.9897003173828125,-0.1840667724609375,-0.05517578125
1772789014896354300,24.378354248046875,-0.983306884765625,-0.186126708984375,-0.0522613525390625
1772789014916386000,24.398385986328126,-0.9873504638671875,-0.184783935546875,-0.0682220458984375
1772789014936419300,24.41841943359375,-0.9732513427734375,-0.1813507080078125,-0.0685882568359375
1772789014956452000,24.4384521484375,-0.9717864990234375,-0.1854400634765625,-0.05657958984375
1772789014976485400,24.4584853515625,-0.9789886474609375,-0.188446044921875,-0.04852294921875
1772789014996517000,24.47851708984375,-1.004608154296875,-0.187774658203125,-0.0548095703125
1772789015016550400,24.49855029296875,-0.9911956787109375,-0.183197021484375,-0.0648345947265625
1772789015036583200,24.518583251953125,-0.965087890625,-0.178314208984375,-0.0624847412109375
1772789015056616200,24.5386162109375,-0.92877197265625,-0.186737060546875,-0.041839599609375
1772789015076648200,24.558648193359375,-0.964385986328125,-0.1917724609375,-0.0465545654296875
1772789015096681500,24.578681396484374,-1.001220703125,-0.1896820068359375,-0.0653228759765625
1772789015116713000,24.598712890625,-0.9960479736328125,-0.184967041015625,-0.0826263427734375
1772789015136746200,24.618746337890624,-0.9756317138671875,-0.185211181640625,-0.0783843994140625
1772789015156779000,24.638779052734375,-0.942840576171875,-0.183685302734375,-0.058746337890625
1772789015176811300,24.658811279296874,-0.9695587158203125,-0.184295654296875,-0.0457305908203125
1772789015196844000,24.678843994140625,-1.025970458984375,-0.18463134765625,-0.0667724609375
1772789015216877300,24.698877197265624,-0.9948272705078125,-0.1850128173828125,-0.073455810546875
1772789015236910000,24.71891015625,-0.9490814208984375,-0.18182373046875,-0.0468292236328125
1772789015256942300,24.7389423828125,-0.979644775390625,-0.1817779541015625,-0.04669189453125
1772789015276975000,24.75897509765625,-0.9913330078125,-0.1799163818359375,-0.0598602294921875
1772789015297008000,24.779008056640624,-0.986419677734375,-0.1824951171875,-0.051544189453125
1772789015317041200,24.799041259765627,-0.9808807373046875,-0.184967041015625,-0.0539093017578125
1772789015337073200,24.8190732421875,-0.995330810546875,-0.18548583984375,-0.0504150390625
1772789015357106200,24.839106201171877,-0.9723358154296875,-0.1898651123046875,-0.044677734375
1772789015377139200,24.85913916015625,-0.96563720703125,-0.19091796875,-0.0384063720703125
1772789015397172200,24.879172119140627,-0.9962615966796875,-0.1898956298828125,-0.059844970703125
1772789015417204200,24.899204345703126,-0.9905853271484375,-0.187835693359375,-0.0704803466796875
1772789015437237200,24.9192373046875,-0.9779815673828125,-0.18865966796875,-0.06005859375
1772789015457270300,24.939270263671876,-0.9808349609375,-0.18902587890625,-0.0659332275390625
1772789015477303300,24.95930322265625,-0.988189697265625,-0.1844635009765625,-0.0670318603515625
1772789015497336000,24.979336181640626,-1.0001220703125,-0.17864990234375,-0.07196044921875
1772789015517368000,24.9993681640625,-0.97528076171875,-0.181610107421875,-0.064727783203125
1772789015537401000,25.019401123046876,-0.9766845703125,-0.1842498779296875,-0.0679473876953125
1772789015557434000,25.03943408203125,-0.9665985107421875,-0.190399169921875,-0.0720977783203125
1772789015577467100,25.059467041015626,-0.9697265625,-0.1907501220703125,-0.06158447265625
1772789015597499100,25.0794990234375,-0.9759521484375,-0.1905975341796875,-0.0601043701171875
1772789015617532200,25.0995322265625,-0.9962921142578125,-0.190093994140625,-0.0545806884765625
1772789015637565200,25.119565185546875,-0.9786224365234375,-0.1890716552734375,-0.05474853515625
1772789015657598200,25.13959814453125,-0.970916748046875,-0.1868896484375,-0.0523223876953125
1772789015677630200,25.159630126953125,-0.969329833984375,-0.18597412109375,-0.049285888671875
1772789015697663000,25.1796630859375,-0.985076904296875,-0.18841552734375,-0.0431060791015625
1772789015717696300,25.1996962890625,-1.0068206787109375,-0.1921539306640625,-0.051910400390625
1772789015737729000,25.21972900390625,-1.0053863525390625,-0.1884307861328125,-0.0546875
1772789015757761300,25.23976123046875,-0.9859771728515625,-0.189056396484375,-0.0489044189453125
1772789015777794000,25.2597939453125,-0.968505859375,-0.18804931640625,-0.04449462890625
1772789015797827300,25.279827392578124,-0.9726409912109375,-0.1884765625,-0.04425048828125
1772789015817860000,25.299860107421875,-0.9990692138671875,-0.1861572265625,-0.063720703125
1772789015837892000,25.31989208984375,-0.9842376708984375,-0.191162109375,-0.0639495849609375
1772789015857925000,25.339925048828125,-0.96917724609375,-0.19384765625,-0.05389404296875
1772789015877958100,25.359958251953124,-0.9820098876953125,-0.19842529296875,-0.0442657470703125
1772789015897991200,25.3799912109375,-0.9791259765625,-0.19244384765625,-0.0531158447265625
1772789015918024000,25.40002392578125,-0.9699554443359375,-0.1957244873046875,-0.0531768798828125
1772789015938056200,25.42005615234375,-0.9996185302734375,-0.1936798095703125,-0.0666656494140625
1772789015958089200,25.440089111328124,-0.998809814453125,-0.1881561279296875,-0.07025146484375
1772789015978122200,25.460122314453123,-0.977325439453125,-0.18603515625,-0.05120849609375
1772789015998155000,25.480155029296874,-0.9886016845703125,-0.189208984375,-0.0424957275390625
