time,seconds_elapsed,z,y,x
1772788990576636700,0.05863671875,0.22232840955257416,-0.29811930656433105,-0.40230217576026917
1772788990596669400,0.07866943359375,0.24428243935108185,-0.2609000504016876,-0.4176523685455322
1772788990616702500,0.098702392578125,0.21819332242012024,-0.21213781833648682,-0.40159669518470764
1772788990636734500,0.118734375,0.09781444072723389,-0.22754926979541779,-0.3238888680934906
1772788990656767500,0.138767578125,0.03605041280388832,-0.25331321358680725,-0.28553906083106995
1772788990676800500,0.158800537109375,0.049685265868902206,-0.30766913294792175,-0.18516160547733307
1772788990696832500,0.17883251953125,0.025363679975271225,-0.3792114853858948,-0.04839629307389259
1772788990716865500,0.198865478515625,-0.0051984903402626514,-0.3021651804447174,0.16949795186519623
1772788990736898300,0.218898193359375,0.011491539888083935,-0.09591641277074814,0.3388667404651642
1772788990756930600,0.2389306640625,0.03056696429848671,-0.13327443599700928,0.34721362590789795
1772788990776963600,0.258963623046875,0.023795343935489655,-0.22936022281646729,0.273012638092041
1772788990796996600,0.27899658203125,0.022783342748880386,-0.3525457978248596,0.33015528321266174
1772788990817028600,0.299028564453125,-0.01763465441763401,-0.34145933389663696,0.5028519630432129
1772788990837061400,0.319061279296875,-0.06542987376451492,-0.22501394152641296,0.6029202342033386
1772788990857094400,0.339094482421875,-0.1233309879899025,-0.18258020281791687,0.6038811206817627
1772788990877127400,0.35912744140625,-0.13011059165000916,-0.1685408055782318,0.48657336831092834
1772788990897159700,0.37915966796875,-0.09035040438175201,-0.1025836318731308,0.35504063963890076
1772788990917192400,0.3991923828125,-0.0178770013153553,-0.15568625926971436,0.03650874271988869
1772788990937225500,0.4192255859375,-0.03317286819219589,-0.3514493703842163,-0.2112288922071457
1772788990957257500,0.439257568359375,-0.08829843997955322,-0.4508843421936035,-0.17452652752399445
1772788990977290500,0.45929052734375,-0.05236706882715225,-0.29477331042289734,-0.04192241653800011
1772788990997323500,0.479323486328125,0.03997324779629707,-0.09685943275690079,0.04092692583799362
1772788991017355500,0.49935546875,0.17095230519771576,-0.08882467448711395,-0.15163639187812805
1772788991037388500,0.519388427734375,0.23636725544929504,-0.19064956903457642,-0.28620460629463196
1772788991057421600,0.539421630859375,0.17369775474071503,-0.1349138766527176,-0.06227269396185875
1772788991077453300,0.559453369140625,0.15239380300045013,0.026557041332125664,0.12853826582431793
1772788991097486600,0.579486572265625,0.14509513974189758,0.16212952136993408,-0.022041119635105133
1772788991117519400,0.599519287109375,0.054541539400815964,0.31026172637939453,-0.31500935554504395
1772788991137552400,0.619552490234375,0.12275974452495575,0.13829635083675385,-0.2277844250202179
1772788991157584400,0.63958447265625,0.22817005217075348,-0.1220095306634903,0.3115517497062683
1772788991177617700,0.65961767578125,0.35283902287483215,0.054731421172618866,0.5235095620155334
1772788991197650400,0.679650390625,0.47355106472969055,0.1211373433470726,0.2435290366411209
1772788991217682700,0.6996826171875,0.3882289528846741,-0.23356960713863373,-0.1317838579416275
1772788991237715500,0.719715576171875,0.23726847767829895,-0.4209378957748413,-0.2829912304878235
1772788991257748500,0.73974853515625,0.25660941004753113,-0.26248568296432495,-0.20703333616256714
1772788991277780500,0.759780517578125,0.2502628266811371,-0.05998184531927109,0.008185758255422115
1772788991297813500,0.7798134765625,0.2780401408672333,0.17291824519634247,0.21569180488586426
1772788991317846500,0.799846435546875,0.32813820242881775,0.37852972745895386,0.3014589250087738
1772788991337878500,0.81987841796875,0.39891648292541504,0.26128140091896057,0.23838301002979279
1772788991357911600,0.83991162109375,0.44065621495246887,-0.10559993237257004,0.037457626312971115
1772788991377944600,0.859944580078125,0.49715784192085266,-0.20471452176570892,-0.06352997571229935
1772788991397976300,0.879976318359375,0.549548327922821,0.006690925918519497,-0.1401728242635727
1772788991418009600,0.900009521484375,0.6544166803359985,0.0807206779718399,-0.25612685084342957
1772788991438042400,0.92004248046875,0.7421185970306396,-0.20773747563362122,0.028920065611600876
1772788991458075600,0.94007568359375,0.6480171084403992,-0.2992554008960724,0.09525913745164871
1772788991478107400,0.960107421875,0.5568097233772278,-0.1301172524690628,-0.23525965213775635
1772788991498140700,0.980140625,0.5241686701774597,-0.1522742211818695,-0.49702414870262146
1772788991518173400,1.00017333984375,0.4284842312335968,-0.12711215019226074,-0.5947350263595581
1772788991538205400,1.020205322265625,0.4003399610519409,-0.07031650841236115,-0.34236079454421997
1772788991558238500,1.040238525390625,0.4762254059314728,-0.05867529660463333,0.11087458580732346
1772788991578271500,1.060271484375,0.5291038155555725,-0.024705613031983376,0.31682881712913513
1772788991598303500,1.080303466796875,0.5307824015617371,0.01625593565404415,0.12371954321861267
1772788991618336500,1.10033642578125,0.4752996861934662,-0.1606525331735611,-0.17376141250133514
1772788991638369500,1.12036962890625,0.3873724937438965,-0.2641323208808899,-0.11470607668161392
1772788991658401500,1.140401611328125,0.3591312766075134,-0.38823002576828003,0.5190740823745728
1772788991678434300,1.160434326171875,0.5331594944000244,0.06863445788621902,0.8516064882278442
1772788991698467600,1.180467529296875,0.7325200438499451,0.45909354090690613,0.6075253486633301
1772788991718499300,1.200499267578125,0.6220837831497192,0.4924427270889282,0.1834435909986496
1772788991738532600,1.22053271484375,0.3902377784252167,0.22655192017555237,-0.058637481182813644
1772788991758565400,1.2405654296875,0.2073499858379364,0.062008511275053024,-0.4183141589164734
1772788991778597600,1.26059765625,0.09822137653827667,0.29671263694763184,-0.8512077927589417
1772788991798630400,1.28063037109375,0.04857153072953224,0.36357954144477844,-0.7801831364631653
1772788991818663700,1.30066357421875,0.4708287715911865,-0.5161634683609009,-0.2599024176597595
1772788991838696400,1.320696533203125,0.8493819236755371,-0.5882275700569153,0.567704975605011
1772788991858728400,1.340728515625,0.9696484208106995,0.09123989939689636,0.8657763600349426
1772788991878761500,1.360761474609375,0.8071604371070862,0.49755173921585083,0.5824424028396606
1772788991898794500,1.38079443359375,0.41616126894950867,0.06597688794136047,0.11896073818206787
1772788991918826500,1.400826416015625,0.06612948328256607,-0.5016926527023315,-0.06533107161521912
1772788991938859500,1.420859619140625,-0.024835309013724327,-1.0755032300949097,0.1622922420501709
1772788991958892500,1.440892578125,-0.04866420850157738,-0.3977212607860565,0.395627498626709
1772788991978924500,1.460924560546875,0.04056207463145256,0.5801480412483215,0.47289323806762695
1772788991998957300,1.480957275390625,0.03706188127398491,0.605131983757019,0.3778303861618042
1772788992018990600,1.500990478515625,-0.07194583117961884,0.03882382810115814,-0.009579123929142952
1772788992039022300,1.521022216796875,-0.2960771918296814,-0.3610633909702301,0.020850952714681625
1772788992059055600,1.5410556640625,-0.42073312401771545,0.019351327791810036,0.3039303421974182
1772788992079088400,1.56108837890625,-0.47772902250289917,0.8152726888656616,0.1810813695192337
1772788992099121200,1.58112109375,-0.5035355687141418,0.6080329418182373,-0.17411427199840546
1772788992119154200,1.601154296875,-0.5574944019317627,0.38767582178115845,-0.5756372213363647
1772788992139187200,1.621187255859375,-0.5920433402061462,0.36681848764419556,-0.7341605424880981
1772788992159220200,1.64122021484375,-0.5244922637939453,-0.042330145835876465,-0.6667423248291016
1772788992179252200,1.661252197265625,-0.27939915657043457,-0.1479085087776184,-0.3530518114566803
1772788992199285000,1.681284912109375,0.06443171948194504,0.4901912808418274,0.24925749003887177
1772788992219318300,1.701318359375,0.11196328699588776,1.246143102645874,0.5506095886230469
1772788992239350000,1.72135009765625,0.008852347731590271,0.9539610743522644,0.341904878616333
1772788992259383300,1.74138330078125,-0.12396854907274246,0.43881916999816895,-0.12712998688220978
1772788992279416000,1.761416015625,-0.2689145505428314,0.22391937673091888,-0.3011680841445923
1772788992299448000,1.781447998046875,-0.2973121106624603,0.4556354284286499,-0.38086745142936707
1772788992319481000,1.801481201171875,-0.24422678351402283,0.4919915795326233,-0.5377683639526367
1772788992339514000,1.82151416015625,-0.0927048996090889,0.34472036361694336,-0.5510373115539551
1772788992359546000,1.841546142578125,0.07529528439044952,0.19710826873779297,-0.4316198527812958
1772788992379579100,1.8615791015625,0.3562934100627899,0.06802059710025787,-0.20654092729091644
1772788992399612200,1.881612060546875,0.6603177189826965,0.3045079708099365,0.2232794314622879
1772788992419644200,1.90164404296875,0.8294678926467896,0.730888307094574,0.3930511474609375
1772788992439677000,1.921677001953125,0.730588972568512,0.6564132571220398,0.12847328186035156
1772788992459710200,1.941710205078125,0.44731810688972473,-0.022307703271508217,-0.19158461689949036
1772788992479742000,1.961741943359375,0.15609532594680786,-0.62776780128479,-0.3289155662059784
1772788992499775200,1.981775146484375,0.11910615116357803,-0.5238126516342163,-0.18125315010547638
1772788992519808000,2.00180810546875,0.2743718922138214,-0.22499263286590576,0.10085231065750122
1772788992539841300,2.02184130859375,0.3657180666923523,0.07142571359872818,0.24806146323680878
1772788992559873000,2.041873046875,0.279066264629364,-0.11120135337114334,0.15203507244586945
1772788992579906300,2.06190625,0.1739659309387207,-0.29883676767349243,0.09163351356983185
1772788992599939000,2.08193896484375,0.20966161787509918,0.02299080230295658,0.10111143440008163
1772788992619971000,2.10197119140625,0.2890334129333496,0.4626579284667969,0.04927859827876091
1772788992640004000,2.122004150390625,0.3607632517814636,0.22974158823490143,-0.15551023185253143
1772788992660037000,2.142037109375,0.42683547735214233,-0.26165103912353516,-0.4698311388492584
1772788992680069000,2.162069091796875,0.4211738705635071,-0.18472324311733246,-0.45032161474227905
1772788992700102100,2.18210205078125,0.32557356357574463,0.06722484529018402,-0.25897136330604553
1772788992720135200,2.20213525390625,0.187519833445549,-0.1404055804014206,-0.2150622457265854
1772788992740167200,2.222167236328125,0.07895100861787796,-0.12271899729967117,-0.24981756508350372
1772788992760200000,2.242199951171875,0.09379253536462784,0.1079978421330452,-0.22862811386585236
1772788992780233200,2.262233154296875,0.1136956736445427,0.2221294641494751,-0.22630077600479126
1772788992800265000,2.282264892578125,0.08717112243175507,0.08360940963029861,-0.30167996883392334
1772788992820298200,2.30229833984375,0.09624850749969482,-0.09177519381046295,-0.204800546169281
1772788992840331000,2.3223310546875,0.07837283611297607,0.015971776098012924,0.02214391715824604
1772788992860363000,2.342363037109375,-0.005864547099918127,0.1096029281616211,0.2345600426197052
1772788992880396000,2.36239599609375,-0.09045213460922241,-0.04115702211856842,0.26302391290664673
1772788992900429000,2.382428955078125,-0.11732795834541321,-0.15021294355392456,0.2390754371881485
1772788992920461000,2.4024609375,-0.07445266097784042,-0.011093131266534328,0.24699993431568146
1772788992940494000,2.422494140625,-0.026206836104393005,0.11024288088083267,0.26628920435905457
1772788992960527000,2.442527099609375,-0.013806359842419624,0.06966083496809006,0.2671869695186615
1772788992980560100,2.46256005859375,-0.07356822490692139,-0.08779989182949066,0.22746138274669647
1772788993000592100,2.482592041015625,-0.12117516249418259,-0.13069942593574524,0.18274851143360138
1772788993020625200,2.502625244140625,-0.16048555076122284,-0.07001344114542007,0.18462257087230682
1772788993040658000,2.522657958984375,-0.18453362584114075,-0.002773682354018092,0.15121108293533325
1772788993060690200,2.542690185546875,-0.18649211525917053,-0.02063337340950966,0.11134996265172958
1772788993080723000,2.562722900390625,-0.1797039806842804,-0.05203656852245331,0.04969378560781479
1772788993100755500,2.58275537109375,-0.14466983079910278,-0.1641058474779129,0.01720854826271534
1772788993120787500,2.602787353515625,-0.10271971672773361,-0.09192406386137009,0.04226196929812431
1772788993140820500,2.622820556640625,-0.06318216770887375,0.025968749076128006,0.07040412724018097
1772788993160853500,2.642853515625,-0.042147718369960785,0.0546262264251709,0.031739819794893265
1772788993180885500,2.662885498046875,-0.05566432699561119,0.05799033120274544,-0.03435957059264183
1772788993200918500,2.68291845703125,-0.0691622942686081,-0.039499472826719284,-0.05500812456011772
1772788993220951600,2.70295166015625,-0.09927491843700409,-0.05301767960190773,-0.021134579554200172
1772788993240983600,2.722983642578125,-0.056713081896305084,-0.03352999687194824,0.10485024750232697
1772788993261016600,2.7430166015625,0.08410182595252991,0.05492450296878815,0.312394380569458
1772788993281049600,2.763049560546875,0.20859768986701965,0.23057222366333008,0.35691285133361816
1772788993301081300,2.783081298828125,0.21776188910007477,0.15198659896850586,0.23505298793315887
1772788993321114600,2.803114501953125,0.14751090109348297,-0.12393659353256226,0.08479931205511093
1772788993341147400,2.8231474609375,0.04138445854187012,-0.21823672950267792,0.05217798426747322
1772788993361179600,2.8431796875,-0.03434092923998833,-0.14933089911937714,0.062501460313797
1772788993381212400,2.86321240234375,-0.024878451600670815,-0.043950680643320084,0.008028099313378334
1772788993401245700,2.88324560546875,0.00009960222087102011,0.0010604707058519125,-0.04981682449579239
1772788993421278500,2.903278564453125,0.0015582155901938677,-0.0046599991619586945,-0.07755418121814728
1772788993441310500,2.923310546875,0.005106877535581589,-0.04345906153321266,-0.05615248531103134
1772788993461343500,2.943343505859375,-0.01016954705119133,-0.060807958245277405,-0.011109376326203346
1772788993481376500,2.96337646484375,-0.042692337185144424,0.03484293445944786,-0.024627847597002983
1772788993501408500,2.983408447265625,-0.023498933762311935,0.07962825149297714,-0.07136179506778717
1772788993521441500,3.003441650390625,0.03719503805041313,0.0300202164798975,-0.06521948426961899
1772788993541474600,3.023474609375,0.07713233679533005,0.07396477460861206,0.029097698628902435
1772788993561506600,3.043506591796875,0.052147623151540756,0.10854778438806534,0.03645920753479004
1772788993581539300,3.063539306640625,0.03150838986039162,0.0030365362763404846,-0.027643878012895584
1772788993601572600,3.083572509765625,0.01576804369688034,-0.0636088028550148,-0.022335665300488472
1772788993621604400,3.103604248046875,0.030796794220805168,-0.09463409334421158,0.05518735572695732
1772788993641637600,3.1236376953125,0.057980477809906006,-0.06009902432560921,0.12518428266048431
1772788993661670400,3.14367041015625,0.0666394829750061,0.10317804664373398,0.1425025463104248
1772788993681702400,3.163702392578125,0.04542607069015503,0.09252354502677917,0.08003997802734375
1772788993701735400,3.1837353515625,-0.0046570696868002415,-0.11619211733341217,-0.029678000137209892
1772788993721768400,3.2037685546875,-0.007881625555455685,-0.1442170888185501,-0.05282619595527649
1772788993741800400,3.223800537109375,0.023207318037748337,-0.003724963404238224,0.027302727103233337
1772788993761833500,3.24383349609375,0.015960324555635452,-0.020193418487906456,-0.0008796420879662037
1772788993781866500,3.263866455078125,-0.04505269601941109,-0.15756672620773315,-0.11726696789264679
1772788993801898500,3.2838984375,-0.08454364538192749,-0.13921648263931274,-0.09990156441926956
1772788993821931500,3.303931640625,-0.08070763200521469,0.006758303847163916,0.014502243138849735
1772788993841964500,3.323964599609375,-0.044931523501873016,0.06216190755367279,0.02899889461696148
1772788993861997600,3.34399755859375,-0.00851199496537447,0.02527632750570774,0.005116465035825968
1772788993882029600,3.364029541015625,0.0008356999605894089,0.03203117102384567,0.01284575741738081
1772788993902062300,3.384062255859375,0.011984757147729397,0.1097712367773056,0.04518052935600281
1772788993922095600,3.404095703125,0.011920042335987091,0.11167886108160019,0.038167890161275864
1772788993942127400,3.42412744140625,0.009978065267205238,0.04941229149699211,0.003881557146087289
1772788993962160600,3.44416064453125,0.022777484729886055,0.005301288329064846,-0.013163206167519093
1772788993982193400,3.464193359375,0.0507715679705143,-0.0020010992884635925,0.014842329546809196
1772788994002225400,3.484225341796875,0.07812809199094772,-0.07100413739681244,0.05421290546655655
1772788994022258400,3.504258544921875,0.11888164281845093,-0.04657868668437004,0.08316493034362793
1772788994042291500,3.52429150390625,0.10486702620983124,-0.07518263161182404,0.08407706022262573
1772788994062323500,3.544323486328125,0.044806886464357376,-0.06342397630214691,0.08046688139438629
1772788994082356500,3.5643564453125,-0.02845960482954979,0.0024919197894632816,0.052018992602825165
1772788994102389500,3.584389404296875,-0.07058681547641754,-0.012960273772478104,-0.011172759346663952
1772788994122421500,3.60442138671875,-0.0740145742893219,0.0024288028944283724,-0.07204916328191757
1772788994142454500,3.62445458984375,-0.04891667515039444,-0.06161942332983017,-0.08592262864112854
1772788994162487600,3.644487548828125,-0.01888420805335045,0.02624465338885784,-0.0210669357329607
1772788994182519600,3.66451953125,-0.025624936446547508,0.054496798664331436,0.016329703852534294
1772788994202552600,3.684552490234375,-0.009236907586455345,0.032165925949811935,-0.025778867304325104
1772788994222585300,3.70458544921875,-0.002475142013281584,0.05453115329146385,-0.024899223819375038
1772788994242618600,3.72461865234375,-0.002612560987472534,0.0354437455534935,-0.03309989720582962
1772788994262650400,3.744650390625,0.009483249858021736,0.03247911483049393,-0.013395966030657291
1772788994282683600,3.76468359375,-0.011240670457482338,0.04909856989979744,0.06017252802848816
1772788994302716400,3.78471630859375,-0.037938326597213745,0.0398281067609787,0.10642097890377045
1772788994322748400,3.80474853515625,-0.04849376529455185,0.0279136560857296,0.12109020352363586
1772788994342781400,3.824781494140625,-0.03897695988416672,0.052984919399023056,0.11156141757965088
1772788994362814500,3.844814453125,0.008305068127810955,0.06717929989099503,0.09436698257923126
1772788994382846700,3.8648466796875,0.046484678983688354,0.05162617564201355,0.10011275112628937
1772788994402879500,3.88487939453125,0.051787298172712326,0.03412627801299095,0.13371491432189941
1772788994422912500,3.90491259765625,0.052147090435028076,0.023682959377765656,0.15969964861869812
1772788994442944500,3.924944580078125,0.06279893219470978,0.06889677792787552,0.10864418745040894
1772788994462977500,3.9449775390625,0.09639604389667511,0.053090114146471024,0.025119468569755554
1772788994483010600,3.965010498046875,0.13913631439208984,0.08892986923456192,-0.06065402552485466
1772788994503042600,3.98504248046875,0.1492968052625656,-0.00794127956032753,-0.09168437868356705
1772788994523072500,4.005072509765625,0.12936358153820038,-0.03817028924822807,-0.03647146001458168
1772788994543105500,4.02510546875,0.12276746332645416,0.05788513645529747,0.016802947968244553
1772788994563137500,4.045137451171875,0.11661822348833084,0.029947511851787567,-0.013233779929578304
1772788994583170300,4.06517041015625,0.109779492020607,-0.08910404145717621,-0.055987101048231125
1772788994603203600,4.08520361328125,0.11157099902629852,-0.2514213025569916,-0.11220936477184296
1772788994623235600,4.105235595703125,0.14957164227962494,-0.3484725058078766,-0.11462165415287018
1772788994643268600,4.1252685546875,0.19149060547351837,-0.20727142691612244,-0.009280583821237087
1772788994663301400,4.14530126953125,0.15410062670707703,-0.14339950680732727,0.023246467113494873
1772788994683333600,4.165333740234375,0.08554286509752274,-0.1894405037164688,-0.04050055518746376
1772788994703366400,4.185366455078125,0.02304193563759327,-0.10664495080709457,-0.026430275291204453
1772788994723399700,4.205399658203125,-0.023575900122523308,0.04650678113102913,0.0439850352704525
1772788994743431700,4.225431640625,-0.033182986080646515,0.13015267252922058,0.08779855817556381
1772788994763464400,4.24546435546875,-0.04081134498119354,0.08336013555526733,0.03960253670811653
1772788994783497500,4.26549755859375,-0.047386422753334045,0.03309643268585205,-0.0005254416610114276
1772788994803530500,4.285530517578125,-0.056178051978349686,0.03542110696434975,0.016506537795066833
1772788994823562500,4.3055625,-0.038363102823495865,0.003531351685523987,0.03916950523853302
1772788994843595500,4.325595458984375,0.007797469384968281,0.036674655973911285,0.05613357573747635
1772788994863628500,4.345628662109375,0.05498921498656273,0.08290713280439377,0.037220604717731476
1772788994883660500,4.36566064453125,0.06383810192346573,0.06734707951545715,0.015177887864410877
1772788994903693300,4.385693359375,0.024592427536845207,0.03273797407746315,-0.019519638270139694
1772788994923726600,4.4057265625,0.0049100699834525585,0.00049082055920735,-0.04915076866745949
1772788994943758600,4.425758544921875,0.008620119653642178,-0.06565544009208679,-0.04757337644696236
1772788994963791600,4.44579150390625,0.017655692994594574,-0.0927475169301033,0.011485414579510689
1772788994983824400,4.465824462890625,0.04249286651611328,-0.02304273471236229,0.07904235273599625
1772788995003856400,4.4858564453125,0.11469302326440811,0.08898419886827469,0.0722997635602951
1772788995023889700,4.5058896484375,0.17303462326526642,0.07282201200723648,0.02556608058512211
1772788995043922400,4.52592236328125,0.18234291672706604,0.006725014187395573,-0.013822072185575962
1772788995063954700,4.54595458984375,0.153750941157341,-0.0331004299223423,0.0036551884841173887
1772788995083987500,4.565987548828125,0.17713269591331482,0.004238154739141464,0.055753275752067566
1772788995104020500,4.5860205078125,0.29110056161880493,0.13673894107341766,0.11868403851985931
1772788995124053500,4.606053466796875,0.4664340317249298,0.24600736796855927,0.1899544894695282
1772788995144085500,4.62608544921875,0.4491519629955292,0.21072421967983246,0.16671521961688995
1772788995164118300,4.6461181640625,0.27248504757881165,-0.032162196934223175,0.04040122032165527
1772788995184151300,4.6661513671875,0.07606866955757141,-0.10950145870447159,-0.007872303947806358
1772788995204183300,4.686183349609375,-0.026456641033291817,-0.007839281111955643,0.07335544377565384
1772788995224216600,4.706216552734375,-0.00869095977395773,0.07983091473579407,0.12283936887979507
1772788995244249300,4.726249267578125,0.029382921755313873,0.05196945741772652,0.07780345529317856
1772788995264281600,4.746281494140625,0.030225014314055443,0.037224333733320236,0.00046312372433021665
1772788995284314400,4.766314453125,0.004487692844122648,0.029474003240466118,-0.029220469295978546
1772788995304347400,4.786347412109375,-0.010484332218766212,-0.0025590313598513603,-0.0049340385012328625
1772788995324379400,4.80637939453125,0.007531153038144112,0.01287718303501606,0.02256815880537033
1772788995344412400,4.826412353515625,0.008360727690160275,0.06167561560869217,0.0032551817130297422
1772788995364445400,4.846445556640625,-0.015003982931375504,0.08504245430231094,-0.09467963874340057
1772788995384477400,4.8664775390625,-0.047983236610889435,-0.02539190836250782,-0.14667120575904846
1772788995404510500,4.886510498046875,-0.05313911661505699,-0.0569293275475502,-0.10121556371450424
1772788995424543500,4.90654345703125,-0.04078790917992592,0.007710650097578764,-0.03579448163509369
1772788995444576500,4.926576416015625,-0.020978784188628197,0.01480264775454998,-0.021409152075648308
1772788995464608500,4.9466083984375,-0.021556690335273743,0.06024496629834175,-0.03695562109351158
1772788995484641300,4.966641357421875,-0.05711495131254196,0.035176631063222885,-0.03164101764559746
1772788995504674600,4.986674560546875,-0.07878349721431732,0.015005847439169884,-0.03187324479222298
1772788995524706300,5.006706298828125,-0.08545631170272827,0.0378057025372982,-0.015045794658362865
1772788995544739600,5.026739501953125,-0.1035546213388443,0.05197931081056595,-0.011188472621142864
1772788995564772400,5.0467724609375,-0.10144007205963135,0.06180664151906967,-0.031387485563755035
1772788995584804400,5.066804443359375,-0.12056103348731995,0.013392237946391106,-0.033599771559238434
1772788995604837400,5.08683740234375,-0.14637106657028198,-0.02574850618839264,-0.039560724049806595
1772788995624870400,5.106870361328125,-0.13619112968444824,0.010028932243585587,0.007768707349896431
1772788995644902400,5.12690234375,-0.10382919013500214,0.04998486861586571,0.04801253229379654
1772788995664935400,5.146935302734375,-0.054007310420274734,0.03716814145445824,0.0969047099351883
1772788995684968400,5.166968505859375,-0.027999144047498703,0.04565750062465668,0.13770726323127747
1772788995705000400,5.18700048828125,-0.023356720805168152,0.03665947914123535,0.1084740161895752
1772788995725033500,5.207033447265625,-0.01787646859884262,-0.04751984775066376,0.052983853965997696
1772788995745066500,5.22706640625,0.0012157330056652427,-0.05613064765930176,0.05086904019117355
1772788995765099500,5.247099609375,0.03370310366153717,0.020623520016670227,0.07164755463600159
1772788995785131500,5.267131591796875,0.051417384296655655,0.05192738026380539,0.08751200884580612
1772788995805164300,5.287164306640625,0.03340509533882141,-0.028182901442050934,0.03166791424155235
1772788995825197600,5.307197509765625,0.023513581603765488,-0.06744828075170517,-0.013606090098619461
1772788995845229300,5.327229248046875,0.007248325273394585,-0.05233724042773247,0.01672651618719101
1772788995865262600,5.3472626953125,-0.01344683300703764,-0.031857531517744064,0.05151938274502754
1772788995885295400,5.36729541015625,-0.023121830075979233,-0.06284261494874954,0.05559588596224785
1772788995905327400,5.387327392578125,-0.003635481232777238,0.0036131106317043304,0.041122402995824814
1772788995925360400,5.4073603515625,0.004825115203857422,0.01690175198018551,0.030490797013044357
1772788995945393400,5.427393310546875,-0.010803645476698875,-0.013767743483185768,0.03069799207150936
1772788995965425400,5.44742529296875,-0.017956629395484924,0.011842012405395508,0.05158329755067825
1772788995985458400,5.46745849609375,-0.032714538276195526,0.00245090713724494,0.0688839927315712
1772788996005491500,5.487491455078125,-0.019931629300117493,0.004395014606416225,0.04499490559101105
1772788996025523500,5.5075234375,-0.013762683607637882,0.03556039184331894,0.04174797981977463
1772788996045556200,5.52755615234375,0.0001805623178370297,0.04855475202202797,0.02665877528488636
1772788996065589500,5.547589599609375,0.013835121877491474,0.00520674604922533,0.027002057060599327
1772788996085622300,5.567622314453125,0.020361730828881264,-0.0011763182701542974,0.062073756009340286
1772788996105654500,5.587654541015625,0.019894346594810486,0.029383987188339233,0.07426011562347412
1772788996125687300,5.607687255859375,0.041125863790512085,0.016562731936573982,0.061655107885599136
1772788996145720600,5.627720458984375,0.06616144627332687,-0.00036432043998502195,0.03929653763771057
1772788996165752300,5.64775244140625,0.07729851454496384,0.0008604673203080893,0.03954554349184036
1772788996185785300,5.667785400390625,0.07204490154981613,-0.045645780861377716,0.05101391673088074
1772788996205818400,5.687818359375,0.055506136268377304,0.0046578687615692616,0.035592880100011826
1772788996225850400,5.707850341796875,0.045086782425642014,0.08495190739631653,0.015341405756771564
1772788996245883400,5.72788330078125,0.03537343814969063,0.06787944585084915,-0.01679868809878826
1772788996265916400,5.74791650390625,0.014138988219201565,-0.0157651137560606,-0.02238200418651104
1772788996285948200,5.7679482421875,0.02251516282558441,-0.06857559829950333,0.0004756405542138964
1772788996305981400,5.7879814453125,0.04035567864775658,-0.013204218819737434,0.019108179956674576
1772788996326014200,5.80801416015625,0.05863135680556297,0.022289859130978584,0.006385195069015026
1772788996346046500,5.82804638671875,0.06987681984901428,-0.007111439015716314,-0.024891767650842667
1772788996366079200,5.848079345703125,0.05513542518019676,-0.04166169464588165,-0.015054583549499512
1772788996386112500,5.868112548828125,0.034567829221487045,-0.03639529272913933,0.033851172775030136
1772788996406144300,5.888144287109375,0.019710054621100426,-0.0052355085499584675,0.06771379709243774
1772788996426177300,5.90817724609375,0.001757952617481351,-0.030945399776101112,-0.0002300971100339666
1772788996446210300,5.928210205078125,0.019054118543863297,-0.12428173422813416,-0.07196047902107239
1772788996466243300,5.948243408203125,0.012968529015779495,-0.08038804680109024,-0.023983363062143326
1772788996486275300,5.968275390625,-0.010931210592389107,0.0164231825619936,0.03328179195523262
1772788996506308400,5.988308349609375,0.039089079946279526,0.030063094571232796,-0.022658707574009895
1772788996526341400,6.00834130859375,0.07915341109037399,0.015679094940423965,-0.08258195966482162
1772788996546373400,6.028373291015625,0.046240732073783875,0.04054423049092293,-0.054007310420274734
1772788996566406100,6.04840625,-0.01606179028749466,-0.007898669689893723,-0.028173580765724182
1772788996586439400,6.068439453125,-0.03580593317747116,-0.09416298568248749,-0.02316524088382721
1772788996606471400,6.088471435546875,-0.03314383700489998,-0.06647489964962006,-0.007960720919072628
1772788996626504400,6.10850439453125,0.003692206460982561,0.02695971168577671,-0.0033907366450875998
1772788996646537200,6.128537109375,0.019172895699739456,0.0657489225268364,-0.012523781508207321
1772788996666569500,6.148569580078125,-0.01564713567495346,0.045824214816093445,-0.006037386134266853
1772788996686602200,6.168602294921875,-0.0893368050456047,-0.014423946850001812,0.025680329650640488
1772788996706635500,6.188635498046875,-0.15371073782444,-0.07877417653799057,0.008919458836317062
1772788996726668300,6.208668212890625,-0.13349175453186035,-0.02021179534494877,-0.03314943239092827
1772788996746700300,6.2287001953125,-0.038845401257276535,0.0563141405582428,-0.03319869935512543
1772788996766733300,6.2487333984375,0.03045111708343029,0.029210615903139114,0.02682735212147236
1772788996786766300,6.268766357421875,0.0091732582077384,-0.007889348082244396,0.0920841172337532
1772788996806798300,6.28879833984375,-0.016396284103393555,0.012809005565941334,0.07897790521383286
1772788996826831400,6.308831298828125,-0.020379573106765747,-0.010047308169305325,0.004559864290058613
1772788996846864400,6.328864501953125,-0.007976699620485306,-0.030590400099754333,-0.04661836847662926
1772788996866896400,6.348896484375,0.005066930316388607,-0.016942230984568596,-0.035417910665273666
1772788996886929200,6.36892919921875,0.011683554388582706,0.006884537637233734,-0.00990376342087984
1772788996906962400,6.38896240234375,0.02225656993687153,-0.005563876125961542,-0.009500028565526009
1772788996926994400,6.408994384765625,0.02291969768702984,0.0070616379380226135,-0.026918433606624603
1772788996947027500,6.42902734375,0.05186319723725319,0.06875855475664139,-0.06556382775306702
1772788996967060200,6.449060302734375,0.05325416848063469,0.007221427746117115,-0.10422520339488983
1772788996987093500,6.469093505859375,0.0568036288022995,-0.07114847749471664,-0.10454025864601135
1772788997007125500,6.48912548828125,0.05053907260298729,-0.018620822578668594,-0.03585147485136986
1772788997027158300,6.509158203125,0.01733025349676609,0.06371772289276123,0.00029081720276735723
1772788997047191300,6.52919140625,0.010407100431621075,0.0445869080722332,-0.06084470823407173
1772788997067223300,6.549223388671875,0.012811136431992054,0.008609999902546406,-0.09929489344358444
1772788997087256300,6.56925634765625,0.008072840049862862,-0.017830928787589073,-0.03774604573845863
1772788997107290000,6.5892900390625,0.00033209618413820863,-0.015431154519319534,0.03293744474649429
1772788997127321900,6.60932177734375,-0.013769075274467468,0.04689560458064079,0.022099176421761513
1772788997147355100,6.629355224609375,-0.010692059062421322,0.022238193079829216,-0.02346937358379364
1772788997167388000,6.649387939453125,-0.010754909366369247,0.029385318979620934,-0.046310242265462875
1772788997187420000,6.669419921875,0.008598282001912594,-0.011356251314282417,-0.04349128529429436
1772788997207453000,6.689452880859375,0.0036847495939582586,-0.030351780354976654,-0.00634950865060091
1772788997227486000,6.70948583984375,-0.011342402547597885,0.021345235407352448,0.01534859649837017
1772788997247518000,6.72951806640625,-0.010820423252880573,-0.0013491574209183455,-0.0011235876008868217
1772788997267551000,6.749551025390625,0.0026820695493370295,-0.033544376492500305,-0.0291214007884264
1772788997287584000,6.769583984375,-0.008242483250796795,-0.0295546967536211,-0.04123798385262489
1772788997307617000,6.789616943359375,-0.014267885126173496,-0.03605520725250244,-0.012893960811197758
1772788997327648800,6.809648681640625,-0.00839934404939413,-0.06810794770717621,-0.005024585872888565
1772788997347682000,6.82968212890625,0.0008564725867472589,-0.014488661661744118,-0.024227308109402657
1772788997367714800,6.84971484375,0.02841353230178356,0.06028890609741211,-0.039200399070978165
1772788997387747000,6.8697470703125,0.04982934147119522,0.07715657353401184,-0.01082867942750454
1772788997407779800,6.88977978515625,0.054845403879880905,0.07743220776319504,0.044072121381759644
1772788997427813000,6.909813232421875,0.03456410393118858,0.07036151736974716,0.07141213119029999
1772788997447844900,6.929844970703125,0.010612962767481804,0.05922577157616615,0.04412724822759628
1772788997467878100,6.949878173828125,-0.0035747610963881016,0.03771355748176575,0.001876995898783207
1772788997487911000,6.969910888671875,-0.008890696801245213,0.009398561902344227,0.007864580489695072
1772788997507943000,6.98994287109375,-0.00022903185163158923,0.006310093682259321,0.041123732924461365
1772788997527976000,7.009975830078125,0.005432316102087498,-0.02257055602967739,0.07624842971563339
1772788997548009000,7.030009033203125,0.006770288106054068,-0.02027837373316288,0.05876637622714043
1772788997568042000,7.0500419921875,0.014472948387265205,-0.0024429175537079573,0.010542921721935272
1772788997588074000,7.070073974609375,0.017800303176045418,0.014077203348279,-0.008444883860647678
1772788997608107000,7.09010693359375,0.0015646071406081319,0.005882123950868845,0.01338664535433054
1772788997628140000,7.11014013671875,0.00865980051457882,0.006936203222721815,0.022221149876713753
1772788997648171800,7.130171875,0.021267738193273544,0.024296551942825317,0.008053398691117764
1772788997668205000,7.150205078125,0.02701883390545845,0.008988700807094574,-0.02142326720058918
1772788997688237800,7.17023779296875,0.022825952619314194,0.010393252596259117,-0.011087805032730103
1772788997708270000,7.19027001953125,0.026197781786322594,0.08802706003189087,0.01456030085682869
1772788997728302800,7.210302734375,0.03742646798491478,0.11545548588037491,0.016886038705706596
1772788997748336000,7.230336181640625,0.03850691393017769,0.04309234395623207,-0.03123381920158863
1772788997768368000,7.2503681640625,0.031496673822402954,0.012474512681365013,-0.08666858077049255
1772788997788401000,7.27040087890625,0.021733257919549942,0.009039035066962242,-0.09530734270811081
1772788997808434000,7.290433837890625,0.012411396019160748,0.03458194434642792,-0.07083289325237274
1772788997828467000,7.310467041015625,0.031242873519659042,0.08316146582365036,-0.036674655973911285
1772788997848499000,7.3304990234375,0.028232702985405922,0.06381146609783173,-0.002930808812379837
1772788997868532000,7.350531982421875,0.005911685060709715,0.03945952653884888,0.018149975687265396
1772788997888565000,7.37056494140625,-0.012477442622184753,0.0465531200170517,0.030253242701292038
1772788997908597000,7.390596923828125,-0.01768844947218895,0.03858201205730438,0.04057778790593147
1772788997928629800,7.410629638671875,-0.011184743605554104,0.024052871391177177,0.031868450343608856
1772788997948663000,7.4306630859375,0.0025156219489872456,0.038416896015405655,0.021560419350862503
1772788997968695000,7.450695068359375,0.018795792013406754,0.0681723952293396,0.02864096499979496
1772788997988728000,7.47072802734375,0.007889880798757076,0.06727810949087143,0.04723409190773964
1772788998008760800,7.4907607421875,-0.009947173297405243,0.03845924139022827,0.061704907566308975
1772788998028794000,7.510794189453125,0.01224361639469862,0.08067300915718079,0.05430158972740173
1772788998048825900,7.530825927734375,0.06956576555967331,0.15442712604999542,0.0353822261095047
1772788998068859100,7.550859130859375,0.16467709839344025,0.16834187507629395,0.042517367750406265
1772788998088892000,7.570891845703125,0.1666254699230194,0.12688657641410828,0.08378251641988754
1772788998108923400,7.59092333984375,0.05971313267946243,0.05124960467219353,0.03912290185689926
1772788998128956400,7.610956298828125,-0.04110695794224739,0.0025720810517668724,-0.008928247727453709
1772788998148989400,7.630989501953125,-0.04579199105501175,-0.031071899458765984,-0.03883235156536102
1772788998169021400,7.651021484375,0.007804127410054207,0.030366161838173866,-0.036612607538700104
1772788998189054200,7.67105419921875,0.055633168667554855,0.07155514508485794,0.026490995660424232
1772788998209087500,7.69108740234375,0.02087492123246193,0.044011667370796204,0.05206187069416046
1772788998229119200,7.711119140625,-0.029383188113570213,-0.05841910094022751,0.017076721414923668
1772788998249152500,7.731152587890625,-0.030830349773168564,-0.04890069738030434,-0.01326680276542902
1772788998269185300,7.751185302734375,0.005343366414308548,0.020677048712968826,-0.02004534751176834
1772788998289218300,7.77121826171875,0.041551969945430756,0.032812006771564484,0.006959372665733099
1772788998309250300,7.791250244140625,0.023198796436190605,0.005883721634745598,0.02942872792482376
1772788998329283600,7.81128369140625,-0.025226261466741562,-0.030661772936582565,0.040833983570337296
1772788998349316400,7.83131640625,-0.06854017823934555,0.00041438787593506277,0.0244361013174057
1772788998369348400,7.851348388671875,-0.028746426105499268,-0.028746159747242928,-0.04710306227207184
1772788998389381400,7.87138134765625,0.04195250943303108,-0.03482109680771828,-0.02773522399365902
1772788998409414400,7.891414306640625,0.0649595558643341,0.03921850770711899,0.08066528290510178
1772788998429446400,7.9114462890625,0.025558356195688248,0.07467876374721527,0.10499352961778641
1772788998449479400,7.9314794921875,0.01577337086200714,-0.034215494990348816,-0.030771227553486824
1772788998469512400,7.951512451171875,-0.006371346767991781,-0.08689361810684204,-0.0912095382809639
1772788998489545500,7.97154541015625,-0.015428224578499794,-0.001133707701228559,-0.01571717858314514
1772788998509577200,7.9915771484375,-0.006283462047576904,0.03375343605875969,0.059483565390110016
1772788998529610500,8.011610595703125,0.019054651260375977,0.0011587414192035794,0.040053144097328186
1772788998549643300,8.031643310546874,0.0392235703766346,-0.016210129484534264,0.016154201701283455
1772788998569675500,8.051675537109375,0.02485102042555809,-0.008617457002401352,-0.0056799896992743015
1772788998589708300,8.071708251953124,0.034207504242658615,-0.032040491700172424,-0.017893247306346893
1772788998609741600,8.091741455078125,0.020126840099692345,-0.009690976701676846,0.008400674909353256
1772788998629773300,8.111773193359374,-0.0037878139410167933,0.019222430884838104,0.050152115523815155
1772788998649806300,8.131806396484375,-0.009032909758388996,-0.002814162289723754,0.0370781272649765
1772788998669839400,8.15183935546875,0.006158293690532446,-0.023671774193644524,0.0013941648649051785
1772788998689871400,8.171871337890625,0.014898521825671196,0.024771925061941147,-0.0044014062732458115
1772788998709904400,8.191904296875,0.0291200689971447,0.023378027603030205,0.013601030223071575
1772788998729937400,8.2119375,0.010880610905587673,-0.03563123196363449,0.03352813422679901
1772788998749970400,8.231970458984375,-0.010964767076075077,-0.032832782715559006,0.07188297808170319
1772788998770002400,8.25200244140625,-0.016892697662115097,0.009407616220414639,0.06742138415575027
1772788998790035200,8.27203515625,0.0038778288289904594,0.023396935313940048,0.014247911982238293
1772788998810068500,8.292068359375,0.028846828266978264,-0.01864559017121792,-0.023669376969337463
1772788998830100200,8.312100341796874,0.01381062064319849,-0.025231853127479553,-0.011533085256814957
1772788998850133500,8.332133544921875,-0.01793159544467926,-0.00039947417099028826,0.009298160672187805
1772788998870166300,8.352166259765625,-0.031030885875225067,-0.01278663519769907,0.041612956672906876
1772788998890198500,8.372198486328125,-0.021759623661637306,-0.0030370689928531647,0.05853122100234032
1772788998910231300,8.392231201171874,0.0072983927093446255,0.024413730949163437,0.04487825930118561
1772788998930267400,8.412267333984374,0.019268237054347992,0.040831051766872406,0.013379987329244614
1772788998950300400,8.432300537109375,0.0059937103651463985,-0.021274661645293236,-0.01575605943799019
1772788998970332400,8.45233251953125,-0.0005390237784013152,-0.08734103292226791,0.006126602180302143
1772788998990365200,8.472365234375,-0.00003888214996550232,-0.0023968450259417295,0.0702267587184906
1772788999010398500,8.4923984375,0.012011122889816761,0.059783171862363815,0.07916699349880219
1772788999030431200,8.51243115234375,0.02123258449137211,0.01865784078836441,0.021629661321640015
1772788999050463500,8.53246337890625,0.017614146694540977,-0.026325613260269165,-0.01997370831668377
1772788999070496300,8.552496337890625,0.017420003190636635,0.01395602896809578,-0.002011485630646348
1772788999090529500,8.572529541015625,0.0146870668977499,0.03248923271894455,0.033722009509801865
1772788999110561300,8.592561279296875,0.011797004379332066,0.013793043792247772,0.03537849709391594
1772788999130594600,8.612594482421875,0.024039288982748985,0.05132151022553444,0.0499422587454319
1772788999150627300,8.63262744140625,0.0337425172328949,0.0695580393075943,0.06775081902742386
1772788999170659600,8.65265966796875,0.026581009849905968,0.07339298725128174,0.05872083827853203
1772788999190692400,8.6726923828125,0.002284459536895156,0.06151023134589195,0.02383662387728691
1772788999210725600,8.6927255859375,-0.019299928098917007,-0.0076086511835455894,-0.005269863177090883
1772788999230758400,8.71275830078125,-0.014026070013642311,-0.018789133056998253,-0.0015092133544385433
1772788999250790700,8.732790771484375,0.01025556679815054,0.07761622965335846,0.038303181529045105
1772788999270823400,8.752823486328126,0.016100140288472176,0.1193476989865303,0.024382570758461952
1772788999290856700,8.772856689453125,0.02052418328821659,0.010217217728495598,-0.04024063050746918
1772788999310888400,8.792888427734376,0.009729859419167042,-0.019289275631308556,-0.039034485816955566
1772788999330921500,8.81292138671875,-0.013348029926419258,0.043232690542936325,0.00001304948909819359
1772788999350954500,8.83295458984375,0.0036253612488508224,0.02430720441043377,-0.025376729667186737
1772788999370986500,8.852986572265625,0.019515911117196083,-0.04694966599345207,-0.03905019536614418
1772788999391019500,8.87301953125,0.037696246057748795,-0.0019736685790121555,-0.003442934714257717
1772788999411052500,8.893052490234375,0.03587517514824867,0.04954065382480621,0.05006290227174759
1772788999431085600,8.91308544921875,0.005120459944009781,0.04417172074317932,0.02142965793609619
1772788999451117600,8.93311767578125,-0.023970846086740494,0.003369697602465749,-0.0551077276468277
1772788999471150300,8.953150390625,-0.011501925997436047,-0.046596262603998184,-0.08593514561653137
1772788999491183600,8.97318359375,0.005541505757719278,0.005758020561188459,-0.032401349395513535
1772788999511215400,8.99321533203125,0.0036970002111047506,0.06474331021308899,0.025648904964327812
1772788999531248600,9.01324853515625,0.00811784714460373,0.03319763392210007,-0.02034175768494606
1772788999551281400,9.033281494140626,0.01678004488348961,0.009210809133946896,-0.05687287077307701
1772788999571313400,9.0533134765625,0.0116750318557024,0.03551431745290756,-0.05275828763842583
1772788999591346400,9.073346435546876,0.009436111897230148,0.0307491235435009,-0.026330141350626945
1772788999611379500,9.09337939453125,0.0021228056866675615,-0.004145210143178701,-0.007713579572737217
1772788999631412500,9.11341259765625,-0.015217835083603859,0.0028788771014660597,-0.0059929112903773785
1772788999651444500,9.133444580078125,-0.009151953272521496,0.009289105422794819,-0.026515496894717216
1772788999671477500,9.1534775390625,0.0033800839446485043,0.00830932892858982,-0.04165343567728996
1772788999691510500,9.173510498046875,0.0002407497668173164,0.01426548883318901,-0.015823969617486
1772788999711542500,9.19354248046875,-0.01176344882696867,-0.008288023993372917,0.015618108212947845
1772788999731575600,9.213575439453125,-0.03217471390962601,-0.03349484130740166,0.03758998587727547
1772788999751608300,9.2336083984375,-0.04188939183950424,0.03111743927001953,0.012287026271224022
1772788999771640600,9.253640625,0.00646695401519537,0.08326692879199982,-0.03305275738239288
1772788999791673300,9.27367333984375,0.012739230878651142,0.05985907092690468,-0.04670358821749687
1772788999811706600,9.29370654296875,-0.017775002866983414,0.0028695559594780207,-0.004926049150526524
1772788999831739400,9.313739501953124,-0.05601746216416359,0.00634950865060091,0.019601130858063698
1772788999851771600,9.333771728515625,-0.04324041306972504,0.05176492780447006,-0.0035891421139240265
1772788999871804400,9.353804443359374,-0.016929714009165764,0.03636546432971954,-0.03327326849102974
1772788999891837700,9.373837646484375,-0.011995410546660423,0.013382118195295334,-0.0331672728061676
1772788999911869400,9.393869384765624,-0.0357942171394825,0.02094043605029583,0.013540043495595455
1772788999931902500,9.41390234375,-0.07242253422737122,0.03623709827661514,0.03195074200630188
1772788999951935500,9.433935546875,-0.08136782795190811,-0.007207845337688923,-0.01375229749828577
1772788999971967500,9.453967529296875,-0.061102237552404404,-0.007816644385457039,-0.04910602793097496
1772788999992000500,9.47400048828125,-0.025119734928011894,0.04176235944032669,-0.010404171422123909
1772789000012033500,9.494033447265625,-0.016082296147942543,0.07893609255552292,0.02033296786248684
1772789000032066600,9.514066650390625,-0.046673230826854706,0.030843399465084076,0.017494039610028267
1772789000052098600,9.5340986328125,-0.07314132153987885,-0.045031655579805374,0.00899775605648756
1772789000072131300,9.55413134765625,-0.055578574538230896,-0.031791750341653824,-0.0005360943032428622
1772789000092164600,9.57416455078125,0.006116748321801424,0.0172029547393322,0.0027198863681405783
1772789000112196400,9.5941962890625,0.0438726507127285,0.027892617508769035,0.02793229930102825
1772789000132229600,9.614229736328125,0.011670771054923534,0.012626579031348228,0.07553710043430328
1772789000152262400,9.634262451171875,-0.03560992702841759,0.005584116093814373,0.07841385155916214
1772789000172295700,9.654295654296876,-0.03209029138088226,0.016880447044968605,0.006444317288696766
1772789000192327400,9.674327392578125,0.00040000680019147694,0.012329637072980404,-0.03675508499145508
1772789000212360700,9.694360595703126,0.019405122846364975,0.054362308233976364,0.011410047300159931
1772789000232393500,9.7143935546875,0.019468240439891815,0.04303987696766853,0.03948375955224037
1772789000252425500,9.734425537109376,0.0051779840141534805,0.03909919783473015,0.007931958884000778
1772789000272458500,9.75445849609375,0.0022178804501891136,0.04523485526442528,-0.061410628259181976
1772789000292491500,9.774491455078126,0.02767184190452099,0.023933295160531998,-0.08803185075521469
1772789000312523500,9.7945234375,0.05013613775372505,0.017292438074946404,-0.05504567548632622
1772789000332556500,9.814556640625,0.03880385309457779,0.010359430685639381,0.011680358089506626
1772789000352589600,9.834589599609375,0.02478231117129326,0.020298080518841743,0.033364348113536835
1772789000372622600,9.85462255859375,0.028068652376532555,0.02593972161412239,-0.011273160576820374
1772789000392654300,9.874654296875,0.039684828370809555,0.0380973182618618,-0.06783097982406616
1772789000412687600,9.8946875,0.05361715704202652,0.010391121730208397,-0.049965694546699524
1772789000432720400,9.914720458984375,0.04550729691982269,0.026464363560080528,0.019028551876544952
1772789000452752600,9.934752685546876,0.02562573552131653,0.014075072482228279,0.03994794934988022
1772789000472785400,9.954785400390625,0.005943110212683678,-0.02762177400290966,0.008389223366975784
1772789000492818700,9.974818603515626,0.005589708685874939,-0.012812734581530094,-0.01902003027498722
1772789000512850400,9.994850341796875,0.042815372347831726,0.011361311189830303,-0.02383342757821083
1772789000532883700,10.0148837890625,0.07163184136152267,0.03280188888311386,-0.00700730923563242
1772789000552916500,10.03491650390625,0.05793200805783272,0.03689410164952278,0.033310286700725555
1772789000572949800,10.05494970703125,0.027594609186053276,-0.000660463934764266,0.030357904732227325
1772789000592981500,10.0749814453125,0.013947773724794388,0.0005171858938410878,-0.002350772265344858
1772789000613014500,10.0950146484375,0.03164953738451004,0.02521001547574997,-0.013060408644378185
1772789000633047600,10.115047607421875,0.04419143125414848,0.02636689320206642,-0.009476060047745705
1772789000653079600,10.13507958984375,0.05278864502906799,0.0004037352045997977,0.01624368503689766
1772789000673112600,10.155112548828125,0.048954226076602936,0.02773415856063366,0.04228753596544266
1772789000693145600,10.1751455078125,0.06400934606790543,0.0701276883482933,0.00762889115139842
1772789000713177300,10.19517724609375,0.05692853033542633,0.03434998542070389,-0.0534544363617897
1772789000733210600,10.215210693359374,0.04927540570497513,-0.007106112781912088,-0.05969768390059471
1772789000753243400,10.235243408203125,0.06747917830944061,0.012224175967276096,0.020133497193455696
1772789000773276700,10.255276611328124,0.07906153053045273,0.0472591258585453,0.06503120064735413
1772789000793308400,10.275308349609375,0.0750846341252327,0.0484575480222702,0.043415650725364685
1772789000813341700,10.295341796875,0.047694019973278046,0.013095029629766941,-0.00003888214996550232
1772789000833374500,10.31537451171875,0.026499250903725624,-0.02436685934662819,-0.0008439557277597487
1772789000853406500,10.335406494140624,0.02809874527156353,-0.012972258031368256,0.015163772739470005
1772789000873439500,10.355439453125,0.04971935227513313,0.03736468404531479,0.05011563003063202
1772789000893472500,10.375472412109374,0.05236147344112396,0.06851674616336823,0.053527139127254486
1772789000913504500,10.39550439453125,0.02562759816646576,0.030429810285568237,0.012537895701825619
1772789000933537500,10.41553759765625,-0.004601942375302315,-0.04187767580151558,-0.03351721540093422
1772789000953570600,10.435570556640625,0.003412840887904167,-0.020980115979909897,-0.023452861234545708
1772789000973603600,10.455603515625,0.039260055869817734,0.08087620884180069,0.03172250837087631
1772789000993635300,10.47563525390625,0.0385761559009552,0.08392925560474396,0.04279273748397827
1772789001013668600,10.495668701171875,-0.00007084008393576369,0.005587311927229166,-0.008588162250816822
1772789001033701400,10.515701416015625,-0.018124142661690712,-0.05311568081378937,-0.026144519448280334
1772789001053733600,10.535733642578125,0.0057281930930912495,-0.004229366313666105,0.015679361298680305
1772789001073766400,10.555766357421875,0.03803127259016037,0.07187951356172562,0.06315606832504272
1772789001093800000,10.575800048828125,0.03584881126880646,0.08247862756252289,0.04192135110497475
1772789001113833000,10.5958330078125,0.006834470201283693,0.007707187905907631,-0.005083175376057625
1772789001133865000,10.615864990234375,-0.03611353039741516,-0.04053517431020737,-0.0032178976107388735
1772789001153897700,10.635897705078126,-0.02955283224582672,-0.035182222723960876,0.018614429980516434
1772789001173931000,10.655930908203125,0.015574964694678783,0.008430768735706806,0.02503211610019207
1772789001193962800,10.675962646484376,0.05577005445957184,0.055207330733537674,0.026221217587590218
1772789001213996000,10.69599609375,0.044745899736881256,0.04361645132303238,0.024084297940135002
1772789001234028800,10.71602880859375,-0.007757255341857672,0.007069360930472612,-0.0023070964962244034
1772789001254061800,10.736061767578125,-0.03056030534207821,-0.02936001867055893,-0.03362959995865822
1772789001274093800,10.75609375,-0.009101352654397488,-0.025494974106550217,-0.02118624560534954
1772789001294126800,10.776126953125,0.009090700186789036,0.022892000153660774,0.008694687858223915
1772789001314159900,10.796159912109376,0.0006511429091915488,0.004542820155620575,0.011151720769703388
1772789001334191900,10.81619189453125,-0.02273673750460148,-0.01600133627653122,-0.011420966126024723
1772789001354225000,10.836224853515626,-0.01555099617689848,0.010032127611339092,-0.011343734338879585
1772789001374258000,10.8562578125,-0.007640076335519552,0.017959026619791985,-0.01848127320408821
1772789001394290000,10.8762900390625,0.00011265171633567661,-0.006453372072428465,-0.03177950158715248
1772789001414323000,10.896322998046875,-0.00452710734680295,-0.0007387608638964593,-0.019664248451590538
1772789001434356000,10.91635595703125,-0.012803146615624428,0.031912125647068024,-0.0010362359462305903
1772789001454388700,10.936388671875,-0.009635848924517632,0.027104055508971214,-0.010241984389722347
1772789001474420700,10.956420654296876,-0.006247776094824076,0.0022540995851159096,-0.01858513616025448
1772789001494454000,10.9764541015625,-0.018445586785674095,-0.004894357640296221,-0.005284244194626808
1772789001514486800,10.99648681640625,-0.010459032841026783,-0.025129588320851326,-0.004011785611510277
1772789001534519000,11.01651904296875,0.011544004082679749,0.007802795618772507,0.013146428391337395
1772789001554551800,11.0365517578125,0.024747956544160843,0.055333297699689865,0.01278770063072443
1772789001574585000,11.056585205078125,0.010144779458642006,0.019401660189032555,-0.023849673569202423
1772789001594617900,11.076617919921874,-0.007244863547384739,-0.05429200083017349,-0.03542377054691315
1772789001614649900,11.09664990234375,-0.008948753587901592,-0.05813600867986679,0.0041489386931061745
1772789001634683000,11.116682861328124,-0.0033899378031492233,0.029927005991339684,0.028303010389208794
1772789001654716000,11.1367158203125,0.03429485484957695,0.07044487446546555,0.007663245778530836
1772789001674748000,11.156747802734374,0.04526282101869583,0.04482712596654892,-0.0068243504501879215
1772789001694781000,11.176781005859375,0.0023310647811740637,-0.0022690133191645145,0.010396714322268963
1772789001714814000,11.19681396484375,-0.020892765372991562,-0.008598814718425274,0.012085957452654839
1772789001734846700,11.2168466796875,0.0008732505375519395,0.006997189484536648,0.011693674139678478
1772789001754878700,11.236878662109374,0.026016153395175934,0.0378325991332531,0.014062022790312767
1772789001774912000,11.256912109375,0.04018736630678177,0.022767096757888794,0.024932779371738434
1772789001794944800,11.27694482421875,0.026937074959278107,0.023490412160754204,0.0423586405813694
1772789001814977000,11.29697705078125,-0.007623032201081514,0.01588016375899315,0.051528703421354294
1772789001835009800,11.317009765625,-0.02623479999601841,0.010610300116240978,0.0274428091943264
1772789001855042800,11.337042724609375,0.0033577135764062405,0.021159347146749496,-0.018617093563079834
1772789001875075800,11.357075927734375,0.02972673624753952,0.033361420035362244,-0.024539697915315628
1772789001895107800,11.37710791015625,0.026497654616832733,0.052440837025642395,0.007506119552999735
1772789001915140900,11.397140869140625,0.0054552191868424416,0.03265328332781792,0.00812317430973053
1772789001935173600,11.417173583984376,-0.016346482560038567,-0.024212395772337914,-0.022976422682404518
1772789001955206000,11.437205810546875,-0.018028268590569496,-0.024767398834228516,-0.020772656425833702
1772789001975239000,11.457239013671876,0.0029587720055133104,0.049495913088321686,0.02167174033820629
1772789001995272000,11.47727197265625,0.0151592455804348,0.08634340763092041,0.026857979595661163
1772789002015304700,11.4973046875,-0.010492322035133839,0.0213558878749609,-0.01173601858317852
1772789002035337000,11.5173369140625,-0.03828853368759155,-0.04409262537956238,-0.02137000299990177
1772789002055369700,11.53736962890625,-0.01642584428191185,-0.008101335726678371,0.008951417170464993
1772789002075403000,11.557403076171875,0.016687633469700813,0.0708928182721138,0.02618499845266342
1772789002095434500,11.5774345703125,0.019995812326669693,0.052557218819856644,-0.01098367478698492
1772789002115467300,11.59746728515625,-0.003835484618321061,-0.03147643432021141,-0.030226346105337143
1772789002135500500,11.61750048828125,-0.020250942558050156,-0.021741781383752823,0.014880145899951458
1772789002155532300,11.6375322265625,-0.006132993847131729,0.04855421930551529,0.05585234612226486
1772789002175565600,11.657565673828126,0.025587119162082672,0.07513469457626343,0.027476897463202477
1772789002195598300,11.677598388671875,0.03929121419787407,0.017483651638031006,-0.00748987402766943
1772789002215631400,11.69763134765625,0.02983885630965233,-0.010913900099694729,0.006070942152291536
1772789002235663400,11.717663330078125,0.007801197934895754,0.015971776098012924,0.048643968999385834
1772789002255696400,11.7376962890625,-0.006884271278977394,0.013471866957843304,0.025200961157679558
1772789002275729400,11.7577294921875,0.02340119704604149,-0.002238120650872588,-0.04959418252110481
1772789002295761400,11.777761474609376,0.05482383444905281,0.010237190872430801,-0.06022578850388527
1772789002315794400,11.79779443359375,0.03590899705886841,0.03399018943309784,-0.024465661495923996
1772789002335827500,11.817827392578126,0.009748500771820545,0.031316377222537994,0.009098690003156662
1772789002355860500,11.837860595703125,-0.007222759071737528,-0.005293831694871187,-0.010061422362923622
1772789002375892500,11.857892578125,-0.0028482507914304733,-0.020143084228038788,-0.04830974340438843
1772789002395925500,11.877925537109375,0.0181712806224823,0.010871822014451027,-0.03575986251235008
1772789002415958500,11.89795849609375,0.03238829970359802,0.03503468260169029,0.007265902124345303
1772789002435990300,11.917990234375,0.01296240370720625,0.03304796293377876,0.03527356684207916
1772789002456023600,11.9380234375,-0.014904114417731762,-0.008653941564261913,-0.0021821942646056414
1772789002476056300,11.958056396484375,-0.027208451181650162,-0.07633178681135178,-0.03473854064941406
1772789002496089300,11.97808935546875,-0.0019707391038537025,-0.008552209474146366,0.004633900243788958
1772789002516118300,11.9981181640625,0.023991884663701057,0.0816863402724266,0.054019294679164886
1772789002536151300,12.0181513671875,0.012415923178195953,0.024210264906287193,0.03734710440039635
1772789002556184300,12.038184326171875,-0.02774321474134922,-0.04980910196900368,0.0036546560004353523
1772789002576216600,12.058216552734375,-0.03189641237258911,-0.0379689522087574,-0.00572979124262929
1772789002596249300,12.078249267578125,-0.0073407371528446674,0.025195633992552757,0.009300025179982185
1772789002616282400,12.098282470703126,0.008978847414255142,0.023925572633743286,0.029617279767990112
1772789002636314400,12.118314453125,0.0015305186389014125,0.026209233328700066,0.05628324672579765
1772789002656347400,12.138347412109376,-0.017406420782208443,0.029873743653297424,0.08401021361351013
1772789002676380400,12.15838037109375,-0.034444261342287064,0.019240539520978928,0.05042775347828865
1772789002696413400,12.178413330078126,-0.021047495305538177,-0.04104836657643318,-0.008438758552074432
1772789002716445400,12.198445556640625,0.003683684393763542,-0.026439329609274864,0.005592105444520712
1772789002736478200,12.218478271484376,0.02568725310266018,0.04974545165896416,0.06869437545537949
1772789002756511500,12.238511474609375,0.01745196059346199,0.04302762821316719,0.05501851066946983
1772789002776543500,12.25854345703125,0.004175303969532251,-0.03921344876289368,-0.0121879568323493
1772789002796576500,12.278576416015625,-0.0005044027348048985,-0.044389836490154266,-0.01786501705646515
1772789002816609300,12.298609375,0.01010856032371521,0.023333018645644188,0.024955950677394867
1772789002836642600,12.318642578125,0.0394294299185276,0.06419123709201813,0.03698518127202988
1772789002856674600,12.338674560546876,0.020604077726602554,0.021580126136541367,0.008294681087136269
1772789002876707300,12.358707275390625,0.0013185309944674373,-0.04049043357372284,-0.00791305024176836
1772789002896740400,12.378740234375,0.0029001825023442507,-0.009208145551383495,0.022481607273221016
1772789002916772400,12.3987724609375,0.012230567634105682,0.045462291687726974,0.057252902537584305
1772789002936806400,12.418806396484374,0.003625627374276519,0.040157537907361984,0.045149367302656174
1772789002956839400,12.43883935546875,-0.013167200610041618,-0.007678958587348461,0.030523020774126053
1772789002976872400,12.45887255859375,-0.02666569873690605,-0.0034730283077806234,0.0365217924118042
1772789002996904400,12.478904541015625,-0.016051404178142548,0.04777497798204422,0.02461852692067623
1772789003016937500,12.4989375,0.01167609728872776,0.0170250553637743,-0.0007696535321883857
1772789003036970500,12.518970458984375,0.019964920356869698,0.018074607476592064,0.010719755664467812
1772789003057003500,12.53900341796875,0.005905559752136469,0.033195238560438156,0.03320588916540146
1772789003077035500,12.559035400390625,0.000841825210954994,0.006631537340581417,0.021527130156755447
1772789003097068800,12.57906884765625,-0.0006143912323750556,0.018125474452972412,-0.015158180147409439
1772789003117101800,12.599101806640626,0.008292284794151783,0.0508999340236187,-0.032527849078178406
1772789003137133800,12.6191337890625,0.025361016392707825,0.012861736118793488,-0.016984576359391212
1772789003157166800,12.639166748046875,0.03839319571852684,0.014794658869504929,0.026549052447080612
1772789003177199900,12.659199951171875,0.016350477933883667,0.069796122610569,0.05770031362771988
1772789003197233000,12.67923291015625,0.003634948516264558,0.05692719668149948,-0.0008772452711127698
1772789003217265000,12.699264892578125,0.00848829373717308,-0.009103749878704548,-0.0665808916091919
1772789003237297700,12.719297607421876,0.015296664088964462,-0.0018887137994170189,-0.027780763804912567
1772789003257331000,12.7393310546875,0.0046362970024347305,0.05890459567308426,0.05336655303835869
1772789003277363000,12.759363037109376,-0.018088189885020256,0.03797081857919693,0.049316681921482086
1772789003297396000,12.77939599609375,-0.014193050563335419,0.011032943613827229,0.0029590383637696505
1772789003317428700,12.7994287109375,-0.013113139197230339,0.007411843631416559,0.0037233654875308275
1772789003337462000,12.8194619140625,-0.003984621725976467,0.038477085530757904,0.03488554432988167
1772789003357493800,12.83949365234375,-0.0003736414946615696,0.04026113823056221,0.04367051646113396
1772789003377526800,12.85952685546875,-0.016138756647706032,0.0010599381057545543,0.01943282037973404
1772789003397559800,12.879559814453126,-0.02148664928972721,-0.0028333370573818684,0.0013273194199427962
1772789003417591800,12.899591796875,-0.014977884478867054,0.03333958238363266,0.027724571526050568
1772789003437624800,12.919624755859376,-0.013186908327043056,0.049908172339200974,0.04453204944729805
1772789003457657900,12.939657958984375,-0.01811428926885128,0.023503994569182396,0.029735524207353592
1772789003477691000,12.95969091796875,-0.01131044514477253,0.05991606414318085,-0.002891926560550928
1772789003497723000,12.979722900390625,-0.02997627481818199,0.07880906015634537,-0.018487131223082542
1772789003517755600,12.999755615234376,-0.04872332885861397,0.0031579763162881136,-0.025123195722699165
1772789003537789000,13.019788818359375,-0.0404941625893116,-0.021387048065662384,-0.02797704003751278
1772789003557821700,13.03982177734375,-0.013616742566227913,0.0013795174891129136,-0.008588427677750587
1772789003577854000,13.05985400390625,0.011306717060506344,0.041860632598400116,0.025070998817682266
1772789003597886700,13.07988671875,0.00452897185459733,0.037939392030239105,0.016169648617506027
1772789003617920000,13.099919921875,-0.01594754122197628,-0.01884213089942932,-0.014708904549479485
1772789003637951700,13.11995166015625,-0.011552792973816395,-0.03566691651940346,-0.034335069358348846
1772789003657985000,13.139985107421875,0.011290737427771091,-0.012552010826766491,-0.0070589748211205006
1772789003678017800,13.160017822265624,0.034808315336704254,0.036558542400598526,0.03532550111413002
1772789003698051000,13.180051025390625,0.02901034615933895,0.06819849461317062,0.004274906124919653
1772789003718082800,13.200082763671874,0.014684137888252735,-0.0009768474847078323,-0.04644979164004326
1772789003738115800,13.22011572265625,-0.010726147331297398,-0.05444007366895676,-0.03682379424571991
1772789003758148900,13.24014892578125,-0.02201448753476143,0.016991499811410904,0.03347859904170036
1772789003778180900,13.260180908203125,-0.007156978826969862,0.063322514295578,0.03257179260253906
1772789003798214000,13.2802138671875,0.013303288258612156,0.017009876668453217,-0.03975833207368851
1772789003818247000,13.300246826171875,0.013526993803679943,-0.008076036348938942,-0.05126691609621048
1772789003838280000,13.320280029296875,-0.020415792241692543,0.017497766762971878,-0.004289819858968258
1772789003858312000,13.34031201171875,-0.03915619105100632,-0.015086008235812187,0.013684386387467384
1772789003878344700,13.3603447265625,-0.010040916502475739,-0.04289713501930237,0.0020817930344492197
1772789003898378000,13.3803779296875,0.02696637064218521,0.03133368864655495,-0.0002247707889182493
1772789003918409700,13.40040966796875,0.032406143844127655,0.050026681274175644,-0.011212174780666828
1772789003938443000,13.420443115234375,0.006096774712204933,-0.027723239734768867,-0.02189597859978676
1772789003958475800,13.440475830078125,-0.03327246755361557,-0.04511288180947304,-0.007471232209354639
1772789003978509000,13.460509033203126,-0.024097878485918045,0.0006681871018372476,-0.00012623383372556418
1772789003998540800,13.480540771484375,0.02474103309214115,0.04499943181872368,-0.001862082164734602
1772789004018573800,13.50057373046875,0.03894153982400894,0.04968979209661484,0.006117281038314104
1772789004038606800,13.52060693359375,-0.006603308022022247,0.0038312235847115517,0.02196788229048252
1772789004058638800,13.540638916015626,-0.06012911722064018,-0.04331418499350548,0.007181480061262846
1772789004078672000,13.560671875,-0.04704820364713669,-0.0021289309952408075,-0.031181886792182922
1772789004098704600,13.58070458984375,0.022007564082741737,0.044138167053461075,-0.04664979502558708
1772789004118737700,13.600737548828125,0.04152454063296318,0.05883002653717995,-0.013280917890369892
1772789004138769700,13.620769775390626,-0.002810700098052621,0.04062332585453987,0.014185593463480473
1772789004158802400,13.640802490234375,-0.048178981989622116,-0.017732124775648117,-0.0067756143398582935
1772789004178835700,13.660835693359376,-0.042272888123989105,-0.0275631844997406,-0.017972076311707497
1772789004198868500,13.680868408203125,-0.004455734975636005,0.030651386827230453,-0.011683819815516472
1772789004218900700,13.700900634765626,0.023311980068683624,0.05211619660258293,0.014424479566514492
1772789004238933500,13.72093359375,0.01805383525788784,0.05978982895612717,0.05934108793735504
1772789004258966800,13.740966796875,-0.01858620159327984,0.023443274199962616,0.06897560507059097
1772789004278998500,13.76099853515625,-0.05086531117558479,-0.061594389379024506,0.03319443762302399
1772789004299031600,13.781031494140626,-0.048650093376636505,-0.0473768375813961,0.025239042937755585
1772789004319064600,13.801064697265625,0.005371862091124058,0.060152553021907806,0.031200263649225235
1772789004339097600,13.82109765625,0.056468602269887924,0.054965514689683914,0.04309047758579254
1772789004359129600,13.841129638671875,0.018140388652682304,-0.02304566465318203,0.04760213941335678
1772789004379162600,13.86116259765625,-0.023250460624694824,-0.04734088480472565,0.04042518883943558
1772789004399195600,13.881195556640625,-0.016382701694965363,0.026644926518201828,0.014942198060452938
1772789004419227600,13.9012275390625,0.013201556168496609,0.03364691138267517,-0.01973508857190609
1772789004439260700,13.9212607421875,0.01817287877202034,-0.002329200739040971,-0.001901230658404529
1772789004459293700,13.941293701171874,-0.0020538298413157463,0.011715511791408062,0.03166551887989044
1772789004479326700,13.96132666015625,-0.002204564632847905,0.021923141553997993,0.048894837498664856
1772789004499358700,13.981358642578124,-0.016340358182787895,0.027087543159723282,0.0016825852217152715
1772789004519391500,14.0013916015625,-0.004513259045779705,-0.021801436319947243,-0.0482623390853405
1772789004539424800,14.0214248046875,0.015675365924835205,0.003171558491885662,-0.01847248338162899
1772789004559456500,14.04145654296875,0.02117239683866501,0.05495353043079376,0.03117150068283081
1772789004579489800,14.06148974609375,0.014608503319323063,0.01477814745157957,0.03977670893073082
1772789004599522600,14.0815224609375,-0.017063671723008156,-0.00920361839234829,0.023306654766201973
1772789004619555600,14.1015556640625,-0.0019028285751119256,0.02648194134235382,-0.021082649007439613
1772789004639587600,14.121587646484375,0.034270890057086945,0.026137327775359154,-0.030537934973835945
1772789004659620600,14.14162060546875,0.03435690701007843,0.04292403161525726,0.013680658303201199
1772789004679653600,14.161653564453125,-0.002528405049815774,0.04199325665831566,0.05589016526937485
1772789004699686400,14.181686279296875,-0.038729820400476456,0.01774943619966507,0.054492536932229996
1772789004719718700,14.20171875,-0.050382744520902634,-0.004394215997308493,0.0031337416730821133
1772789004739751700,14.221751708984375,0.008021174930036068,-0.005411543417721987,-0.04842852056026459
1772789004759784700,14.24178466796875,0.060815680772066116,0.06590285152196884,-0.027825772762298584
1772789004779816700,14.261816650390625,0.06358855962753296,0.1034531518816948,0.024227840825915337
1772789004799849500,14.281849365234375,0.016509467735886574,0.04229099676012993,0.01684689149260521
1772789004819882800,14.3018828125,-0.029411684721708298,-0.01660427637398243,-0.02989797852933407
1772789004839915500,14.32191552734375,0.0021369203459471464,-0.0025656893849372864,-0.03640301525592804
1772789004859947800,14.34194775390625,0.039257124066352844,0.004412325099110603,-0.0033816818613559008
1772789004879980500,14.36198046875,0.06385327875614166,0.031747277826070786,0.03500272333621979
1772789004900013600,14.382013671875,0.07206699997186661,0.07678346335887909,0.039996951818466187
1772789004920046600,14.402046630859376,0.03038799948990345,0.01187849696725607,0.00857324805110693
1772789004940078600,14.42207861328125,-0.01330169104039669,-0.04486973583698273,-0.007123423274606466
1772789004960111600,14.442111572265626,-0.009584183804690838,-0.021527130156755447,0.012366387993097305
1772789004980144400,14.462144287109375,0.010068613104522228,0.031625568866729736,0.03273158147931099
1772789005000176600,14.4821767578125,0.03207165002822876,0.06787785142660141,0.022407038137316704
1772789005020209700,14.502209716796875,0.03008732758462429,0.079816535115242,0.001222390914335847
1772789005040242700,14.52224267578125,-0.0036906085442751646,0.025615880265831947,-0.018515361472964287
1772789005060275500,14.542275390625,-0.03283704072237015,-0.024353809654712677,-0.022184398025274277
1772789005080307700,14.5623076171875,-0.024271517992019653,0.001683916780166328,0.0038045919500291348
1772789005100341000,14.582341064453125,0.02418576367199421,0.06782405823469162,0.04403989389538765
1772789005120374000,14.6023740234375,0.042163167148828506,0.07940986752510071,0.04254106804728508
1772789005140406000,14.622406005859375,0.01787460409104824,0.020736703649163246,0.013364274986088276
1772789005160439000,14.64243896484375,-0.0123605290427804,-0.0249082800000906,0.011169297620654106
1772789005180471800,14.662471923828125,-0.0080912159755826,0.011480088345706463,0.00998925045132637
1772789005200505000,14.682505126953124,0.036859482526779175,0.04017431661486626,-0.0018879148410633206
1772789005220536800,14.702536865234375,0.060805026441812515,0.026218021288514137,-0.015853531658649445
1772789005240570000,14.722570068359374,0.03422987461090088,0.007348194252699614,0.013436446897685528
1772789005260603000,14.742602783203125,-0.0014689996605738997,0.020061325281858444,0.022957246750593185
1772789005280636200,14.76263623046875,0.006742857396602631,0.033475134521722794,-0.010819890536367893
1772789005300668000,14.78266796875,0.026432672515511513,0.01804291643202305,-0.024119185283780098
1772789005320701000,14.802700927734374,-0.000871652620844543,0.041682466864585876,0.013942713849246502
1772789005340734000,14.82273388671875,-0.025919748470187187,0.03573349490761757,0.030651120468974113
1772789005360766000,14.842765869140624,-0.01571478135883808,-0.003921504598110914,-0.008459264412522316
1772789005380799000,14.862799072265625,-0.004286091309040785,0.0226840078830719,-0.027565848082304
1772789005400832000,14.88283203125,0.0037955371662974358,0.04776805639266968,0.005074919667094946
1772789005420865000,14.902864990234375,0.003037335118278861,0.05584222823381424,0.018682874739170074
1772789005440897000,14.92289697265625,-0.007467770017683506,0.032471656799316406,-0.011640943586826324
1772789005460929800,14.9429296875,-0.02762097492814064,-0.004079164005815983,-0.02250051498413086
1772789005480963000,14.962963134765625,-0.04224545881152153,0.0015307849971577525,0.016818661242723465
1772789005500995800,14.982995849609376,-0.02197027951478958,0.02821858786046505,0.03551724925637245
1772789005521028000,15.003028076171875,-0.0023824640084058046,0.02979464642703533,0.021614480763673782
1772789005541060900,15.023060791015626,0.00170788518153131,0.030765369534492493,0.030239129438996315
1772789005561094100,15.04309423828125,0.008935172110795975,0.03581418842077255,0.04952707141637802
1772789005581126000,15.0631259765625,0.040467265993356705,0.06541815400123596,0.057309895753860474
1772789005601159200,15.0831591796875,0.10348618030548096,0.12063320726156235,0.06459151208400726
1772789005621192000,15.10319189453125,0.17564399540424347,0.14141304790973663,0.06208574026823044
1772789005641225200,15.12322509765625,0.15734168887138367,0.08361340314149857,0.0671774372458458
1772789005661257000,15.143257080078126,0.031922511756420135,0.0046693203039467335,0.034925494343042374
1772789005681290000,15.1632900390625,-0.04228780046105385,-0.060259345918893814,-0.01188036147505045
1772789005701323000,15.183322998046876,-0.00743234995752573,-0.03804085776209831,-0.009852897375822067
1772789005721356000,15.20335595703125,0.04362817108631134,0.05776263028383255,0.023907197639346123
1772789005741388000,15.223387939453126,0.0399777777493,0.038127679377794266,0.0310487300157547
1772789005761421000,15.243421142578125,-0.018729746341705322,-0.030835144221782684,0.009491772390902042
1772789005781454000,15.2634541015625,-0.04388410225510597,-0.05615541338920593,0.006179332733154297
1772789005801486000,15.283486083984375,-0.01793931983411312,0.012495552189648151,0.03355316445231438
1772789005821518800,15.303518798828126,-0.0032314795535057783,0.060926735401153564,0.04969698190689087
1772789005841552100,15.32355224609375,-0.02100009098649025,0.022482406347990036,0.03868108242750168
1772789005861585000,15.3435849609375,-0.047511592507362366,-0.05523715540766716,0.020928451791405678
1772789005881617200,15.3636171875,-0.04484337195754051,-0.041180990636348724,0.019950538873672485
1772789005901650000,15.38364990234375,-0.007934356108307838,0.011372496373951435,0.02840607427060604
1772789005921683200,15.40368310546875,0.017481788992881775,0.014742194674909115,0.0466252937912941
1772789005941716000,15.423716064453124,0.01575845666229725,0.015527826733887196,0.056299492716789246
1772789005961748000,15.443748046875,0.0238824300467968,0.044554151594638824,0.04538985341787338
1772789005981781000,15.463781005859374,0.023481890559196472,0.03837455436587334,0.01865570992231369
1772789006001814000,15.48381396484375,0.000597879639826715,-0.009782589972019196,0.010823885910212994
1772789006021846000,15.503845947265624,-0.014683072455227375,-0.02365952357649803,0.03145645931363106
1772789006041879000,15.523879150390625,-0.00965422485023737,0.03304610028862953,0.02803962305188179
1772789006061912000,15.543912109375,0.021267471835017204,0.07720983028411865,0.003823766717687249
1772789006081944800,15.56394482421875,0.01338611263781786,0.042206574231386185,0.0004924184759147465
1772789006101976600,15.5839765625,-0.017646905034780502,-0.027406590059399605,0.008624646812677383
1772789006122009900,15.604009765625,-0.025380456820130348,-0.0015986956423148513,0.01149553433060646
1772789006142042600,15.624042724609374,0.0024562333710491657,0.07028348743915558,-0.021949773654341698
1772789006162075600,15.64407568359375,0.03838494047522545,0.06983047723770142,-0.0466439351439476
1772789006182107600,15.664107666015624,0.026579147204756737,0.019944678992033005,-0.007108775898814201
1772789006202141000,15.684140869140625,-0.00823928788304329,-0.005356415640562773,0.009224390611052513
1772789006222173700,15.704173583984375,-0.01468680053949356,-0.00478543434292078,0.002150768879801035
1772789006242206000,15.7242060546875,0.005263737868517637,0.009732255712151527,0.0033300165086984634
1772789006262238700,15.74423876953125,0.028325913473963737,0.05024346336722374,0.007960454560816288
1772789006282271700,15.764271728515626,0.03249802067875862,0.031071633100509644,0.019584620371460915
1772789006302304800,15.7843046875,0.018314825370907784,0.004223773255944252,0.03171611949801445
1772789006322336800,15.804336669921875,0.0007315703551284969,0.012470784597098827,0.02973339520394802
1772789006342369800,15.824369873046875,-0.015930762514472008,0.004293814767152071,0.011146394535899162
1772789006362402600,15.844402587890626,-0.029707029461860657,-0.011669971980154514,-0.002379800658673048
1772789006382435800,15.864435791015625,-0.012865731492638588,-0.045280128717422485,-0.0008633967954665422
1772789006402467800,15.8844677734375,0.016862869262695312,0.005854693241417408,0.024379907175898552
1772789006422500900,15.9045009765625,0.03581871837377548,0.06660139560699463,0.03544960170984268
1772789006442533600,15.92453369140625,0.01932096667587757,0.01714969240128994,0.00039175100391730666
1772789006462565600,15.944565673828125,-0.02178332582116127,-0.058348529040813446,-0.022001439705491066
1772789006482598700,15.9645986328125,-0.020682642236351967,-0.04813237488269806,0.0027001791168004274
1772789006502631700,15.984631591796875,0.015474563464522362,0.020115921273827553,0.03603523224592209
1772789006522664000,16.004663818359376,0.04531395062804222,0.006740726996213198,0.04104490578174591
1772789006542695700,16.02469580078125,0.026554113253951073,-0.0372975692152977,0.044438570737838745
1772789006562728700,16.044728759765626,-0.009404687210917473,-0.02768329344689846,0.03705735504627228
1772789006582761700,16.06476171875,-0.009672068059444427,-0.022273346781730652,0.002091380301862955
1772789006602794800,16.084794677734376,0.007047523278743029,-0.048886582255363464,-0.024281105026602745
1772789006622826800,16.10482666015625,0.020906347781419754,-0.05386403203010559,0.005744970869272947
1772789006642859800,16.12485986328125,0.022311963140964508,-0.0001536643976578489,0.07008188217878342
1772789006662892800,16.144892822265625,0.006058691535145044,0.014671354554593563,0.05149035528302193
1772789006682924800,16.1649248046875,-0.014429539442062378,-0.025767149403691292,-0.01878300867974758
1772789006702957600,16.18495751953125,-0.007901598699390888,-0.010871290229260921,-0.05179182440042496
1772789006722990800,16.204990966796874,-0.008896822109818459,0.013788250274956226,-0.034985680133104324
1772789006743023600,16.225023681640625,-0.019569972530007362,-0.0031004520133137703,-0.030547255650162697
1772789006763055900,16.245055908203124,-0.019508186727762222,-0.02484596148133278,-0.03851809725165367
1772789006783088600,16.265088623046875,-0.023853400722146034,-0.051123373210430145,-0.06312970072031021
1772789006803122000,16.285121826171874,-0.02948066033422947,-0.019871177151799202,-0.07922131568193436
1772789006823154700,16.30515478515625,-0.034683410078287125,0.022939670830965042,-0.05258864164352417
1772789006843187000,16.32518701171875,-0.023696275427937508,0.011831092648208141,-0.04280046001076698
1772789006863219700,16.3452197265625,-0.00872158631682396,-0.02803216688334942,-0.04957287758588791
1772789006883252700,16.365252685546874,0.0013496900210157037,-0.020252807065844536,-0.030492927879095078
1772789006903284700,16.38528466796875,-0.002516420790925622,0.02046639285981655,-0.0028338697738945484
1772789006923317800,16.40531787109375,-0.01492275670170784,0.018681809306144714,-0.003142263740301132
1772789006943351800,16.425351806640624,-0.022064555436372757,-0.04532593488693237,-0.008145011961460114
1772789006963384600,16.445384521484375,-0.01455763727426529,-0.031614650040864944,0.019152123481035233
1772789006983417900,16.46541796875,0.006725280545651913,0.059304602444171906,0.03512922674417496
1772789007003449600,16.48544970703125,-0.00347489258274436,0.10106217116117477,0.021874405443668365
1772789007023483000,16.50548291015625,-0.05428667366504669,0.03243384137749672,0.02371811307966709
1772789007043515600,16.525515625,-0.07974009960889816,-0.05572211742401123,0.010677145794034004
1772789007063548000,16.5455478515625,-0.03227218613028526,-0.11864675581455231,-0.028013259172439575
1772789007083580700,16.56558056640625,0.029836459085345268,-0.026220418512821198,-0.03567144647240639
1772789007103613400,16.585613525390624,0.02665984071791172,0.06510177254676819,0.013709420338273048
1772789007123646500,16.605646484375,-0.01252005249261856,0.04981709271669388,0.019288742914795876
1772789007143678500,16.625678466796874,-0.020784374326467514,-0.05640042573213577,-0.05415751039981842
1772789007163711500,16.64571142578125,0.0094480961561203,-0.1835930049419403,-0.14622752368450165
1772789007183744500,16.66574462890625,0.05278465151786804,-0.16006264090538025,-0.16942578554153442
1772789007203777500,16.685777587890627,0.05867023766040802,-0.06581629812717438,-0.0866512730717659
1772789007223809500,16.7058095703125,0.01786022260785103,-0.02225976623594761,0.0083673857152462
1772789007243842600,16.725842529296877,-0.015984559431672096,-0.004948685877025127,0.036136966198682785
1772789007263875600,16.74587548828125,0.0026194851379841566,0.07129202038049698,0.029648706316947937
1772789007283908600,16.76590869140625,0.03755509853363037,0.14548422396183014,0.0318165197968483
1772789007303940600,16.785940673828126,0.03652285784482956,0.15056340396404266,0.05101524665951729
1772789007323973400,16.805973388671877,0.007124488707631826,0.13847345113754272,0.0842866525053978
1772789007344006700,16.826006591796876,-0.0300188846886158,0.10335089266300201,0.07897204905748367
1772789007364038400,16.846038330078127,-0.059550411999225616,0.07607559114694595,0.0343174934387207
1772789007384071700,16.86607177734375,-0.03280242159962654,0.08185305446386337,0.00344479875639081
1772789007404104400,16.8861044921875,0.011499796062707901,0.12121058255434036,0.022657375782728195
1772789007424137500,16.906137451171876,0.019415508955717087,0.13800367712974548,0.05699750408530235
1772789007444169500,16.92616943359375,-0.007063501980155706,0.1077248677611351,0.03909200802445412
1772789007464202500,16.946202392578126,-0.025016136467456818,0.024042218923568726,-0.02412371151149273
1772789007484235500,16.966235595703125,-0.013285178691148758,-0.011065966449677944,-0.05151006206870079
1772789007504268300,16.986268310546876,0.006733802612870932,0.059245746582746506,-0.016469255089759827
1772789007524300500,17.006300537109375,0.02634771727025509,0.07900720089673996,0.025373533368110657
1772789007544333600,17.02633349609375,0.012458267621695995,0.01938461698591709,0.049434926360845566
1772789007564366600,17.04636669921875,-0.00953784491866827,0.01179380901157856,0.02672189101576805
1772789007584399400,17.0663994140625,0.015146195888519287,0.006085323169827461,-0.018067684024572372
1772789007604431400,17.086431396484375,0.02172793261706829,0.010705375112593174,-0.02245364338159561
1772789007624464400,17.10646435546875,0.02666143886744976,0.034929756075143814,0.009402822703123093
1772789007644497400,17.126497314453125,0.028654014691710472,0.041490450501441956,0.035293810069561005
1772789007664530400,17.146530517578125,0.01828819327056408,0.013607421889901161,0.043465983122587204
1772789007684562400,17.1665625,0.014345116913318634,0.05017821490764618,0.044258009642362595
1772789007704595500,17.186595458984375,0.016088688746094704,0.0887351930141449,0.016893763095140457
1772789007724628500,17.20662841796875,0.014168282970786095,0.042217761278152466,-0.006885336712002754
1772789007744660500,17.226660400390625,0.005393433850258589,-0.06411214172840118,-0.01525591779500246
1772789007764693500,17.246693603515624,0.023962324485182762,-0.03056430071592331,0.015980297699570656
1772789007784726300,17.266726318359375,0.026275279000401497,0.04261616989970207,0.03413240239024162
1772789007804759600,17.286759521484374,0.012953349389135838,0.04542553797364235,0.010159959085285664
1772789007824791600,17.30679150390625,-0.0009675264009274542,-0.020793162286281586,-0.040276847779750824
1772789007844824600,17.326824462890624,-0.005106877535581589,-0.04308408871293068,-0.048529453575611115
1772789007864857300,17.346857421875,0.0022056300658732653,0.003897003596648574,-0.00017257283616345376
1772789007884890600,17.366890625,0.00768748065456748,0.044255878776311874,0.030615966767072678
1772789007904922400,17.38692236328125,0.004019775427877903,0.0002479403046891093,0.013146694749593735
1772789007924955600,17.40695556640625,0.0006482133758254349,-0.033001624047756195,-0.0237593911588192
1772789007944988400,17.426988525390627,0.00863210391253233,0.014853781089186668,-0.02840767242014408
1772789007965021400,17.447021484375,0.027940021827816963,0.053940463811159134,-0.019093800336122513
1772789007985053400,17.467053466796877,0.03834419324994087,-0.002263420494273305,-0.010126403532922268
1772789008005086500,17.48708642578125,0.012268916703760624,-0.05308718606829643,0.007725297473371029
1772789008025119500,17.507119384765623,-0.0030740867368876934,0.0295546967536211,0.019276492297649384
1772789008045152500,17.527152587890626,0.019276492297649384,0.07009466737508774,0.004506068304181099
1772789008065184500,17.5471845703125,0.02509603276848793,0.025428660213947296,-0.02364807203412056
1772789008085217500,17.567217529296876,0.0005619269795715809,-0.035952143371105194,-0.02076812833547592
1772789008105250300,17.587250244140623,-0.0030221552588045597,-0.03901105001568794,-0.0064925202168524265
1772789008125282300,17.6072822265625,-0.0016857809387147427,0.008055529557168484,-0.017595505341887474
1772789008145315300,17.6273154296875,0.009968211874365807,0.010602043941617012,-0.023362847045063972
1772789008165348400,17.647348388671876,-0.0005358280031941831,0.014283065684139729,-0.013937919400632381
1772789008185381400,17.66738134765625,0.008884571492671967,0.024938905611634254,-0.0075780246406793594
1772789008205413400,17.687413330078126,0.01335601881146431,0.004874383565038443,-0.000041012681322172284
1772789008225446400,17.7074462890625,0.01689828932285309,0.01889086700975895,-0.014868427999317646
1772789008245479400,17.7274794921875,-0.0028999161440879107,0.014693192206323147,-0.01453100610524416
1772789008265512400,17.747512451171875,-0.014058028347790241,0.009011871181428432,-0.0023339942563325167
1772789008285544400,17.76754443359375,0.003677825443446636,-0.0046789078041911125,-0.006959639023989439
1772789008305577500,17.787577392578125,0.02159770391881466,-0.01846902258694172,0.013946974650025368
1772789008325610500,17.807610595703125,0.0051873051561415195,0.003925765864551067,0.048532914370298386
1772789008345643500,17.8276435546875,-0.017131848260760307,0.026883812621235847,0.03141118586063385
1772789008365675500,17.847675537109374,-0.006449110805988312,0.013367470353841782,-0.007255516014993191
1772789008385708300,17.867708251953125,0.004629373084753752,0.006774016655981541,0.014305968768894672
1772789008405741600,17.887741455078125,-0.006090116687119007,0.05411223694682121,0.048584312200546265
1772789008425773300,17.907773193359375,-0.013737117871642113,0.03955220431089401,0.0235801599919796
1772789008445806600,17.927806640625,-0.020747356116771698,-0.03104952909052372,-0.008300540037453175
1772789008465839400,17.94783935546875,-0.01751507818698883,0.01212697010487318,0.0016900419723242521
1772789008485872400,17.967872314453125,0.009896839037537575,0.07405532151460648,0.023633157834410667
1772789008505904400,17.987904296875,0.012293950654566288,0.05700229853391647,0.0268944650888443
1772789008525937400,18.0079375,-0.02110954560339451,0.009047823026776314,-0.006644320674240589
1772789008545970400,18.027970458984374,-0.02141794003546238,-0.03127696365118027,-0.04249818995594978
1772789008566003200,18.048003173828125,-0.005160673521459103,-0.03151052072644234,-0.022554311901330948
1772789008586035500,18.068035400390624,0.028006600216031075,0.0182876605540514,0.002567820018157363
1772789008606068500,18.088068359375,0.05771922320127487,0.023600134998559952,0.001398425898514688
1772789008626101500,18.1081015625,0.022224878892302513,0.010946391150355339,-0.010624947026371956
1772789008646134300,18.12813427734375,-0.02821379527449608,-0.013040967285633087,-0.029520342126488686
1772789008666166300,18.148166259765624,-0.020564131438732147,-0.04019135981798172,-0.019226424396038055
1772789008686199600,18.168199462890627,0.020803548395633698,0.004987568128854036,0.019335614517331123
1772789008706232300,18.188232421875,0.023870179429650307,0.06003857031464577,0.05488695204257965
1772789008726265300,18.208265380859373,-0.0049649314023554325,0.058526426553726196,0.02388083189725876
1772789008746297300,18.22829736328125,-0.008769256994128227,-0.06214885786175728,-0.03929094597697258
1772789008766330400,18.248330322265623,0.002371544949710369,-0.0893637016415596,-0.04241110756993294
1772789008786363400,18.26836328125,0.014366422779858112,0.019357718527317047,-0.009633718989789486
1772789008806396400,18.288396484375,0.025320271030068398,0.045331262052059174,0.015682024881243706
1772789008826428400,18.308428466796876,0.015971243381500244,0.0051774512976408005,-0.006827545817941427
1772789008846461200,18.328461181640623,0.022286130115389824,0.020082898437976837,-0.03671407327055931
1772789008866494500,18.348494384765626,0.007442469708621502,0.000565389113035053,-0.0685172751545906
1772789008886527200,18.36852734375,-0.01996944658458233,-0.05594955012202263,-0.07763940095901489
1772789008906559500,18.3885595703125,-0.027419107034802437,-0.059530969709157944,-0.039503201842308044
1772789008926592300,18.40859228515625,0.006788664031773806,0.018728148192167282,0.0007805725326761603
1772789008946625500,18.42862548828125,0.037159617990255356,0.052922870963811874,-0.005122057627886534
1772789008966657300,18.4486572265625,0.026917634531855583,-0.034327615052461624,-0.03073873743414879
1772789008986690600,18.468690673828124,0.01810630038380623,-0.1425986886024475,-0.033123865723609924
1772789009006723300,18.488723388671875,0.039323437958955765,-0.1557280719280243,-0.0026932547334581614
1772789009026756600,18.508756591796875,0.04230324923992157,-0.07149628549814224,0.053161222487688065
1772789009046788400,18.528788330078125,0.04932893440127373,-0.043653737753629684,0.05013853311538696
1772789009066821400,18.5488212890625,0.05092230439186096,-0.09002895653247833,0.02004481479525566
1772789009086854400,18.5688544921875,0.027540281414985657,-0.05221207067370415,0.03272145986557007
1772789009106887700,18.5888876953125,-0.010841729119420052,0.0430995337665081,0.04811506345868111
1772789009126919400,18.60891943359375,-0.03526930883526802,0.05698126181960106,0.04162946715950966
1772789009146952700,18.62895263671875,-0.019836554303765297,-0.03370682895183563,0.02628619782626629
1772789009166985500,18.6489853515625,0.0007685882737860084,-0.0137815922498703,0.05814692750573158
1772789009187018800,18.669018798828127,0.01552516408264637,0.06815508753061295,0.10404011607170105
1772789009207050500,18.689050537109374,0.035176098346710205,0.07343320548534393,0.09933856874704361
1772789009227083500,18.70908349609375,0.04459969326853752,0.0137789286673069,0.06369934976100922
1772789009247116500,18.729116455078124,0.045694783329963684,-0.024474183097481728,0.06519418209791183
1772789009267149600,18.749149658203127,0.06157015264034271,0.023004118353128433,0.08155158162117004
1772789009287181600,18.769181640625,0.06665386259555817,0.060689445585012436,0.08561184257268906
1772789009307214600,18.789214599609377,0.056527458131313324,0.04273095354437828,0.05832003057003021
1772789009327247600,18.80924755859375,0.07195807993412018,-0.000800279900431633,0.031328096985816956
1772789009347280400,18.8292802734375,0.09260103851556778,-0.00686003640294075,0.022363629192113876
1772789009367312400,18.8493125,0.08835862576961517,0.01901630125939846,0.02058517001569271
1772789009387345700,18.869345703125,0.07332561165094376,0.01588309183716774,0.02563638798892498
1772789009407378400,18.88937841796875,0.07073675096035004,0.019951604306697845,0.03207297995686531
1772789009427411500,18.909411376953123,0.06215711310505867,-0.001121989800594747,0.02485315129160881
1772789009447443500,18.929443359375,0.04387584328651428,0.005212871357798576,0.011843343265354633
1772789009467476500,18.9494765625,0.039203859865665436,0.045470546931028366,-0.0008668589289300144
1772789009487509500,18.969509521484376,0.03225540742278099,0.06664001196622849,-0.017586184665560722
1772789009507542500,18.98954248046875,0.019457055255770683,0.04463271424174309,-0.032226379960775375
1772789009527574500,19.009574462890626,0.0004652542411349714,-0.03027375042438507,-0.038600921630859375
1772789009547607300,19.029607177734373,-0.01293284259736538,-0.06616543978452682,-0.05531705170869827
1772789009567640600,19.049640625,0.0023374564480036497,-0.031076958402991295,-0.05269889906048775
1772789009587672600,19.069672607421875,0.010667025111615658,0.04442738741636276,-0.015117433853447437
1772789009607705600,19.08970556640625,-0.013470268808305264,0.058989018201828,0.005346295889467001
1772789009627738400,19.10973828125,-0.025192437693476677,0.006214486435055733,-0.024173246696591377
1772789009647771600,19.129771728515625,-0.025720277801156044,-0.0018290589796379209,-0.04308435320854187
1772789009667803600,19.1498037109375,-0.01788019761443138,0.03160959109663963,-0.004120975267142057
1772789009687836700,19.169836669921875,-0.008036887273192406,0.03831569850444794,0.03922223672270775
1772789009707869400,19.189869384765625,-0.002867691917344928,0.009807622991502285,0.055396147072315216
1772789009727902500,19.20990234375,-0.026248382404446602,0.004602208733558655,0.046603187918663025
1772789009747934500,19.2299345703125,-0.04062492400407791,0.010579140856862068,0.026141323149204254
1772789009767967500,19.249967529296875,-0.0063066319562494755,0.005904494319111109,-0.00040426786290481687
1772789009788000500,19.27000048828125,0.015037006698548794,0.0017656758427619934,0.02075614407658577
1772789009808033500,19.290033447265625,0.0043960800394415855,0.021449364721775055,0.029988259077072144
1772789009828065500,19.3100654296875,-0.005308212712407112,0.02462145686149597,0.0041249701753258705
1772789009848098600,19.3300986328125,-0.010998322628438473,0.006821686867624521,-0.037707433104515076
1772789009868131600,19.350131591796874,-0.008934905752539635,0.010600978508591652,-0.04512300342321396
1772789009888164600,19.37016455078125,-0.004595817066729069,0.05030498281121254,-0.040517598390579224
1772789009908196400,19.3901962890625,0.003978496417403221,0.04192427918314934,-0.017609354108572006
1772789009928229600,19.410229736328127,-0.002161954063922167,-0.0008420915110036731,-0.006969758775085211
1772789009948262400,19.430262451171874,-0.020267188549041748,-0.003907389938831329,0.012034025974571705
1772789009968295700,19.450295654296873,-0.00842837244272232,0.05997438728809357,0.006698116194456816
1772789009988327400,19.470327392578124,-0.00028868665685877204,0.05277639627456665,-0.006616090890020132
1772789010008360700,19.490360595703127,-0.00914662703871727,-0.012863600626587868,-0.009397230111062527
1772789010028393500,19.5103935546875,-0.025914154946804047,0.00024740767548792064,0.006628341507166624
1772789010048426800,19.5304267578125,-0.006629673298448324,0.03620167821645737,0.023384151980280876
1772789010068458500,19.55045849609375,0.014852715656161308,0.040294427424669266,0.012239089235663414
1772789010088491500,19.570491455078123,0.015750201418995857,0.02677622064948082,-0.00930108968168497
1772789010108525000,19.590525146484374,0.005809952039271593,0.04615524411201477,-0.008533833548426628
1772789010128557800,19.610557861328125,-0.004568119999021292,0.036850690841674805,-0.00421391986310482
1772789010148590000,19.630590087890624,0.0012990899849683046,0.0014229270163923502,-0.0019712718203663826
1772789010168622800,19.650622802734375,0.00951014831662178,0.0005589975044131279,0.016459133476018906
1772789010188656000,19.67065625,0.030014092102646828,0.0766897201538086,0.021045364439487457
1772789010208689000,19.69068896484375,0.017666878178715706,0.05910992622375488,-0.0029438582714647055
1772789010228721000,19.710720947265624,-0.0028423918411135674,-0.02220570296049118,-0.020129770040512085
1772789010248754000,19.73075390625,-0.013790646567940712,-0.046536076813936234,0.006662430241703987
1772789010268787000,19.750786865234375,0.006896521896123886,0.018386464565992355,0.05661560967564583
1772789010288820000,19.770820068359374,0.018679944798350334,0.08220752328634262,0.04241110756993294
1772789010308852000,19.79085205078125,0.025731729343533516,0.06889890879392624,-0.028194885700941086
1772789010328885000,19.810885009765624,0.0068120998330414295,-0.004224305972456932,-0.04951828345656395
1772789010348918000,19.83091796875,-0.013116867281496525,-0.020268786698579788,-0.024572188034653664
1772789010368951000,19.850950927734374,0.011860653758049011,0.01890471577644348,0.013954431749880314
1772789010388983000,19.870983154296876,0.028550418093800545,0.06758756935596466,0.038050178438425064
1772789010409015800,19.891015869140624,0.012342952191829681,0.0550595223903656,0.014635668136179447
1772789010429049000,19.911049072265627,0.00327275856398046,0.01991032436490059,-0.02431492693722248
1772789010449081900,19.931081787109374,0.020309265702962875,0.007896538823843002,-0.015240738168358803
1772789010469114000,19.951114013671877,0.021016335114836693,0.020669326186180115,0.03127376735210419
1772789010489147000,19.97114697265625,0.008232363499701023,0.05134148523211479,0.03178615868091583
1772789010509180200,19.99118017578125,0.024764735251665115,0.03886430710554123,-0.003126284806057811
1772789010529212000,20.0112119140625,0.022816631942987442,-0.006992661859840155,-0.001885784324258566
1772789010549244000,20.031243896484376,0.00896659679710865,-0.010126669891178608,0.03729171305894852
1772789010569277000,20.05127685546875,0.01441329438239336,0.030126476660370827,0.04711318388581276
1772789010589310000,20.07131005859375,0.026163959875702858,-0.025426795706152916,0.033368609845638275
1772789010609343000,20.091343017578126,0.01047181524336338,-0.06089504063129425,0.005853894166648388
1772789010629375000,20.111375,0.0025515747256577015,0.018814167007803917,0.012746954336762428
1772789010649408000,20.131407958984376,0.012799418531358242,0.04543059691786766,0.03319497033953667
1772789010669441000,20.15144091796875,0.025344504043459892,0.04096581041812897,0.02750645950436592
1772789010689473000,20.17147314453125,0.02719433605670929,0.025744246318936348,0.005841909907758236
1772789010709506000,20.191506103515625,-0.014037787914276123,-0.0070461914874613285,-0.012560267001390457
1772789010729538800,20.211538818359376,-0.02461905963718891,-0.02225523814558983,-0.014753113500773907
1772789010749572000,20.231572021484375,-0.009324259124696255,0.03483254835009575,0.009670204482972622
1772789010769603800,20.251603759765626,0.003847468877211213,0.06788051128387451,0.020319119095802307
1772789010789637000,20.27163720703125,-0.006548180244863033,0.018877284601330757,0.006493319291621447
1772789010809670000,20.291669921875,-0.008246212266385555,-0.02316284365952015,0.012677978724241257
1772789010829703200,20.311703125,-0.013715545646846294,0.022037126123905182,0.03797747567296028
1772789010849735000,20.33173486328125,-0.003413107246160507,0.03495558723807335,0.04114450514316559
1772789010869768000,20.351767822265625,0.0060120862908661366,0.029870813712477684,0.006554571911692619
1772789010889801000,20.371801025390624,0.0097450390458107,0.013405820354819298,-0.011915515176951885
1772789010909834000,20.391833984375,0.008025169372558594,-0.016224242746829987,-0.007108775898814201
1772789010929866000,20.411865966796874,0.00823982059955597,0.007769772317260504,0.01925305649638176
1772789010949900000,20.431900146484374,0.01636618934571743,0.05194149538874626,0.02070607803761959
1772789010969933000,20.45193310546875,0.01558481901884079,0.0067750816233456135,-0.0175038930028677
1772789010989965800,20.4719658203125,0.01233283244073391,-0.011889948509633541,-0.013218067586421967
1772789011009999000,20.4919990234375,0.004275705199688673,0.03747839853167534,0.020894629880785942
1772789011030030800,20.51203076171875,-0.013175190426409245,0.04007711261510849,0.03519180789589882
1772789011050064100,20.532064208984377,-0.0159416813403368,0.013112872838973999,-0.006362291984260082
1772789011070097000,20.552096923828124,-0.006162554491311312,-0.00022397184511646628,-0.019100457429885864
1772789011090130200,20.572130126953127,0.004471980035305023,0.0335925817489624,0.03133368864655495
1772789011110162000,20.592161865234374,0.007721036672592163,0.06329694390296936,0.048288170248270035
1772789011130195200,20.6121953125,0.009394566528499126,0.013383449986577034,0.010880078189074993
1772789011150228000,20.63222802734375,0.01446922030299902,-0.016619723290205002,-0.014504906721413136
1772789011170261200,20.65226123046875,0.005795837379992008,0.018188059329986572,0.01471742708235979
1772789011190293000,20.67229296875,-0.0001603222917765379,0.014123808592557907,0.024584971368312836
1772789011210326300,20.692326171875,0.027115507051348686,0.01552063599228859,0.027790086343884468
1772789011230359000,20.712359130859376,0.044256675988435745,0.053693853318691254,0.029101159423589706
1772789011250392300,20.732392333984375,0.0654945895075798,0.014662832021713257,-0.04122413694858551
1772789011270424000,20.752424072265626,0.06411267071962357,-0.008227569982409477,-0.03437661752104759
1772789011290457000,20.77245703125,0.0371798574924469,-0.05300409719347954,-0.047755539417266846
1772789011310490000,20.792489990234376,0.05710962414741516,0.006677876226603985,-0.05609522759914398
1772789011330523100,20.812523193359375,0.10748731344938278,-0.0438191182911396,-0.10426542162895203
1772789011350555100,20.83255517578125,0.04534723982214928,-0.23638564348220825,-0.25596439838409424
1772789011370588200,20.852588134765625,-0.05308132618665695,-0.27964869141578674,-0.37670040130615234
1772789011390621200,20.87262109375,-0.0006764429272152483,-0.5735759139060974,-0.47939348220825195
1772789011410654000,20.892654052734375,0.07055912166833878,-0.7225856184959412,-0.5468766689300537
1772789011430686000,20.91268603515625,0.10323743522167206,-0.39618462324142456,-0.45620959997177124
1772789011450719200,20.93271923828125,0.24887239933013916,0.04969272017478943,-0.22738149762153625
1772789011470752000,20.952751953125,0.3583115339279175,0.21631072461605072,0.07285875827074051
1772789011490785000,20.972784912109375,0.37575870752334595,0.01769404299557209,0.18546387553215027
1772789011510817000,20.992817138671874,0.3270164728164673,-0.07876991480588913,0.2257779985666275
1772789011530850000,21.01285009765625,0.2657477855682373,-0.022793728858232498,0.34440237283706665
1772789011550883000,21.032883056640625,0.23028486967086792,0.1400228887796402,0.33779776096343994
1772789011570916000,21.052916015625,0.17404289543628693,0.1795378029346466,0.2427564561367035
1772789011590948000,21.072947998046875,0.1071203276515007,0.03690582141280174,0.15451234579086304
1772789011610981000,21.092981201171874,0.06252622604370117,0.02949663996696472,0.14364877343177795
1772789011631014100,21.11301416015625,-0.0006013417732901871,0.11595616489648819,0.1725800335407257
1772789011651047200,21.133047119140624,0.014654310420155525,0.22237075865268707,0.16970914602279663
1772789011671079200,21.1530791015625,-0.13346245884895325,0.23914387822151184,0.17299894988536835
1772789011691112000,21.17311181640625,-0.28924432396888733,0.037153493613004684,0.09609191119670868
1772789011711145200,21.193145263671877,-0.28621017932891846,-0.2184804081916809,-0.06808584183454514
1772789011731178000,21.213177978515624,-0.3128330111503601,-0.22491087019443512,-0.15575949847698212
1772789011751210200,21.233210205078127,-0.3536432981491089,-0.1059514656662941,-0.1502789855003357
1772789011771243000,21.253242919921874,-0.28947389125823975,-0.06059224158525467,-0.05444113910198212
1772789011791276300,21.2732763671875,-0.12522289156913757,0.014945659786462784,0.026737071573734283
1772789011811309000,21.29330908203125,-0.02575116977095604,0.22701503336429596,0.1645740270614624
1772789011831342300,21.31334228515625,-0.012929647229611874,0.4582221508026123,0.2532075047492981
1772789011851374000,21.3333740234375,-0.09495500475168228,0.2788145840167999,0.14292733371257782
1772789011871407000,21.353406982421873,-0.12833906710147858,-0.19149751961231232,-0.06473878026008606
1772789011891440000,21.373440185546876,-0.1168816089630127,-0.28655481338500977,-0.04713448882102966
1772789011911473200,21.39347314453125,0.033363282680511475,-0.2976498007774353,-0.0052384380251169205
1772789011931505200,21.413505126953126,0.04099190607666969,-0.14076749980449677,-0.01613209769129753
1772789011951538200,21.4335380859375,-0.004267183132469654,-0.006707437336444855,-0.00881825853139162
1772789011971571200,21.4535712890625,-0.004759068600833416,0.1307995617389679,0.09810792654752731
1772789011991604000,21.47360400390625,0.03670927882194519,0.2926790118217468,0.17685946822166443
1772789012011636000,21.493635986328126,0.11088976263999939,0.2122797667980194,0.16234390437602997
1772789012031669200,21.513669189453125,0.16741323471069336,-0.07169655710458755,0.10189387202262878
1772789012051702000,21.533701904296876,0.18161186575889587,-0.33933624625205994,-0.03681740164756775
1772789012071735000,21.553735107421875,0.08284321427345276,-0.3688182532787323,-0.18677733838558197
1772789012091767000,21.57376708984375,0.045640453696250916,-0.45844000577926636,-0.16656634211540222
1772789012111799800,21.5937998046875,0.12456563115119934,-0.5019509792327881,-0.024211596697568893
1772789012131832800,21.613832763671876,0.10072527825832367,-0.2922377288341522,0.07629290968179703
1772789012151865600,21.633865478515624,0.08664780855178833,-0.13490642607212067,0.09945148974657059
1772789012171897600,21.653897705078126,0.07298712432384491,0.027104588225483894,0.09293100237846375
1772789012191931000,21.673930908203126,0.07749558985233307,-0.0575740784406662,0.062194932252168655
1772789012211963600,21.693963623046876,0.14226579666137695,-0.2506450116634369,0.07720823585987091
1772789012231996700,21.71399658203125,0.005517803598195314,-0.2392306923866272,0.08660946041345596
1772789012252028700,21.734028564453126,-0.18157272040843964,-0.1830451786518097,0.021319935098290443
1772789012272062000,21.75406201171875,-0.12501969933509827,-0.22318647801876068,-0.029157353565096855
1772789012292094700,21.7740947265625,-0.048945970833301544,0.08184879273176193,0.11536254733800888
1772789012312127700,21.794127685546876,0.06954871863126755,0.27712613344192505,0.18796271085739136
1772789012332159700,21.81415966796875,0.10196711122989655,0.20418083667755127,0.11442910879850388
1772789012352192800,21.83419287109375,0.07801836729049683,0.12102335691452026,0.08451701700687408
1772789012372225800,21.854225830078125,0.0013049489352852106,0.037826474756002426,0.13655464351177216
1772789012392258600,21.874258544921876,-0.05810937657952309,-0.11382617056369781,0.1238766685128212
1772789012412290800,21.894290771484375,-0.05324085056781769,-0.045335788279771805,0.09775585681200027
1772789012432323600,21.914323486328126,-0.027993550524115562,0.12644103169441223,0.12042894214391708
1772789012452356900,21.93435693359375,0.018372615799307823,0.2701718211174011,0.10506436973810196
1772789012472389600,21.9543896484375,0.015959525480866432,0.23820936679840088,0.04221909120678902
1772789012492421600,21.974421630859375,-0.006475742440670729,-0.028143754228949547,-0.04625804349780083
1772789012512454700,21.99445458984375,-0.042034003883600235,-0.15675686299800873,-0.14254996180534363
1772789012532487700,22.01448779296875,-0.012176238931715488,-0.0833156630396843,-0.13015666604042053
1772789012552520700,22.034520751953124,0.03374224901199341,0.004483964294195175,-0.08483818918466568
1772789012572552700,22.054552734375,0.06126601994037628,0.10614348202943802,-0.033009082078933716
1772789012592585700,22.074585693359374,0.07064807415008545,0.16995228826999664,0.03599848225712776
1772789012612618800,22.09461865234375,0.05982844531536102,0.13830940425395966,0.06296591460704803
1772789012632651800,22.11465185546875,0.02690005674958229,0.14802329242229462,0.05211380124092102
1772789012652683800,22.134683837890623,-0.003979827743023634,0.1203429251909256,0.07447876036167145
1772789012672716800,22.154716796875,-0.027942152693867683,0.04319940134882927,0.10329975932836533
1772789012692749800,22.174749755859374,-0.0414544977247715,0.03244981914758682,0.07463162392377853
1772789012712782600,22.194782470703124,-0.030942736193537712,0.0509721040725708,0.06305726617574692
1772789012732815600,22.214815673828124,-0.02425394020974636,-0.0649678111076355,0.16670243442058563
1772789012752847600,22.23484765625,-0.047031957656145096,-0.2326050102710724,0.36379551887512207
1772789012772881000,22.254880859375,-0.0961102843284607,0.01703224703669548,0.3419016897678375
1772789012792913700,22.27491357421875,-0.11741424351930618,0.44850507378578186,0.13213247060775757
1772789012812946700,22.29494677734375,-0.05549255385994911,0.2949267029762268,0.1579776555299759
1772789012832978700,22.314978759765626,-0.06804749369621277,0.31863123178482056,0.20363035798072815
1772789012853012000,22.335011962890626,-0.1647559255361557,0.46614933013916016,0.23815371096134186
1772789012873044700,22.355044677734377,-0.15835395455360413,0.45345109701156616,0.24079424142837524
1772789012893077800,22.375077880859376,-0.10526277124881744,0.2376708835363388,0.09178025275468826
1772789012913109800,22.39510986328125,-0.039016906172037125,-0.0361793078482151,-0.17643415927886963
1772789012933142800,22.415142822265626,-0.0751887634396553,-0.13746091723442078,-0.32517674565315247
1772789012953175800,22.43517578125,-0.07098336517810822,-0.13125789165496826,-0.2630806267261505
1772789012973208600,22.45520849609375,-0.08233482390642166,-0.08918394148349762,-0.10959227383136749
1772789012993240800,22.47524072265625,-0.13730113208293915,0.0891418606042862,0.04555203765630722
1772789013013273600,22.495273681640626,-0.15734301507472992,0.44556787610054016,0.1845591962337494
1772789013033307000,22.515306884765625,-0.09063296020030975,0.7220188975334167,0.3137826919555664
1772789013053339600,22.535339599609376,-0.10910358279943466,0.8821590542793274,0.42173925042152405
1772789013073371600,22.55537158203125,-0.21076390147209167,0.9964835047721863,0.4854561686515808
1772789013093404700,22.57540478515625,-0.280905157327652,0.873518705368042,0.44549599289894104
1772789013113437700,22.595437744140625,-0.3219969570636749,0.6096327304840088,0.31957533955574036
1772789013133470700,22.615470703125,-0.3079895079135895,0.20016585290431976,0.1175127774477005
1772789013153502700,22.635502685546875,-0.2653334140777588,-0.15803223848342896,-0.06811194121837616
1772789013173535700,22.65553564453125,-0.19432979822158813,-0.2808889150619507,-0.1925225704908371
1772789013193568800,22.67556884765625,-0.13287416100502014,-0.2136417031288147,-0.22491274774074554
1772789013213601800,22.695601806640624,-0.08893200010061264,-0.11632048338651657,-0.15464363992214203
1772789013233634800,22.715634765625,-0.05156092718243599,-0.1321132928133011,-0.10423000156879425
1772789013253666600,22.73566650390625,0.002493251347914338,-0.17887680232524872,-0.09549988806247711
1772789013273699800,22.755699951171874,0.038903988897800446,-0.17081701755523682,-0.09148704260587692
1772789013293732600,22.775732666015625,0.05770697072148323,-0.07944396138191223,-0.05217398703098297
1772789013313766000,22.795765869140624,0.06939665228128433,-0.11221282184123993,-0.043894488364458084
1772789013333797600,22.815797607421874,0.06858571618795395,-0.12855690717697144,-0.05950247496366501
1772789013353831000,22.835830810546874,0.07584922760725021,-0.07608091831207275,-0.06375474482774734
1772789013373863700,22.85586376953125,0.03136537969112396,-0.026373816654086113,-0.027416443452239037
1772789013393896700,22.875896728515624,-0.07029387354850769,-0.05783933028578758,0.0025917883031070232
1772789013413928700,22.8959287109375,-0.07049839943647385,-0.18529102206230164,-0.03596599027514458
1772789013433961700,22.915961669921874,-0.047752074897289276,-0.1792677640914917,-0.09393421560525894
1772789013453994800,22.935994873046877,0.0011627360945567489,0.03390044346451759,-0.03199894726276398
1772789013474027500,22.956027587890624,-0.01776168681681156,0.18289445340633392,0.06873352080583572
1772789013494059800,22.976059814453127,-0.03406102955341339,0.1574503481388092,0.11134516447782516
1772789013514092800,22.9960927734375,-0.057127468287944794,0.1530100554227829,0.16978956758975983
1772789013534125800,23.016125732421877,-0.056881390511989594,0.23532143235206604,0.2216636836528778
1772789013554158600,23.03615869140625,-0.02454475685954094,0.2230442613363266,0.1620861142873764
1772789013574190800,23.05619091796875,-0.019351860508322716,0.049073804169893265,0.08380408585071564
1772789013594223600,23.0762236328125,-0.0264236181974411,-0.07602046430110931,0.03689809516072273
1772789013614257000,23.0962568359375,-0.036560140550136566,-0.032656215131282806,0.05005251616239548
1772789013634289700,23.11628955078125,0.021946044638752937,-0.17089983820915222,0.0086603332310915
1772789013654321700,23.13632177734375,0.06875962018966675,-0.32530590891838074,-0.07543163746595383
1772789013674354700,23.156354736328126,0.0641172006726265,-0.20158052444458008,-0.07848362624645233
1772789013694387700,23.1763876953125,0.04283801093697548,-0.08475643396377563,-0.011266768909990788
1772789013714420700,23.196420654296876,0.014198376797139645,-0.0032381375785917044,0.049071937799453735
1772789013734453800,23.216453857421875,0.061537664383649826,-0.0018873822409659624,0.024220917373895645
1772789013754485800,23.23648583984375,0.09777902066707611,-0.04541941359639168,-0.028133101761341095
1772789013774518800,23.256518798828125,0.10126323997974396,-0.04386359453201294,-0.07520553469657898
1772789013794551800,23.2765517578125,0.08475030958652496,0.035166509449481964,-0.09393101930618286
1772789013814584800,23.296584716796875,0.07206567376852036,0.12861070036888123,0.011918976902961731
1772789013834616600,23.316616455078126,0.03224102780222893,0.20772257447242737,0.13126002252101898
1772789013854649900,23.33664990234375,-0.00800386443734169,0.3000567555427551,0.19430023431777954
1772789013874682600,23.3566826171875,0.006645651999861002,0.1001332551240921,0.0702107772231102
1772789013894716000,23.3767158203125,0.012586365453898907,-0.05143096670508385,-0.05681454762816429
1772789013914747600,23.39674755859375,0.015210910700261593,0.013590111397206783,-0.05043201521039009
1772789013934781000,23.416781005859374,0.0243143942207098,0.0921405777335167,0.027569575235247612
1772789013954813700,23.436813720703125,0.021203288808465004,0.21053726971149445,0.13772404193878174
1772789013974846700,23.4568466796875,0.04045581445097923,0.16598710417747498,0.1286916732788086
1772789013994878700,23.476878662109375,0.02148531749844551,0.2421921342611313,0.10717705637216568
1772789014014911700,23.496911865234374,0.03418167307972908,0.23786289989948273,0.08023678511381149
1772789014034944800,23.51694482421875,-0.0035958001390099525,0.14033660292625427,0.03760836273431778
1772789014054977500,23.5369775390625,-0.018078602850437164,0.043000198900699615,0.008922655135393143
1772789014075009800,23.557009765625,-0.0006996124284341931,0.03748266026377678,0.05554954335093498
1772789014095042800,23.577042724609374,0.022700252011418343,0.019536416977643967,0.06539978086948395
1772789014115076400,23.597076416015625,0.03130625560879707,0.02117639221251011,0.0481393001973629
1772789014135109000,23.617109130859376,0.014966166578233242,0.041316282004117966,0.047319844365119934
1772789014155141400,23.637141357421875,-0.001071123406291008,0.07057616859674454,0.05578896403312683
1772789014175174100,23.657174072265626,0.02237854339182377,0.044743768870830536,0.02538871392607689
1772789014195207400,23.67720751953125,0.08618468791246414,0.06775108724832535,-0.09916307032108307
1772789014215240200,23.697240234375,0.17530150711536407,0.1258215755224228,-0.2622752785682678
1772789014235272200,23.717272216796875,0.24302783608436584,0.09741789847612381,-0.34878116846084595
1772789014255305200,23.73730517578125,0.2407177984714508,0.09598644822835922,-0.33829814195632935
1772789014275338200,23.757338134765625,0.217279314994812,0.05655995011329651,-0.3004298806190491
1772789014295371300,23.777371337890624,0.20144149661064148,0.056286174803972244,-0.25682806968688965
1772789014315404300,23.797404296875,0.19353750348091125,0.1324501782655716,-0.242887482047081
1772789014335436300,23.817436279296874,0.1890636682510376,0.10077294707298279,-0.22783103585243225
1772789014355469300,23.83746923828125,0.1319793313741684,-0.09013069421052933,-0.18354293704032898
1772789014375502300,23.85750244140625,0.060452692210674286,-0.2048913687467575,-0.09208837896585464
1772789014395535000,23.87753515625,0.02297988347709179,-0.13229705393314362,0.0020847225096076727
1772789014415567000,23.897567138671874,0.06064444035291672,0.013864150270819664,0.0032285500783473253
1772789014435600400,23.917600341796874,0.10904072970151901,0.07289764285087585,-0.050225354731082916
1772789014455633200,23.937633056640625,0.08356067538261414,0.008412925526499748,-0.01404631044715643
1772789014475666200,23.957666259765624,0.025139708071947098,-0.13031859695911407,0.030783211812376976
1772789014495698200,23.9776982421875,-0.01564766839146614,-0.22878789901733398,-0.0024791366886347532
1772789014515731500,23.9977314453125,0.0020061591640114784,-0.09501093626022339,-0.0030927290208637714
1772789014535764200,24.01776416015625,0.03313984349370003,0.15289607644081116,0.041614554822444916
1772789014555797200,24.03779736328125,0.04005953669548035,0.19252124428749084,0.08700866997241974
1772789014575829200,24.057829345703126,0.018791530281305313,0.023840351030230522,0.06935803592205048
1772789014595862300,24.0778623046875,-0.020109795033931732,-0.0811997801065445,0.014074273407459259
