time,seconds_elapsed,z,y,x
1772788816389886000,0.088885986328125,-0.18201894740462302,0.4664183650925755,-0.15856792919039725
1772788816409918700,0.108918701171875,-0.24113398419618606,0.5134298532448709,-0.19119272620230912
1772788816429951000,0.128950927734375,-0.42088966284394264,0.2991317073956132,0.0072424088763073085
1772788816449983000,0.14898291015625,-1.6210101330041884,0.296639452188462,0.7323296476706862
1772788816470016000,0.16901611328125,-1.7756214335232972,0.24585370619446037,0.9003486382301896
1772788816490048000,0.189048095703125,-1.4153192181110381,-0.012036913143843411,0.5406698154132813
1772788816510079700,0.209079833984375,-1.405513278889656,-0.3872545197457075,-0.2246026091773063
1772788816530111700,0.22911181640625,-0.44140287404060363,-0.5295969980612397,-0.23199447299428283
1772788816550145000,0.24914501953125,0.8081582111150026,-0.5085048179328441,-0.5628120891164988
1772788816570176800,0.2691767578125,1.018224272352457,-1.0922738434255121,-0.6433110555246472
1772788816590209000,0.289208984375,-0.22287352036237715,-0.4462278099790215,-0.2863084661796689
1772788816610241000,0.309240966796875,-0.5907751048624515,0.27616788817644117,-0.058428077440708874
1772788816630273800,0.329273681640625,-0.5301151767164468,0.3341872386857867,-0.40689109423831105
1772788816650306000,0.34930615234375,-0.7065723983407021,-0.17571458656340835,-0.08845540530532597
1772788816670337800,0.369337890625,-0.2942389669179916,0.06266483822762965,0.14128142495527862
1772788816690370800,0.389370849609375,-0.44968788730502124,0.8755988854423165,-0.09643003744632005
1772788816710403000,0.409403076171875,-0.3018827596694231,0.753177205388248,-0.4057680815577507
1772788816730434800,0.429434814453125,-0.27875439753830433,0.14527151750475167,-0.1637380253046751
1772788816750466800,0.449466796875,0.0929752208173275,0.3601557926788926,0.11470979050248861
1772788816770499800,0.469499755859375,0.804442405462265,0.8258364911466837,-0.06730448072701692
1772788816790531800,0.48953173828125,0.4589852924823761,0.6642638271823526,-0.2680313434720039
1772788816810563800,0.509563720703125,0.09358721523582934,0.38885143354833124,0.2750643108487129
1772788816830596000,0.52959619140625,0.7597434320360422,0.03631663726717233,0.6510340509921312
1772788816850628900,0.54962890625,1.1249018553078174,0.07178630231618881,0.6131053023532033
1772788816870660900,0.569660888671875,0.7129518702447414,0.22384031956791878,0.2891846061378717
1772788816890692900,0.58969287109375,-0.46014907556474205,0.42208559463024137,0.6190595345824956
1772788816910726400,0.609726318359375,1.7489520377844572,0.9774971251666545,0.13016864091902972
1772788816930758100,0.629758056640625,1.4874153170287607,1.2409735818132757,0.23741554819494484
1772788816950790100,0.6497900390625,-0.09069967710077761,1.2162120655223727,-0.7752262478500604
1772788816970822400,0.669822509765625,-0.06613222207725047,1.1649603094518184,-0.09106091162860393
1772788816990855200,0.689855224609375,0.7704103720009327,0.5364499326959252,0.9402475909635424
1772788817010887400,0.709887451171875,1.3659791408807038,0.418343193231523,0.2664268308848142
1772788817030919400,0.72991943359375,2.5264520757853983,1.3084925820738076,0.04419862268865108
1772788817050952200,0.7499521484375,1.5672855570793152,0.7980167563289403,-1.3008807918958365
1772788817070984400,0.769984375,0.1665600969880819,0.46979456352740523,-2.3493759916104375
1772788817091016200,0.79001611328125,0.1791536211013794,0.5965785304442047,-0.856245804066211
1772788817111048200,0.810048095703125,1.2709446494460106,1.3996955325216054,1.979548115222901
1772788817131081200,0.830081298828125,2.000636642089486,1.368252346509695,1.288788349172473
1772788817151113200,0.85011328125,1.4779507385909556,2.3837930788666006,-1.2249791632153093
1772788817171145200,0.870145263671875,2.9365760144650936,0.6229015969634055,-2.2108060175709423
1772788817191177500,0.890177490234375,4.364802060422301,-0.04635989237576723,0.854403098808974
1772788817211210200,0.910210205078125,1.3395879775613546,1.1826923654973507,-0.5672805397674441
1772788817231242200,0.9302421875,-0.02625380067527294,1.1642208892613648,-0.18803484669327736
1772788817251274200,0.950274169921875,1.16353992125988,0.7708806198611855,1.0003995695874095
1772788817271307300,0.970307373046875,2.408284546044469,1.4132333517476916,0.6013276246674358
1772788817291339300,0.99033935546875,2.0595085177749395,0.3936833837494254,-0.38243805937469005
1772788817311371300,1.010371337890625,1.4094266529411077,0.7334948920577764,-0.20651735577993094
1772788817331403300,1.0304033203125,0.4627519515395164,0.5157645798027515,0.2888021826915443
1772788817351436300,1.050436279296875,-0.6512842263609171,0.6308423268347978,0.41365744656808673
1772788817371468300,1.07046826171875,-0.5081920987218618,0.3034165451079607,0.4952180508583784
1772788817391500300,1.090500244140625,-0.7332049692004918,0.8606959153428674,1.1545032128453254
1772788817411532300,1.1105322265625,-1.1420452978104352,0.4837424248591065,1.07325467017889
1772788817431565300,1.1305654296875,-0.8577414494514465,0.5159910820350051,0.72171063850075
1772788817451597300,1.150597412109375,-0.3629442543536424,0.3957257032319903,0.8712861368097364
1772788817471629300,1.17062939453125,-0.569022707259655,-0.005737959130108356,0.8256419184226542
1772788817491662300,1.190662353515625,-0.8937865763008594,0.2997641600802541,0.40283984608612955
1772788817511694000,1.210694091796875,-0.12323650356829166,0.06502104596495628,0.3194411396484822
1772788817531726300,1.230726318359375,-0.5256067593812942,-0.4848649991482496,0.4587134167384356
1772788817551758300,1.25075830078125,-1.4995593438088892,-0.21919103245735166,0.48170609672591086
1772788817571791000,1.270791015625,-1.6032424211233853,0.2834187360875308,0.020695435895770786
1772788817591823400,1.2908232421875,-1.1490420248299837,-0.42241628788933155,-0.14333178161382673
1772788817611855400,1.31085546875,-0.5186754988133907,-0.5967613396652043,-0.13361169404499232
1772788817631887000,1.33088720703125,-0.6703180126547813,-0.5979086100041866,-0.41873482289761305
1772788817651920400,1.35092041015625,-0.49823359928727146,-1.1944469545684755,-0.8721133814141154
1772788817671952100,1.3709521484375,0.32911621903181076,-1.5108612206764518,-0.8785901762127876
1772788817691984100,1.390984130859375,-0.7043442008972167,-0.24489465190395712,0.11835267704948782
1772788817712017400,1.411017333984375,-1.322091483837366,0.12752923232614993,0.02423150106742978
1772788817732049200,1.431049072265625,0.8367606207430363,-1.5714605046764014,0.28397578544840213
1772788817752081200,1.4510810546875,0.2270803244024515,-1.9709065436057744,-0.1881492668531835
1772788817772113400,1.471113525390625,1.2694465198427438,-3.6512487171530723,0.9890613062322139
1772788817792146200,1.491146240234375,-0.8361486263245343,1.470226135688275,0.07936375183314084
1772788817812178400,1.511178466796875,1.3299994804829358,2.013849759405851,-2.2641011160373687
1772788817832210200,1.531210205078125,4.41293860708177,0.24195918297395108,-2.2957214121818543
1772788817852242200,1.5512421875,2.857776618516445,-1.4501517543002962,-4.253013710324466
1772788817872275500,1.571275390625,-0.9639812255114316,-3.773733525571227,-0.5363137390956282
1772788817892307200,1.59130712890625,-0.4529150326579809,-2.5407038884997366,0.7428413970738649
1772788817912339500,1.61133935546875,0.3748398593306541,1.6800322308152913,0.7692053801253438
1772788817932372500,1.63137255859375,-0.1639385163128376,1.2728037213161587,-1.7436717592939734
1772788817952404500,1.651404541015625,-2.9068215121924874,-0.25123401099331677,-1.3227353346988557
1772788817972436500,1.6714365234375,0.4143541235953569,-0.9097636053726077,-0.5715761911347508
1772788817992468500,1.691468505859375,1.4667904621511696,-2.424337124570459,-0.30707331404983995
1772788818012501500,1.71150146484375,-0.449994176775217,-2.34729611659646,0.47433133017420764
1772788818032533500,1.731533447265625,-1.9517571681082249,-1.5038808602698146,0.8037348417147994
1772788818052565500,1.7515654296875,-1.7091186245679855,-1.8929397990889847,0.3450920790597796
1772788818072597500,1.771597412109375,-1.4765525622308253,-2.1033961748182772,-0.7636170585989952
1772788818092630500,1.791630615234375,-2.8639772267222403,-2.553226685464382,-1.2853943228200078
1772788818112662500,1.81166259765625,-4.53159128999114,-2.976483077439666,-0.38782676667571064
1772788818132694500,1.831694580078125,-4.17332379527688,-2.122701763790846,0.7435682500436902
1772788818152727600,1.8517275390625,-1.1994383331149816,-1.7877549389094114,2.73083483068943
1772788818172759600,1.871759521484375,-1.877074559828639,-1.1640031548574565,2.929932338666916
1772788818192791600,1.89179150390625,-5.3715942536562675,-0.1294792704153806,1.8062183779694139
1772788818212823600,1.911823486328125,-5.473814857202768,0.38074769513495266,1.6033496808901428
1772788818232856600,1.931856689453125,-2.1528625087767836,-0.5327383282942697,1.8342215065300465
1772788818252888300,1.951888427734375,-3.4705116262525317,0.025740480858273802,0.5655862300049513
1772788818272920600,1.971920654296875,-5.357816488194465,1.4674666078470646,-0.3313284151885658
1772788818292952600,1.99195263671875,-5.205170934790373,2.3431837128415705,0.8296049768347292
1772788818312985300,2.0119853515625,-4.33755574157834,1.6247414284870028,0.4905863724697381
1772788818333017600,2.032017578125,-4.053788484314084,1.2254811213880776,-0.0012658004184253513
1772788818353049600,2.052049560546875,-2.7070155636847018,1.5680471891015768,0.28572898579128087
1772788818373081300,2.072081298828125,-1.5619494567483663,1.2239146027237175,0.7304213298313319
1772788818393114600,2.092114501953125,-0.40491058794558044,1.4905936548039316,0.7433855138879268
1772788818413146400,2.112146484375,-0.7249433368116617,0.7251369596876204,0.30640847519924863
1772788818433178400,2.132178466796875,-1.7207722374826668,0.8719660088326782,0.1566999981603585
1772788818453211600,2.152211669921875,-2.0341835223823783,1.3145071661882102,1.057995799313858
1772788818473243400,2.172243408203125,-1.2540116348236798,1.2435852256163955,0.9994198378350585
1772788818493275400,2.192275390625,-0.7552876216709613,1.3174379589430987,0.6440247567519545
1772788818513307600,2.2123076171875,-0.5879109476029872,1.417853997285664,0.7800777795344591
1772788818533340400,2.23234033203125,0.17050211261212825,0.896250555261597,1.552584685423225
1772788818553372700,2.25237255859375,1.534075361394882,0.2249611402913928,1.4046432180568575
1772788818573404700,2.27240478515625,1.4761480730831622,0.36317682100050147,0.9532260958064347
1772788818593436400,2.2924365234375,0.5547434220165014,1.0087027760956435,0.6203500858496874
1772788818613469700,2.3124697265625,0.3434709075987339,1.498888604940474,0.09302665874361991
1772788818633501400,2.33250146484375,0.415480497276783,1.806867927919328,-0.04992255329340696
1772788818653533400,2.352533447265625,1.513967223867774,1.6922192199543118,-0.12149963330570608
1772788818673566500,2.37256640625,3.088012192079425,0.7685344220612198,-0.16523388988561927
1772788818693598500,2.392598388671875,4.1551854965180155,0.19243527360931037,-0.01635247478801757
1772788818713630500,2.41263037109375,2.000565914940834,1.2000395138785243,0.40758232790548354
1772788818733662700,2.432662841796875,1.316183136576414,1.480745630006492,-0.34346506237983704
1772788818753695500,2.452695556640625,1.69133688416183,1.1162078228510917,-0.9863133226983248
1772788818773727500,2.4727275390625,2.63432032983005,0.36690380563437935,-0.7936504508782177
1772788818793759500,2.492759521484375,3.3907214657008646,-0.2866797837100923,-0.2628458305928856
1772788818813791500,2.51279150390625,4.039605060660839,-0.8296556841086595,-0.1830682189955376
1772788818833824500,2.532824462890625,2.0944494827747344,-0.0103572164285928,0.25342496343264354
1772788818853856500,2.5528564453125,-1.032135308805108,0.78611399095878,0.15596697117807343
1772788818873888500,2.572888427734375,-0.44956922936141486,0.6450227548133581,-0.6051909490320831
1772788818893921500,2.592921630859375,1.084357078951597,-0.13675035739690064,-0.6515144549202173
1772788818913953300,2.612953369140625,1.6206255176007747,-0.6372409418307244,-0.5087023497989401
1772788818933985300,2.6329853515625,1.5342513024836777,-0.5522237673457712,-0.3566307603579014
1772788818954017300,2.653017333984375,1.2049801851511002,-0.24142843709811568,-0.7604247653637081
1772788818974050300,2.67305029296875,1.7159394104987382,-0.403364381416887,-1.0099884319920092
1772788818994082300,2.693082275390625,1.642792341223359,-0.37569457646384835,-1.2294975174225866
1772788819014114300,2.7131142578125,1.0595049617677927,-0.2589708157904446,-0.8852037491336464
1772788819034146300,2.733146240234375,1.2180085935503244,-0.22478819487728177,-1.1390874709181487
1772788819054179000,2.753178955078125,0.7496756270080804,-0.06387070688605308,-1.3243424776345492
1772788819074211300,2.77321142578125,0.02668517782986164,-0.0040955256853252645,-1.1425704176630824
1772788819094243300,2.793243408203125,0.343700040179491,-0.22008630079664288,-0.8042970056422054
1772788819114276000,2.813276123046875,0.2349059034615755,-0.4100065228451043,-0.8340165096666663
1772788819134308400,2.833308349609375,-0.009463993915915488,-0.31888460174426436,-0.8195147407792508
1772788819154340400,2.85334033203125,-0.7111310845583677,0.047331879213079804,-0.3169777452096343
1772788819174372000,2.8733720703125,-0.54504795743227,0.041465179136767984,-0.5322417404163629
1772788819194405400,2.8934052734375,-0.13312661394178865,-0.11907543836608528,-0.7865444913305342
1772788819214437000,2.91343701171875,0.19058394665420053,-0.1837772623140365,-0.49584516978077586
1772788819234469000,2.93346923828125,-0.9277472980916499,0.2785772874057293,-0.09898026991840451
1772788819254501400,2.95350146484375,-1.0558832641392946,0.2630130769185722,-0.5152926879746839
1772788819274534100,2.9735341796875,-0.07553308762907981,-0.017984131110459566,-0.6218687467843294
1772788819294566100,2.993566162109375,0.15059621965885162,-0.16794892099797726,-0.26489921945873646
1772788819314598400,3.013598388671875,0.102224695199728,-0.2553809015396982,-0.11570004364885389
1772788819334631200,3.033631103515625,-0.4330015409201383,0.050072190897166725,0.13704287407007068
1772788819354663400,3.053663330078125,-0.6493915444821119,0.30508170184120537,0.5206773401550948
1772788819374695400,3.0736953125,-0.4434212281256914,0.30824060426354405,0.472193112569116
1772788819394727200,3.09372705078125,-0.03126899848878383,0.14909516744613646,0.249279424593132
1772788819414760400,3.113760498046875,0.3320768224030733,0.0896659501388669,0.12196714121960103
1772788819434792200,3.133792236328125,0.275489258262515,0.2605659760273993,0.3321853973440826
1772788819454824200,3.15382421875,0.14906944848299025,0.5009957574769854,0.6739758775752037
1772788819474856400,3.1738564453125,0.031529110729694367,0.5442028849102556,0.3605392755711451
1772788819494889200,3.19388916015625,0.20996143181920052,0.41240342791900036,-0.19922928113099186
1772788819514921200,3.213921142578125,0.26333237200081344,0.4300041126698255,-0.3585312602169812
1772788819534953500,3.233953369140625,0.38579204597771166,0.3253326088398695,-0.3910566885076463
1772788819554985200,3.253985107421875,0.43111938043534753,0.21923355642482636,-0.24102066001482306
1772788819575018200,3.274018310546875,0.4889344405442476,0.02931143468022346,0.2076620323030278
1772788819595050200,3.29405029296875,-0.0356406377017498,0.12700886171385645,0.4363634185686707
1772788819615082200,3.314082275390625,-0.1682429355084896,0.17044745981544254,0.05292505044448189
1772788819635115300,3.334115234375,0.274803029564023,0.01562923854738474,-0.11303044084711
1772788819655147300,3.354147216796875,0.11966390577852726,0.08369535129666328,0.2679115347509272
1772788819675179300,3.37417919921875,0.05722235491275787,0.06004194237813353,0.4285247973648831
1772788819695211300,3.394211181640625,0.039839842957258224,0.041757367016375065,0.5444687693048268
1772788819715244300,3.414244384765625,-0.20221242512762547,-0.02445098903700709,0.3408267497655004
1772788819735276300,3.4342763671875,0.03104571112692356,-0.02683423091173172,0.3370429569104686
1772788819755308300,3.454308349609375,0.27304478771984575,-0.11616247352883219,0.09751604258473962
1772788819775341300,3.47434130859375,-0.2848462846726179,0.12747341048568486,0.0413517179580871
1772788819795373300,3.494373291015625,-0.3876215994924307,0.23773849653899667,-0.05326458916373085
1772788819815405300,3.5144052734375,-0.00478314262330532,0.16503917103111743,-0.26921070771599187
1772788819835437300,3.534437255859375,-0.1149777937889099,0.24855843510851264,-0.29766063019605354
1772788819855470000,3.554469970703125,-0.19038754729926585,0.3520148640602827,-0.11958028261568397
1772788819875502300,3.57450244140625,-0.17230653168559074,0.29167598456218835,-0.3158408501341939
1772788819895534300,3.594534423828125,0.23553835614621638,0.11998057051226496,-0.4371119353810325
1772788819915566000,3.614566162109375,0.308727510997653,0.045571518477052445,-0.2822535282330587
1772788819935599400,3.634599365234375,0.23647183760404586,0.018524083206057546,-0.07684157641176134
1772788819955631400,3.65463134765625,0.2389928805142641,0.022120646393299102,-0.09366973328697495
1772788819975663000,3.6746630859375,0.23233868332207203,-0.01142331129014492,-0.20481033266633747
1772788819995696400,3.6946962890625,0.27429040386676784,-0.021681378193199635,-0.13682753255264832
1772788820015728000,3.71472802734375,0.3367074048131704,0.01982654410675168,-0.07311627227831631
1772788820035760000,3.734760009765625,0.25929449478685856,0.10228913873806596,-0.11833000855995342
1772788820055792400,3.75479248046875,0.028615853631496428,0.20491993052065371,0.12087952864598482
1772788820075825200,3.7748251953125,-0.2016097830593586,0.3337444633543491,0.4166420884020626
1772788820095857400,3.794857421875,-0.07743979803323746,0.14038842163830995,0.27202644099015744
1772788820115889400,3.814889404296875,-0.0996498762756586,0.08537117555439472,0.2588923802593723
1772788820135921200,3.834921142578125,-0.3255541426360607,0.06746420133337377,0.27381383586358277
1772788820155954400,3.854954345703125,-0.2341132917791605,0.07918839526623488,0.2727236660066992
1772788820175986200,3.874986083984375,-0.211433842459321,0.0886627644456923,0.36858383114319293
1772788820196018200,3.89501806640625,-0.3182382666647434,0.1361336868032813,0.3506468636427075
1772788820216051500,3.915051513671875,-0.15468027410209179,0.09754603586420416,0.2566001776689663
1772788820236083200,3.935083251953125,0.07854395988285541,0.04937091076001525,0.16297752579357475
1772788820256115200,3.955115234375,0.09911445422470569,0.07166925180777907,0.2251143215591088
1772788820276147500,3.9751474609375,0.07452011119425296,0.14932663811445235,0.10333309483304619
1772788820296180200,3.99518017578125,0.04842062429785728,0.148890877045691,0.06408522641956806
1772788820316212200,4.015212158203125,0.21067045687139033,0.08767842958346009,0.1356423230897635
1772788820336244200,4.035244140625,0.02940788079202175,0.14516966456547378,0.23013540112413464
1772788820356276200,4.055276123046875,-0.14646364989876745,0.13758300882875918,-0.01841251259036362
1772788820376309200,4.075309326171875,-0.04189619096517563,0.09765081141293049,-0.1381764812098816
1772788820396341200,4.09534130859375,0.026666473129391667,0.07700491374731064,-0.04241301791351288
1772788820416373200,4.115373291015625,-0.07768529722690581,0.1490676949173212,-0.09258980169631541
1772788820436406300,4.13540625,0.1489145501822233,-0.001195055003464222,-0.08739745721761137
1772788820456438300,4.155438232421875,0.4348936382770538,-0.11481266635507345,-0.23625077873189002
1772788820476470300,4.17547021484375,0.05146072264611721,-0.12367299528941511,0.01563891969118267
1772788820496502300,4.195502197265625,-0.1543663858473301,0.14135799732282756,0.2447020884739235
1772788820516535300,4.215535400390625,-0.5858014081031083,0.32719898723363877,0.16622929413113743
1772788820536567300,4.2355673828125,-0.5503326198369264,0.2779612013339996,0.02666607127059251
1772788820556599300,4.255599365234375,-0.13084288691878318,0.10885361182019114,-0.08310122132841496
1772788820576631300,4.27563134765625,-0.032930794221162796,0.015219780963659285,0.1699184675052762
1772788820596664000,4.2956640625,-0.14778525389134883,0.14877280362397433,0.21052808925863353
1772788820616696300,4.3156962890625,-0.03859773394167423,0.0973680489487946,0.24280067529939114
1772788820636728300,4.335728271484375,0.17591069365739823,-0.03971212492436171,0.15975213400628416
1772788820656761000,4.355760986328125,0.11080255393087864,-0.016009031645208595,0.3052851885240525
1772788820676793300,4.37579345703125,-0.07278408118188381,0.1423133983515203,0.30913550727665423
1772788820696825300,4.395825439453125,-0.1259580374866724,0.17406652709543705,0.2219602231760509
1772788820716859400,4.415859375,0.38743922866284847,0.04915376087799668,0.07291077630147337
1772788820736892200,4.43589208984375,0.2450666474699974,0.21810002235025167,0.26063239232711494
1772788820756924400,4.45592431640625,0.14194704925715923,0.2748698111899197,0.1240827451340854
1772788820776956400,4.475956298828125,0.26973464025855065,0.2478831661954522,0.04995367908403277
1772788820796989200,4.4959892578125,0.25474983709454535,0.20536372876539824,-0.06555540856998414
1772788820817021400,4.516021484375,0.4279284754395485,0.21359774249494073,-0.02029540372751653
1772788820837053200,4.53605322265625,0.37490474126040935,0.10193886399567127,-0.08101451471485197
1772788820857085200,4.556085205078125,0.30375089162886143,0.08325622922703624,0.049506739034131164
1772788820877118500,4.576118408203125,-0.021265490868687627,0.19067732402607798,0.23158404729617757
1772788820897150200,4.596150146484375,-0.19927520263195037,0.1537014921978116,0.1386191652097739
1772788820917182500,4.616182373046875,-0.002327566164731979,0.000825052647292614,-0.11408155733523889
1772788820937215500,4.636215576171875,-0.15959259606301784,-0.007808335663378238,0.04390875463029369
1772788820957247500,4.65624755859375,-0.4889624975949525,0.08235518873408436,0.26720488431891426
1772788820977279700,4.67627978515625,-0.46315585616528987,0.10975991301015019,0.193780532472115
1772788820997311500,4.6963115234375,-0.5325684150874614,0.08268032903522253,0.08096623686002567
1772788821017344500,4.716344482421875,-0.2724187647759914,-0.02112447496280074,0.11885297298813238
1772788821037376800,4.736376708984375,-0.18101064714491366,-0.0681738109074533,0.20528722946308553
1772788821057408500,4.756408447265625,-0.1576560750424862,-0.061745823686569924,0.24358504887642338
1772788821077440500,4.7764404296875,0.08243161497116089,-0.11326821339204907,0.2778891772774048
1772788821097473500,4.7964736328125,0.05318973839581012,-0.004769990880787373,0.3428898928403854
1772788821117505500,4.816505615234375,-0.1814051994204521,0.03169628399014473,0.27337734414245934
1772788821137537500,4.83653759765625,-0.20276772092282772,0.10016001775488256,0.22890386830149217
1772788821157570600,4.856570556640625,-0.18004267889559267,0.12919278162419795,0.33681970608122647
1772788821177602600,4.8766025390625,0.020225041905045506,-0.04544511561840772,0.18459296261109412
1772788821197634600,4.896634521484375,0.14682313086092472,-0.12288871304392814,0.05819843340329826
1772788821217666600,4.91666650390625,-0.00980593922138214,-0.0668364248238504,0.14230499584935605
1772788821237699600,4.936699462890625,-0.09668401220738887,0.016158230857551095,0.03416214438071474
1772788821257731600,4.956731689453125,0.14882336476743221,-0.0178540749900043,-0.0307084419965744
1772788821277763600,4.976763671875,0.1585053853482008,-0.026026860051602124,-0.05715800270596519
1772788821297796600,4.996796630859375,0.03687456341087818,0.04370499395281076,-0.15367296022307128
1772788821317828600,5.01682861328125,-0.047425183519721026,0.10085501428171992,-0.27878517626905813
1772788821337860600,5.036860595703125,0.021069676035642623,0.0839931651994586,-0.11814146371791139
1772788821357892600,5.056892578125,0.06703413935303687,0.06974149861559271,-0.04750257787117734
1772788821377925600,5.076925537109375,0.12115794372856616,0.03300663593634963,-0.08649096423140726
1772788821397957600,5.09695751953125,-0.09177519737780093,0.08608356160745025,0.02088089373158291
1772788821417989400,5.1169892578125,-0.015079495710134505,0.07312544196546077,0.10077978448788635
1772788821438022700,5.137022705078125,0.1008656818062067,0.025986820302158594,0.19430132320951668
1772788821458054700,5.1570546875,0.02691431041061878,0.020959639789909123,0.13783296500183642
1772788821478086400,5.17708642578125,0.11201485233008861,-0.017611498405784368,0.19999710543202234
1772788821498118700,5.19711865234375,0.0928881270557642,-0.07268661215677857,0.23349779022932052
1772788821518151400,5.2171513671875,-0.002441547933220863,-0.039430969895422455,0.29145028604753315
1772788821538183400,5.237183349609375,0.037243396723270414,-0.01908990039527416,0.26930821327371524
1772788821558215700,5.257215576171875,-0.13604630078077315,0.023511808490753173,0.20747750604897736
1772788821578247400,5.277247314453125,-0.19824702862799168,0.06285860723406075,0.19310115363951771
1772788821598280700,5.29728076171875,-0.19385960732400417,0.06773761144727468,0.11343123106718994
1772788821618312700,5.317312744140625,-0.1792278553813696,0.09955211498960852,0.06941391976219602
1772788821638344400,5.337344482421875,-0.11366788023412228,0.11861936516165733,0.10832959707924164
1772788821658377700,5.357377685546875,-0.11484861445128917,0.1473395559504628,0.054289132738765324
1772788821678409500,5.377409423828125,-0.09095043699145317,0.10093670121580361,-0.04087619113451801
1772788821698441500,5.39744140625,0.015184709650278091,0.06326046603322029,0.10436951607554219
1772788821718473700,5.4174736328125,0.027806875336170194,0.0602199292935431,0.1545761744068004
1772788821738506500,5.437506591796875,0.05283610265254974,0.05434022360518574,0.09912899420671165
1772788821758538500,5.45753857421875,0.10695113919973373,0.03539484624713659,0.06779561611167155
1772788821778570800,5.47757080078125,0.10179857874214648,0.060978492575883864,0.138123426715238
1772788821798603500,5.497603515625,0.06963117010891437,0.08514511171355843,0.14918964079655705
1772788821818635500,5.517635498046875,-0.07158990296125411,0.11070347747057675,0.04180204640831798
1772788821838667500,5.53766748046875,-0.02807984705865383,0.0827227068722248,0.016888791888114065
1772788821858699500,5.557699462890625,0.03489420324862003,0.04863426704853773,-0.022314068339858203
1772788821878732800,5.57773291015625,0.1030307508856058,0.01815685732886195,-0.11035046278182417
1772788821898764500,5.5977646484375,0.020568156254291533,0.07813976299613713,-0.11828394092852249
1772788821918796300,5.61779638671875,-0.003266308319568634,0.10841259005442261,-0.05279606290310621
1772788821938828300,5.637828369140625,-0.12615619040727616,0.17479834850132464,-0.1262611120864749
1772788821958861300,5.657861328125,-0.2094821238696575,0.1942871850863099,-0.1850119917407632
1772788821978893300,5.677893310546875,-0.11983984686732291,0.1675171054519713,-0.07818603155696764
1772788821998925300,5.69792529296875,0.04174947597086429,0.12603724020272492,-0.09894306144686416
1772788822018958300,5.717958251953125,-0.013965981510281562,0.17255013118311763,-0.07422209636205807
1772788822038990300,5.737990234375,0.008064648512005805,0.16272446434795856,-0.028788972575543446
1772788822059022000,5.75802197265625,0.10814414837658405,0.10810103988721965,0.0007503617095761001
1772788822079054300,5.778054443359375,-0.017626257583498953,0.15470920793563125,0.10437876796107738
1772788822099087400,5.79808740234375,0.02139993090331554,0.08964519961178302,0.07608681252170353
1772788822119119000,5.818119140625,0.062382514154911035,0.062008420145511625,0.15734410475017502
1772788822139151400,5.8381513671875,-0.08777706765234469,0.11226473543792963,0.24015317473160103
1772788822159184100,5.85818408203125,-0.055637131547927855,0.07521364641636609,0.11084988193763419
1772788822179216400,5.87821630859375,-0.12297931393682957,0.09691022217869757,0.1413601527472958
1772788822199248400,5.898248291015625,-0.10451602100729941,0.09355082874819635,0.15554903802694753
1772788822219280100,5.918280029296875,-0.06137012224197387,0.07154489477574826,0.07605190560510382
1772788822239313400,5.9383134765625,0.002624503284692764,0.06222381646186113,0.1238595491037704
1772788822259345400,5.958345458984375,-0.06954933704435826,0.05786956677511334,0.02540750431055203
1772788822279377200,5.978377197265625,-0.05451894117295742,0.059351329765468835,-0.08387476298417895
1772788822299410400,5.998410400390625,0.057338090246915815,0.03918737039789557,-0.07905667691165581
1772788822319442200,6.018442138671875,0.1333043085962534,0.07227467035502196,0.045947110323794185
1772788822339474200,6.03847412109375,0.04189969809651375,0.08319719251617788,-0.0313514343415387
1772788822359506400,6.05850634765625,-0.021188918501138687,0.09951850498095154,-0.0810825567160733
1772788822379539200,6.078539306640625,-0.030154899767041204,0.09828574831560254,-0.024365511843794957
1772788822399571200,6.0985712890625,-0.03296060483753681,0.11031871593669056,-0.0015457772704306988
1772788822419603500,6.118603515625,-0.028562077617645263,0.08340396713465452,-0.03186128355981782
1772788822439635200,6.13863525390625,-0.049260582253336904,0.03541691194847226,0.03805036572460085
1772788822459668200,6.158668212890625,-0.07920680770576,0.027704876266419886,0.08178558128573932
1772788822479700200,6.1787001953125,-0.039080549022555346,-0.034677053366601464,0.09557199584487826
1772788822499732200,6.198732177734375,0.09480068267881869,-0.07810717590078711,0.09880533347660675
1772788822519765500,6.218765625,-0.02915828994512558,-0.022063363248109816,0.16423176363836972
1772788822539797200,6.23879736328125,-0.12407529247999191,0.02563844525590539,0.1625346591305919
1772788822559829200,6.258829345703125,-0.06409282520413398,0.028657939207553863,0.18280319311749188
1772788822579861200,6.278861328125,-0.13471709800362586,0.07143836566135287,0.13358439504611305
1772788822599894300,6.298894287109375,-0.056202948737144466,0.059401598647981876,0.14622148430650123
1772788822619926300,6.31892626953125,-0.03618541210293769,0.08017667565122247,0.32652196475490924
1772788822639958300,6.338958251953125,-0.05926116726398468,0.037825142133980985,0.1151716997926589
1772788822659991300,6.3589912109375,0.0073036010116338725,-0.03791428172215819,0.036308024702453985
1772788822680023300,6.379023193359375,0.04960194303691387,-0.03520326919779181,0.08726415882729925
1772788822700055300,6.39905517578125,0.001056231054663658,0.012906097193807363,0.14343319616168737
1772788822720087300,6.41908740234375,-0.03448620696961879,0.046871202898770566,0.056185449613071974
1772788822740120000,6.4391201171875,-0.039920506978034974,-0.027376228833943604,0.05030379856280051
1772788822760152300,6.45915234375,0.08360007422864436,-0.0597710164822638,-0.004188692994648591
1772788822780184300,6.479184326171875,0.20616145501434802,-0.06960530501529574,-0.07193922785557806
1772788822800217300,6.49921728515625,-0.028316578423976897,0.08966142009422183,0.03844052495281212
1772788822820249300,6.519249267578125,0.0024660978525876997,0.06940130687579513,-0.10934820867041126
1772788822840281300,6.53928125,0.1364975516796112,0.06885653247460723,-0.13218884903448633
1772788822860313000,6.55931298828125,0.13852467359304427,0.12479878444895147,-0.07171368460454977
1772788822880346400,6.579346435546875,0.12257424026727676,0.15796046481654047,-0.019232085344940423
1772788822900378000,6.599378173828125,0.11310147852301597,0.1041210303403437,0.039994193268753586
1772788822920409900,6.619409912109375,0.03468611345589161,0.13008797689825297,0.014795847330009564
1772788822940443000,6.63944287109375,-0.03315934228003025,0.13615224537327886,-0.02806239360035397
1772788822960474600,6.659474609375,0.03979249668419361,0.1509263283960521,0.11051126110041513
1772788822980507000,6.6795068359375,-0.05126899946630001,0.17831074053645132,0.22595831636888905
1772788823000539000,6.699538818359375,0.044856794336438174,0.12355214538872242,0.14484051480949856
1772788823020571600,6.719571533203125,0.05815642089247703,0.003550678218901157,0.10051590938731096
1772788823040604000,6.73960400390625,-0.1301145726442337,0.046874710030108686,0.06546960258320905
1772788823060636000,6.759635986328125,-0.09130582630038261,0.01897095019072294,0.028982705049356444
1772788823080669000,6.7796689453125,-0.019544073903560638,0.05383665799722075,0.07542717956919223
1772788823100701000,6.799700927734375,-0.1913140144944191,0.10956672852560877,0.13362532071154565
1772788823120732700,6.819732666015625,-0.015960370197892187,0.12203911047726869,0.1622933429216966
1772788823140764700,6.8397646484375,0.12770458889305591,0.10131590979173778,0.15064468017676844
1772788823160798000,6.8597978515625,0.21944822208881376,0.13523352309316397,0.23173187653534114
1772788823180829700,6.87982958984375,0.2007411835312843,0.18796879571974276,0.2705770458994433
1772788823200862000,6.899862060546875,0.37726679421663284,0.09788505856022238,0.12437114275456405
1772788823220894700,6.919894775390625,0.41796939148306844,0.04958396898880601,0.11080628025792538
1772788823240926700,6.9399267578125,0.35818273904025555,-0.00025412089154124256,0.2530581211479381
1772788823260959000,6.959958984375,0.3896171572238207,-0.14929273584485053,0.34004714369513095
1772788823280990700,6.97999072265625,0.4346791187435388,-0.2816181164063513,0.3548213728483766
1772788823301023700,7.000023681640625,0.5282020365715027,-0.37039033257588744,0.2442099575754255
1772788823321056000,7.020055908203125,0.29514848297834395,-0.3278575972728431,0.0890371324497275
1772788823341087700,7.040087646484375,-0.007453238615393638,-0.17263780946657062,0.016916547544719652
1772788823361120800,7.060120849609375,-0.24395780944526194,0.0036925709076225757,-0.033226635362580415
1772788823381152800,7.08015283203125,-0.36852585387825965,0.12055457100793719,-0.01938504741694778
1772788823401184800,7.100184814453125,-0.4564174878209829,0.22615502625107764,-0.13886860992619768
1772788823421216800,7.120216796875,-0.5188847576498985,0.2978520428486168,-0.3307840426461771
1772788823441249800,7.140249755859375,-0.40201252841651436,0.3734202017910778,-0.3174714104780927
1772788823461281800,7.16028173828125,-0.09882102423608302,0.31974691766202445,-0.38710868153423067
1772788823481313800,7.180313720703125,0.2492091541022062,0.2314461183965206,-0.356996232669428
1772788823501346800,7.200346923828125,0.43930560950040815,0.12266951733529567,-0.15251766184126025
1772788823521378800,7.22037890625,0.6830354554086924,-0.11287234594225883,0.09237129097427241
1772788823541410800,7.240410888671875,0.6730868928462267,-0.21228212985172867,0.5462964231234043
1772788823561442800,7.26044287109375,0.50700201215446,-0.2236900974422693,0.7827183571711183
1772788823581475800,7.280475830078125,0.3902905264407396,-0.1918225485384464,0.6199523187037557
1772788823601507800,7.3005078125,0.21776772165596484,-0.07773790419697761,0.46970582579802717
1772788823621539800,7.320539794921875,0.06134907945394515,-0.1492439282670617,0.27439063110454004
1772788823641572600,7.340572509765625,-0.2589619018316269,-0.028518676867336033,-0.05143413603329099
1772788823661604900,7.36060498046875,-0.8817980323433876,0.29707996249757707,-0.2702049246514216
1772788823681636900,7.380636962890625,-1.1004770236253738,0.39505306466743345,-0.352180649081245
1772788823701668900,7.4006689453125,-1.0618418802827596,0.39211635362841185,-0.4212677389087155
1772788823721702000,7.420701904296875,-1.09138303206563,0.36061237733997403,-0.45283378411531444
1772788823741734000,7.44073388671875,-0.8771732951521873,0.24524923749528824,-0.3993791111730039
1772788823761765600,7.460765625,-0.6505903988778591,0.12847856894023715,-0.3017423282854259
1772788823781799000,7.480798828125,-0.27989889139831065,0.05158098802492022,-0.1813618717353791
1772788823801830700,7.50083056640625,-0.0872322932511568,-0.06783025816679,-0.03432282396829687
1772788823821862700,7.520862548828125,-0.006989712756872176,-0.12724530081823468,-0.027889329455234108
1772788823841895000,7.54089501953125,0.060550622552633285,-0.09138122962415218,-0.03810363941495307
1772788823861927700,7.560927734375,0.12114274615943431,-0.12764467539936303,0.03105416842801496
1772788823881960000,7.5809599609375,0.13521335708796978,-0.16324015878513454,0.19034571745153517
1772788823901992000,7.600991943359375,0.03928863881528377,-0.16195391836687922,0.29038603608319535
1772788823922025200,7.621025146484375,0.03422551020681858,-0.18516352904066444,0.2733939482173882
1772788823942057500,7.641057373046875,0.03388648751080036,-0.21660539987832306,0.33114092979244886
1772788823962089200,7.661089111328125,-0.1288473291873932,-0.1509295432664454,0.39758440977595744
1772788823982121200,7.681121337890625,-0.14279460599720478,-0.11456453681290149,0.3104313923060894
1772788824002154200,7.701154296875,-0.09516483981609344,-0.07415010883808136,0.25211786288945004
1772788824022186200,7.721186279296875,-0.18757716605365274,0.04847147770226001,0.28323879467705265
1772788824042218200,7.74121826171875,-0.1928250035792589,0.08689034794569014,0.13319989837370813
1772788824062251300,7.761251220703125,-0.08462006492614746,0.06868614434376359,0.059390657128859305
1772788824082283300,7.781283203125,-0.006959317618608474,0.07465338218510151,0.1310504926543217
1772788824102315500,7.8013154296875,0.12243512405753135,0.11759484441950917,0.24973120521493256
1772788824122347300,7.82134716796875,0.22182371904850004,0.08325257596522569,0.1631019010919146
1772788824142380300,7.84138037109375,0.32009237009882924,0.04474339708983898,0.13503732466762886
1772788824162412300,7.861412353515625,0.29271102669835086,0.01249576282724738,0.10593014385523274
1772788824182444300,7.8814443359375,0.2441214755743742,0.026863310875743625,0.16611788791222498
1772788824202477300,7.901477294921875,0.23771745375096798,0.015387392615526914,0.16380235924515874
1772788824222509300,7.92150927734375,0.20931378156542776,-0.008060556858778,-0.0017797595562413333
1772788824242541300,7.941541259765625,0.12052081486880778,0.004521422947198152,-0.08478186789173632
1772788824262573300,7.9615732421875,0.061140405139327045,-0.015128595548868178,-0.003371960651129484
1772788824282606300,7.9816064453125,-0.05913491053581237,0.04743161326050758,0.04557809434831142
1772788824302638300,8.001638427734376,-0.13662965362668036,0.039571255148947236,0.00786950953239575
1772788824322668300,8.021668212890624,-0.17230244003236292,0.05433978521376848,0.012102014269307255
1772788824342701300,8.041701416015625,-0.1346855338215828,0.028830080904066562,-0.008271605793572962
1772788824362733300,8.0617333984375,-0.09794833305478096,0.044465895322710274,-0.10897537503633647
1772788824382765300,8.081765380859375,-0.10750409690737724,0.05863368301540613,-0.1214990853164345
1772788824402797300,8.10179736328125,-0.14340133971869945,0.12362214188501239,-0.007093976848945021
1772788824422830300,8.121830322265625,-0.034978374400734896,0.08515534084662794,0.043082258944585915
1772788824442862300,8.1418623046875,0.01227554420530796,0.04916822779476642,0.02942936197146773
1772788824462894000,8.16189404296875,0.059978375622630115,-0.018143851716816425,0.09831705676931887
1772788824482927400,8.18192724609375,0.071987377846241,-0.03748538878560066,0.10908475369494408
1772788824502959400,8.20195947265625,-0.015022797086834907,0.01696823206618428,0.16270970517024397
1772788824522991400,8.221991455078125,-0.17637071238458155,0.0658373307839036,0.18937197704855352
1772788824543023400,8.2420234375,-0.12112521050274372,0.001040156702697277,0.06358177040945738
1772788824563056000,8.26205615234375,-0.07928747172653675,-0.04192585545107722,0.08551580818947405
1772788824583088400,8.28208837890625,-0.09121639445126056,-0.04809504560530185,0.12602997021172194
1772788824603120400,8.302120361328125,-0.0626285978704691,-0.005452127926051617,0.11197744292914867
1772788824623153200,8.322153076171874,-0.22331366534531116,0.12772373198494313,0.24048067138660698
1772788824643185400,8.342185302734375,-0.1679939291834831,0.0971492916315794,0.0686349256131798
1772788824663217400,8.362217529296874,-0.1161456685245037,0.11974646949544548,-0.05863247743900865
1772788824683249200,8.382249267578125,0.10579495490193366,0.11484905284270644,-0.05216810373049229
1772788824703282400,8.402282470703126,0.13712591271102428,0.14040814925208686,-0.09886438845377415
1772788824723314200,8.422314208984375,0.07405132463872433,0.1892024291679263,-0.04373425657991319
1772788824743347500,8.442347412109376,0.2276250988036394,0.1252060500755906,-0.08279515105392783
1772788824763380200,8.462380126953125,0.11312895105183124,0.1403841838546097,-0.06212200005520135
1772788824783412200,8.482412109375,0.04341653240025043,0.15684183605015278,-0.08293795705810189
1772788824803444500,8.502444580078125,0.07994564337432385,0.1328171096011996,-0.03684104473376647
1772788824823476200,8.522476318359375,0.17967267653942107,0.012479103953391312,-0.0794285424313508
1772788824843509200,8.54250927734375,0.15983283455967903,-0.04930500591695308,-0.08380226400354876
1772788824863541200,8.562541259765625,0.06221592541635036,-0.02050926567390561,-0.03709554921779781
1772788824883573200,8.5825732421875,-0.0797036513119936,0.04166822742819786,-0.06408201154917478
1772788824903606500,8.6026064453125,-0.17041969502568244,0.071354194509238,-0.05019123243326321
1772788824923638800,8.622638671875,-0.10838263330757618,0.05436857291683554,-0.005327040241658687
1772788824943670800,8.6426708984375,-0.10641513262689113,0.09082929482981562,-0.03056855860184878
1772788824963703800,8.662703857421874,-0.08308335687816143,0.07115940258949995,-0.005635868728812784
1772788824983735800,8.68273583984375,-0.14876608162224292,0.09476707267016171,-0.030145803145132957
1772788825003767800,8.702767822265624,-0.2142962461531162,0.14354454758167265,0.0038447840609587727
1772788825023799800,8.7227998046875,-0.11258242308497428,0.1423473006211221,-0.029810451977234333
1772788825043832800,8.742832763671874,-0.07371347098648548,0.16149360737875104,-0.04379577750880271
1772788825063864800,8.76286474609375,-0.05239829575717449,0.1836963790975511,-0.02548175685685128
1772788825083896800,8.782896728515626,-0.0835726016998291,0.23116247914955018,0.10360422165831551
1772788825103929900,8.802929931640625,0.015192892956733702,0.16697057748511432,0.07834427259229124
1772788825123961900,8.8229619140625,0.07560030764639378,0.09082359574139118,0.04283984675714746
1772788825143993900,8.842993896484375,0.09975801282525062,0.06228358382508158,0.06589044921062887
1772788825164025900,8.86302587890625,0.06357084715664386,0.10394801186099648,0.10093297488875687
1772788825184059000,8.883058837890625,0.11968377952277659,0.10015621836259961,0.0725572136234492
1772788825204091000,8.9030908203125,-0.05134557183384895,0.15430194230899213,0.17199600443169474
1772788825224123000,8.923122802734374,-0.25358780757784843,0.1738157672047615,0.13353358730748294
1772788825244156000,8.943156005859375,-0.2238169386923313,0.11623860750496387,0.09637726607946678
1772788825264188000,8.96318798828125,-0.05561959589123726,0.04627776705026626,0.21080602941717952
1772788825284219600,8.9832197265625,-0.1198491992175579,0.08648702784180641,0.2211413810738362
1772788825304253000,9.0032529296875,-0.029625907456874847,0.0627981092184782,0.07668945458997041
1772788825324284700,9.02328466796875,0.04670680611729622,0.08662994344383478,0.08085830123983323
1772788825344316700,9.043316650390626,0.03779050921201706,0.11388795272558927,0.23431374625470489
1772788825364349000,9.063348876953125,-0.0014718261182308195,0.11647796921879053,0.17781831737700848
1772788825384381700,9.083381591796876,0.0024871406406164168,0.04033756334632635,0.06183805028097704
1772788825404413700,9.10341357421875,0.1429419055134058,-0.041203386395424604,0.12557932210108264
1772788825424446000,9.123446044921875,0.08220306691229343,0.004416209007054567,0.13800497883418575
1772788825444478700,9.143478759765625,0.1280395199358463,-0.016700374910235405,0.08662833600863813
1772788825464511000,9.163510986328125,0.07683715596497058,0.015430208843946455,0.07031842172071337
1772788825484542700,9.183542724609374,-0.07470715819895267,0.01138341767117381,0.10402672138670459
1772788825504574700,9.20357470703125,-0.14222469715476035,0.012896890974044799,0.11466523897470905
1772788825524608000,9.22360791015625,-0.11704875484406947,-0.008614391349256038,0.048527062080707395
1772788825544639700,9.2436396484375,-0.08735387380421161,-0.03983502065166831,0.04734735077684745
1772788825564671700,9.263671630859376,-0.18830606485009194,0.009817775789648294,0.04694730034228414
1772788825584704800,9.283704833984375,-0.12599018619060515,0.007935176913440227,0.029490298378467557
1772788825604736800,9.30373681640625,-0.03655599898099899,-0.023741817854344843,0.033699002114683387
1772788825624768800,9.323768798828125,-0.06773088944554329,0.01100523200854659,0.07828757396899164
1772788825644801800,9.3438017578125,-0.07490531111955642,0.04478709010109305,0.0022684563886374233
1772788825664833800,9.363833740234375,0.09269991100728511,0.005184709161520004,0.0216443523847498
1772788825684865800,9.38386572265625,0.14693068288862704,0.021282295873016117,0.05483573377085849
1772788825704897800,9.403897705078125,0.027544425007700917,0.09928031231090426,0.08579853412099182
1772788825724930800,9.423930908203126,-0.09699556237459182,0.10952902686372398,0.07651132154408842
1772788825744962800,9.443962890625,0.038357495445013046,0.03933919995874166,0.02062215146385133
1772788825764994800,9.463994873046875,0.013429974937438964,0.017234189525991678,-0.032377178926393385
1772788825785027800,9.48402783203125,-0.06034428632557392,0.035208237633854146,-0.09944132982520386
1772788825805059800,9.504059814453125,-0.05629004249870777,0.061207625156641,-0.08676482186987995
1772788825825091800,9.524091796875,-0.051063832283020014,0.06105038876831531,-0.09644021178046241
1772788825845123800,9.544123779296875,0.03713409112989902,0.0034834582015872,-0.09497234945129603
1772788825865156900,9.564156982421874,0.12381985641419886,-0.016207915218174457,-0.10625216061752289
1772788825885188900,9.58418896484375,0.19490999315977095,-0.03901975874602794,-0.030123244253452867
1772788825905220900,9.604220947265626,0.30907880865335463,-0.1014496191740036,0.06107504828553646
1772788825925253000,9.624253173828125,0.2641857739597559,-0.10615516651645303,-0.0011549787214025855
1772788825945285400,9.644285400390626,0.17934417523741722,-0.09354659096449613,-0.07341773944292217
1772788825965317400,9.6643173828125,0.13725801465809345,-0.1435724585019052,-0.1174067379688844
1772788825985349000,9.68434912109375,0.1261059215247631,-0.15880086116343736,-0.07005494847893715
1772788826005382400,9.70438232421875,-0.002111293065547943,-0.13868307902514934,-0.07968929399307817
1772788826025414100,9.7244140625,-0.0754419022142887,-0.13701441516056656,-0.13225962184891105
1772788826045446100,9.744446044921874,-0.1265320379823446,-0.09205474497154355,-0.11056571296770125
1772788826065479200,9.764479248046875,-0.1308159989118576,-0.06119067402184009,-0.12442947621252387
1772788826085511200,9.78451123046875,-0.13423545196652412,0.0017535656690597532,-0.009079561175592244
1772788826105543400,9.80454345703125,-0.290405672365427,0.09780541745275259,-0.03396368093285709
1772788826125576200,9.824576171875,-0.4181225362181663,0.1607819519780576,-0.15084953683279453
1772788826145608200,9.844608154296875,-0.29232991842627526,0.12365575189366936,-0.17751378147248179
1772788826165640400,9.864640380859376,-0.121143330681324,0.0933398163460195,0.01584514632038772
1772788826185672200,9.884672119140625,-0.03938683849275112,0.10093348634541034,0.1726490980455652
1772788826205705200,9.904705322265626,-0.07694704608023166,0.11533946670815348,0.26417163583654907
1772788826225737200,9.9247373046875,-0.1035363623201847,0.08276464631780982,0.2151015711866319
1772788826245769200,9.944769287109375,-0.14901333438158035,0.022470775005221367,0.2732901773156598
1772788826265802500,9.964802490234375,0.033004443979263304,0.0063413318507373325,0.40215617467090486
1772788826285834200,9.984834228515625,0.104425420114398,-0.055718964612483976,0.4686676053240895
1772788826305866200,10.0048662109375,0.04912205056548118,-0.030771862621605396,0.5250901150960475
1772788826325898200,10.024898193359375,-0.009137830701470374,-0.007418897954374551,0.44115996866282076
1772788826345931300,10.04493115234375,-0.023011457753181457,-0.010477701003104448,0.2791464290631935
1772788826365963300,10.06496337890625,0.026481764212250708,-0.04305953565612435,0.23068963747341184
1772788826385995300,10.084995361328126,-0.15043021544218063,0.07344312961250543,0.3147379303935915
1772788826406028300,10.1050283203125,-0.1519254224359989,0.07285436993911862,0.19247023532483726
1772788826426060300,10.125060302734376,-0.13739713086783886,0.04436988760232925,0.09150712102614343
1772788826446092300,10.14509228515625,-0.23518238231539726,0.06532821221798658,0.06601027619801461
1772788826466125300,10.165125244140626,-0.13326923728287218,0.04201367986500263,-0.04766235327646136
1772788826486157000,10.185156982421875,-0.02841360905766487,0.05656827491819858,-0.09360701591484248
1772788826506189300,10.205189208984375,-0.10930442432761192,0.14903510782197116,-0.13028174590468405
1772788826526221300,10.22522119140625,-0.1795885053873062,0.21935075306370852,-0.08388769553098827
1772788826546254000,10.245254150390625,-0.06441080511212348,0.21884470323771238,-0.053793659105710684
1772788826566286300,10.265286376953124,0.09656243165433406,0.13480901407077908,-0.0280323911877349
1772788826586318300,10.285318359375,0.13833061232566832,0.07795622312277554,-0.046526225386001166
1772788826606351400,10.305351318359374,0.0866571237117052,0.1158735735848546,-0.053783283842168746
1772788826626383400,10.32538330078125,0.05211246455311775,0.1760300822533667,-0.011258585715107619
1772788826646415400,10.345415283203126,0.12551496989428995,0.14022694746628403,0.03683649642281234
1772788826666447000,10.365447021484375,0.2751514046102762,0.06510010255053639,0.04911280781310051
1772788826686480400,10.38548046875,0.27942250605821606,0.03209273596182465,0.04538374081999063
1772788826706512100,10.40551220703125,0.06488777497410773,0.10178820347860455,0.02506590606495738
1772788826726544400,10.42554443359375,-0.002327566164731979,0.09309957784935831,0.02617090816479176
1772788826746577200,10.4455771484375,-0.00935059666931629,0.11101415085494518,0.09149353089220821
1772788826766609200,10.465609130859375,-0.12715513831675052,0.13198445816934107,0.1491332709668204
1772788826786641400,10.485641357421875,-0.23652093744277952,0.1353222242899239,0.19845329178981483
1772788826806674200,10.505674072265625,-0.2811941919058561,0.11644172886162996,0.1671513043468818
1772788826826706200,10.5257060546875,-0.1826782880961895,0.0689393884524703,0.15577574118860066
1772788826846738400,10.545738525390625,-0.01335047996044159,0.04327288614585995,0.22289237119331953
1772788826866770200,10.565770263671874,-0.0521188942939043,0.10381737121865153,0.17882332970108836
1772788826886803500,10.585803466796875,-0.09701075994372367,0.1276613342732191,0.16955076670404523
1772788826906835200,10.605835205078124,-0.05450491264760494,0.08860051286444068,0.13933135033342986
1772788826926867200,10.6258671875,-0.12300035672485828,0.12293065248951315,0.19116992984861134
1772788826946900200,10.645900146484376,-0.15138298612236975,0.1156852114059031,0.10517594622075557
1772788826966932200,10.66593212890625,-0.04900573070943355,0.07718859975114464,0.09255111365374177
1772788826986964200,10.685964111328126,-0.05911094513833522,0.09996946361884475,0.1102805028181523
1772788827006997000,10.7059970703125,-0.024471593433618544,0.13733385637328027,0.05888239707946777
1772788827027029200,10.726029296875,0.08183774073123931,0.12227891058251261,0.025849348060227928
1772788827047061200,10.746061279296875,0.1898234836757183,0.11462912648171186,0.06526080953758209
1772788827067093200,10.76609326171875,0.22369418909549713,0.1021760337524116,0.035367921707592904
1772788827087126300,10.786126220703125,0.14562778359651565,0.11188552686199545,0.016047573557309805
1772788827107158300,10.806158203125,0.1964595606893301,0.06698883890658616,-0.09089202133510262
1772788827127190000,10.82618994140625,0.1967512371122837,0.02189677450954914,-0.10710457619577646
1772788827147223300,10.846223388671875,0.058597150397300714,0.04053469335362315,-0.061058864335715765
1772788827167255000,10.866255126953124,-0.1002075101584196,0.11066489902585744,-0.0549819190422073
1772788827187287000,10.886287109375,-0.22235212683677671,0.12941285411566494,-0.05047971225213259
1772788827207320300,10.9063203125,-0.21603870590627192,0.09229980577379465,-0.0537006105273962
1772788827227352000,10.92635205078125,-0.19721827010214327,0.08803323437049984,-0.05815360788088292
1772788827247384000,10.946384033203126,-0.025657588347792623,0.030404490613937376,0.014878127919137478
1772788827267416300,10.966416259765625,0.11390519612133503,0.024660101743042468,0.08234645743835717
1772788827287449000,10.986448974609376,0.18474048132300375,-0.03241480752304196,0.08365516541674732
1772788827307481300,11.0064814453125,0.1455950503706932,0.02470189505815506,0.10126523905042559
1772788827327513300,11.026513427734375,0.15865619199573994,0.04802388006523251,0.048395599454455075
1772788827347546000,11.046546142578125,0.11525018098950385,0.10248816844150424,0.05395900573525578
1772788827367578400,11.066578369140625,0.06621288609802722,0.10488865371197462,0.05156575392317027
1772788827387610000,11.086610107421874,0.05186871892511844,0.06814487707391381,-0.016526698843762278
1772788827407643100,11.10664306640625,-0.050555882760882374,0.08380670271664857,-0.002537665251456201
1772788827427675100,11.126675048828124,-0.08600012110769749,0.10018544445708394,0.023618081876821816
1772788827447707100,11.14670703125,-0.07198445523679256,0.09297332112118602,0.037383681976795195
1772788827467739100,11.1667392578125,0.014929273584485054,0.03037380321472883,0.021734313956834374
1772788827487772200,11.186772216796875,0.015923545318841933,0.02146189022362232,0.05648293472230434
1772788827507804200,11.20680419921875,-0.09139408910572529,0.04415609872117638,0.008696808935701846
1772788827527836200,11.226836181640625,-0.0667939008563757,0.009646803136914968,-0.029025420813076196
1772788827547869200,11.246869140625,-0.0719610743612051,0.032582711435854436,0.04360745186246931
1772788827567901200,11.266901123046875,-0.08642097686827183,0.030058307524770497,0.05851140834260732
1772788827587933200,11.28693310546875,-0.11697919673919677,0.023177315839380024,0.10003646444045007
1772788827607965200,11.306965087890624,-0.08963467821776866,0.012223814018070697,0.06554726179614663
1772788827627998200,11.326998291015625,-0.04320259738862514,-0.006247954478859901,0.0642218218786642
1772788827648030200,11.3470302734375,-0.056903790482878684,0.028376053526252505,0.10758556464575231
1772788827668062200,11.367062255859375,-0.057747255569696426,0.028784342066198586,0.14748999727182088
1772788827688095000,11.387094970703124,0.02656009014546871,0.008799100266396999,0.13117398203667252
1772788827708127200,11.407127197265625,-0.056852352556586265,0.059449237181991334,0.14782452645581215
1772788827728159200,11.4271591796875,-0.020867431461811064,0.035558950767666096,0.0457359517911449
1772788827748192000,11.44719189453125,0.06371230145394802,-0.016781185061484575,-0.00847878227084875
1772788827768224300,11.467224365234374,0.06891337722837924,-0.007456891877204179,0.05867361316699534
1772788827788256300,11.48725634765625,0.030043840608000753,-0.0004819382980465889,0.029343583384156224
1772788827808288000,11.5072880859375,0.005370587122440338,-0.035182810931652785,-0.043270182732120153
1772788827828321300,11.5273212890625,0.034437107130885124,-0.0172559629663825,-0.08775116602610797
1772788827848353000,11.54735302734375,0.015306874725222587,0.09054171006008982,-0.06324008083231747
1772788827868385000,11.567385009765625,0.05487023882865905,0.05527750445529818,0.020234248124808073
1772788827888418300,11.587418212890626,-0.014117372679710386,0.01599792572930455,-0.0066618325093761085
1772788827908450000,11.607449951171875,-0.17815759580135346,0.04015460799485445,0.04807078794687986
1772788827928482600,11.627482666015625,-0.20486498546302317,0.031423458398133514,0.11550660343598573
1772788827948515300,11.647515380859375,-0.1781330458819866,-0.005653349586576223,0.15377203668337314
1772788827968547300,11.66754736328125,-0.07327917122244834,-0.05384148030281066,0.18597919280510394
1772788827988579600,11.68757958984375,-0.0379366396844387,-0.0672226476624608,0.14945205459240823
1772788828008611300,11.707611328125,-0.05316168134510517,-0.021736469381302595,0.17603037451431156
1772788828028644400,11.727644287109374,0.02866027729511261,-0.012042758362740278,0.15607903498411177
1772788828048676600,11.747676513671875,0.12207915022671222,-0.027880817355215547,0.0483883659960702
1772788828068708400,11.767708251953126,0.06091828682124614,0.05539893887788057,0.11043499926012008
1772788828088741600,11.78774169921875,0.009385667982697486,0.10325871442258358,0.11049816415682434
1772788828108773400,11.8077734375,0.0452478394806385,0.1372409173928201,0.0397363825827837
1772788828128805400,11.827805419921875,0.08770400241613388,0.1317564946323633,-0.020764190283045172
1772788828148838400,11.84783837890625,0.08135141851902007,0.10622077909857033,-0.006762808665819466
1772788828168870400,11.867870361328125,0.041945290803909296,0.09282631386592984,0.056545990021154284
1772788828188902400,11.88790234375,0.07949556151926516,0.0129306471131742,-0.06153853761143982
1772788828208935400,11.907935302734375,-0.05367489156424999,0.03341857773810625,-0.0003575082007795572
1772788828228967400,11.927967529296875,-0.18217969092428682,0.04809153847396373,0.03677694825530052
1772788828248999400,11.94799951171875,-0.13706746052205562,0.009179916277527808,-0.006431786613166332
1772788828269031400,11.968031494140625,-0.08422901978194713,-0.012043489015102386,0.075165094566904
1772788828289064400,11.988064453125,-0.03101122433543205,-0.021368220590800045,0.07635832293946296
1772788828309096400,12.008096435546875,-0.10768179156184196,0.014738281057029961,0.12368190924823283
1772788828329127400,12.02812744140625,-0.061547232374548906,0.00979337200075388,0.17496110131498424
1772788828349160400,12.048160400390625,-0.11751228070259094,0.06370645623505115,0.11605444657709449
1772788828369192400,12.0681923828125,-0.08102408626079559,0.04075856523737311,0.06167473121173679
1772788828389224400,12.088224365234375,-0.13166647826135158,0.002664689164608717,-0.04317052174992859
1772788828409257500,12.108257568359376,-0.02695931859612465,0.043350773687660694,-0.0475087336173281
1772788828429289200,12.128289306640625,0.03714578156769276,0.07235898763760924,-0.0341385991083458
1772788828449321500,12.148321533203125,0.02146422831118107,0.07416632932052016,-0.09908906405512242
1772788828469353500,12.168353515625,0.031007132682204244,0.07772869797721504,-0.11184369701426476
1772788828489386200,12.18838623046875,-0.13989888455569743,0.1528016207486391,-0.03816471281927079
1772788828509418500,12.20841845703125,-0.13117898700535296,0.18375483128651976,-0.019224851886555552
1772788828529450500,12.228450439453125,-0.10139116698503493,0.11690335502400993,-0.05537636171989142
1772788828549483500,12.2484833984375,-0.006571195083856582,0.045150370455533266,0.022590930786170065
1772788828569515500,12.268515625,0.08731178822815418,0.01845306379646063,0.0882765781397
1772788828589547500,12.288547607421876,0.13537643869519234,0.011691314576566218,0.16594927161335943
1772788828609580500,12.30858056640625,0.1696282523870468,-0.030703327430039642,0.1814314663728699
1772788828629612500,12.328612548828126,0.03648059565722942,0.029048107568919658,0.21990955599024892
1772788828649644300,12.348644287109375,-0.01591419296860695,0.016348784993588925,0.16610259901154786
1772788828669676500,12.368676513671875,0.04120177896022796,0.012558452799916266,0.17226229068506507
1772788828689709300,12.388709228515625,0.05516425333917141,0.02715571795105934,0.19315058227181434
1772788828709741300,12.4087412109375,-0.08439794660806656,0.07457140299007296,0.13266739893220364
1772788828729773600,12.428773681640624,-0.17202128500342367,0.1029267059892416,0.08685345000140368
1772788828749806300,12.448806396484375,-0.10734510695338248,0.1146415475718677,0.09552421118039638
1772788828769838300,12.46883837890625,-0.05731763198077678,0.09143748985603452,0.030213863412663338
1772788828789870600,12.48887060546875,-0.01446457868218422,0.061931263256072996,0.0036856297101825475
1772788828809903400,12.5089033203125,-0.0415489849627018,0.0776446729555726,-0.007774689122103154
1772788828829935600,12.528935546875,0.012009586745500563,0.0595847001299262,0.006698657388426363
1772788828849967400,12.54896728515625,0.1025999582529068,0.03833513748273253,0.0036353973602876065
1772788828870000400,12.56900048828125,0.008453940090537071,0.06087926998510956,0.033457302313297986
1772788828890032600,12.58903271484375,-0.09170096309781074,0.11303045911341905,0.033796544205024835
1772788828910064400,12.609064453125,-0.13896189596652983,0.11810030972361564,-0.04739982988275587
1772788828930096400,12.629096435546876,-0.06821721165776252,0.1100185639463365,-0.11370707973334937
1772788828950129200,12.649129150390625,-0.07690028432905674,0.14166414066255092,-0.020254669858328998
1772788828970161200,12.6691611328125,-0.0463981785595417,0.13660305788069962,0.046315797505714
1772788828990193400,12.689193359375,0.18227847512364387,0.03281593566983938,0.04772303395513445
1772788829010226200,12.70922607421875,0.2593447636693716,-0.10485869696512817,-0.03924341143406927
1772788829030258400,12.729258544921874,-0.24289456412792204,-0.08036752204820513,0.02889912755228579
1772788829050290400,12.74929052734375,-0.12447861258387564,0.11603987006247043,0.20513594789151102
1772788829070323200,12.7693232421875,0.06787701991796494,-0.04140796905681491,0.10306151135005057
1772788829090355500,12.78935546875,0.05611117880046367,-0.03933452378362417,0.0654822702685371
1772788829110387200,12.80938720703125,-0.07064765367507934,-0.004976180977374315,0.08508366384990512
1772788829130420200,12.829420166015625,-0.17555179721713066,0.03930076764449477,0.04196041530780494
1772788829150452500,12.849452392578126,-0.14289514376223086,0.10374255241677165,0.008206468135491012
1772788829170484200,12.869484130859375,-0.10690846910178661,0.132001409304142,0.007356792503595352
1772788829190516200,12.88951611328125,-0.061976855963468545,0.1203663549594581,0.04243775049597025
1772788829210549200,12.90954931640625,0.020761048477888105,0.075073945684731,0.034233182056620716
1772788829230581200,12.929581298828126,0.013754969108104705,0.06617386926189064,0.04688143203184008
1772788829250613200,12.94961328125,0.005938157877326012,0.06148541918471455,0.048494712447375056
1772788829270646300,12.969646240234376,-0.01309504389464855,0.06604015987962485,0.06138568513728678
1772788829290678300,12.98967822265625,-0.07608779890239238,0.06147007548511028,0.09246880566515028
1772788829310710500,13.00971044921875,-0.06039163259863853,0.028923750536888837,0.0672165832478553
1772788829330743300,13.029743408203124,-0.06026712943613529,-0.009865852715075016,0.09434811660572887
1772788829350775300,13.049775390625,-0.12718787154257297,0.029120734413713215,0.051002311354130504
1772788829370807300,13.069807373046874,-0.04795300678610801,-0.00791778738722205,-0.008087883257120848
1772788829390840300,13.08984033203125,-0.030623686322569846,-0.005094254399091005,-0.023739479766786097
1772788829410872300,13.109872314453124,-0.1297492464631796,0.08516337802261113,0.04512852394990623
1772788829430904300,13.129904296875,-0.07704816836714744,0.1040311600998044,0.044375330962426955
1772788829450936300,13.149936279296876,0.005962123274803161,0.07698957004770636,-0.04890873660836369
1772788829470969000,13.169968994140625,0.03639525546133518,0.05429565381109714,-0.03817578220255673
1772788829491001300,13.19000146484375,0.061244450035691254,0.06358429116010665,0.07255396222043782
1772788829511033300,13.210033447265625,0.06586626461744308,0.0792830878123641,0.08462298753559588
1772788829531066400,13.23006640625,-0.10987199508249759,0.13429361189454794,0.12513554212264716
1772788829551098400,13.250098388671875,-0.1299924075692892,0.0781152130767703,0.10123407672718167
1772788829571130400,13.27013037109375,-0.03351239350140094,0.03961041811555624,0.12921221697703003
1772788829591163400,13.290163330078125,-0.054341246518492696,0.023895400980859995,0.11303049564603715
1772788829611195400,13.3101953125,-0.008203180199861526,0.030145109025388955,0.1725019446598366
1772788829631227100,13.33022705078125,0.03018471038341522,0.02031914992928505,0.15262790814954785
1772788829651260400,13.350260498046875,0.1230079555094242,0.0019227847561240196,0.12098726333677769
1772788829671292400,13.37029248046875,0.07447977918386459,0.020345599544793366,0.11964878127463162
1772788829691324200,13.39032421875,-0.07670680758357047,0.09176862150654196,0.10974036805946379
1772788829711356400,13.4103564453125,-0.03439502155482769,0.047613691829144954,0.029654183703288435
1772788829731389200,13.43038916015625,-0.009065349987149238,0.0507430758960545,-0.022843078916333616
1772788829751421200,13.450421142578126,0.007425181564688682,0.02549143800064921,-0.02035042185038328
1772788829771453400,13.470453369140625,0.06174421625137329,0.023064064723253248,0.04251161944977939
1772788829791486200,13.490486328125,0.006909048736095428,0.018208441385626793,0.011008118085376918
1772788829811518500,13.5105185546875,-0.08280395541489124,0.04680398288145661,0.01975965288300067
1772788829831550500,13.530550537109375,-0.013028992921113968,0.015039602091163395,0.014295359595119952
1772788829851583200,13.550583251953125,0.035463527569174765,-0.0033209611162543294,0.021596403323486446
1772788829871615500,13.570615478515625,0.03261222979128361,-0.003075900314003229,0.016491262204200028
1772788829891647200,13.590647216796874,-0.028073417317867277,0.016124328587949276,0.054431226356886325
1772788829911679200,13.61067919921875,-0.014393267011642456,-0.007269552611559629,0.06821143950410187
1772788829931712300,13.630712158203124,-0.02487257544994354,0.025394115106016395,0.0734225982811302
1772788829951744000,13.650743896484375,-0.03795651342868805,0.022865473411232233,0.05554642105717212
1772788829971776300,13.6707763671875,-0.05959785187244415,0.01933306150138378,0.009022241497784852
1772788829991809000,13.69080908203125,-0.06541033754348755,0.03703574532195925,0.05059278070516884
1772788830011841000,13.710841064453126,-0.03285948255062103,0.052502340653538704,0.07769022913035005
1772788830031873300,13.730873291015625,-0.0324514862716198,0.04982391522452235,0.005497136111557483
1772788830051906000,13.750906005859376,-0.033005613023042675,0.02539543028026819,0.039192375366576014
1772788830071938000,13.77093798828125,-0.03056289604604244,0.04175006049275398,0.06737612119112163
1772788830091970300,13.79097021484375,0.010693827971816063,0.029225509962439535,0.05768065660689026
1772788830112003000,13.811003173828125,-0.012720949885249137,0.057781888491660355,-0.008046199539862573
1772788830132035300,13.831035400390626,0.06420680697262286,0.030893735435605047,0.021845044322311876
1772788830152067000,13.851067138671874,0.06527414394319057,0.04056099683865905,0.08608505944479257
1772788830172100000,13.87110009765625,-0.01742342848777771,0.06345087403878569,0.036971520979329944
1772788830192132400,13.89113232421875,0.013971826729178427,0.03237316033840179,0.03062978726979345
1772788830212164000,13.9111640625,-0.03263970232009888,0.025332740307599303,0.024974537987075746
1772788830232196000,13.931196044921874,0.000824175864458084,0.024507541529834267,0.055195634858123954
1772788830252229000,13.95122900390625,-0.005960369709134101,0.027334435518831014,0.031966588831506666
1772788830272261000,13.97126123046875,-0.0712421124368906,0.059816755320131774,0.007996149853058158
1772788830292293000,13.991293212890625,-0.08984276801049709,0.07921119161993265,0.04063380634654313
1772788830312326100,14.011326171875,0.0377232891947031,0.06974661318212746,0.04406319627333432
1772788830332358100,14.031358154296875,0.06658931819498538,0.07779489508122206,0.029395423169247804
1772788830352390100,14.05139013671875,0.0845697960436344,0.06437047310173512,0.011700082404911518
1772788830372423200,14.071423095703125,0.12207973474860191,0.014736819752305745,-0.0065143137974664565
1772788830392455200,14.091455078125,0.08460895901024341,0.033726474643498656,0.03714318775180727
1772788830412487000,14.11148681640625,0.037327567875385284,0.032560937995463606,0.052096390201151366
1772788830432520200,14.131520263671876,-0.035030981370806694,0.03095774058252573,0.06635474225413054
1772788830452552200,14.15155224609375,-0.0938549262613058,0.03742912855371833,0.08592559456676244
1772788830472584200,14.171584228515625,-0.12278116101622581,0.04462050136253237,0.09972970004621892
1772788830492616200,14.1916162109375,-0.09696399819254875,0.032581834653019906,0.10400913093108684
1772788830512649000,14.21164892578125,-0.07420271580815314,0.005929390048980712,0.07844963266290723
1772788830532681200,14.23168115234375,0.023988778352737425,-0.000730067840218544,0.10255560765452683
1772788830552713200,14.251713134765625,-0.04171089752614498,0.046776071961224075,0.12940627824440598
1772788830572746000,14.27174609375,-0.019819968235492706,0.04855784081146121,0.10534534797091036
1772788830592778200,14.2917783203125,0.031440263402462004,0.009696049106121063,0.04908716191519052
1772788830612810200,14.311810302734376,0.014317863687872886,0.032402824824303386,0.04611508730184286
1772788830632843300,14.33184326171875,0.0010053776502609252,0.04802461071759462,0.021066388100013135
1772788830652875300,14.351875244140626,0.051453123861551285,0.034584845038503405,0.004262625880539417
1772788830672907000,14.371906982421875,0.02607902863025665,0.03695011286512017,-0.0045490416064858435
1772788830692940300,14.391940185546876,0.010972060391306876,0.05038198749870062,-0.005648819541931152
1772788830712972300,14.41197216796875,-0.06658113488852978,0.04809899112805724,-0.04204272329639643
1772788830733004000,14.432004150390625,-0.10613339307606219,0.05039382406696677,-0.018594700756855306
1772788830753036300,14.452036376953124,-0.04613806631863117,0.02551525726765394,0.03851644886638969
1772788830773069000,14.472069091796875,0.0358890595048666,0.003289250803738832,0.09341569459382444
1772788830793101000,14.49210107421875,0.0810667563587427,-0.0163486388631165,0.08079334624484182
1772788830813133300,14.51213330078125,-0.004365793994069099,0.013266747199743986,0.07716452475581317
1772788830833166000,14.532166015625,-0.03300678206682205,0.03636588323637843,0.11858487837016582
1772788830853198000,14.552197998046875,-0.07620353423655032,0.04847644613832235,0.09747125359494238
1772788830873230300,14.572230224609376,-0.15999942329823968,0.07146452301591634,0.10311678520124405
1772788830893263000,14.59226318359375,-0.1686877566665411,0.06898366598561406,0.03206456931326538
1772788830913295000,14.612295166015626,-0.15511691195368765,0.08846198117658495,0.05053155203722417
1772788830933327600,14.63232763671875,-0.009843348622322083,0.06004354981333017,0.026132695046253502
1772788830953360600,14.652360595703126,0.040435470762848855,0.06880933233201503,0.0725747492801398
1772788830973392600,14.672392578125,0.06560556785464286,0.05265870025902986,0.09271854264251887
1772788830993424600,14.692424560546876,0.0779910021752119,0.06389891006723046,0.0680894205596298
1772788831013457700,14.712457763671875,0.0739607237458229,0.05711670258119702,0.09170750243645161
1772788831033489700,14.73248974609375,0.015243746361136436,0.05818535472601652,0.0931048750789836
1772788831053521700,14.752521728515624,-0.012134089908003807,0.02062894653081894,0.014133921955712139
1772788831073553700,14.7725537109375,-0.008233575338125229,0.0019227847561240196,0.03479834165871143
1772788831093586700,14.792586669921874,-0.10413725082278251,0.058919075828045606,0.07205952976699918
1772788831113618700,14.81261865234375,-0.17423194679021833,0.0841335965834558,0.009256488645076751
1772788831133650400,14.832650390625,-0.07422142050862311,0.037453678473085165,-0.010986015851423144
1772788831153683700,14.85268359375,-0.034568040034174914,0.04104527322426438,-0.010653094102628529
1772788831173715700,14.8727158203125,0.02973638209402561,0.032294103752821685,0.015316227075457572
1772788831193747700,14.892747802734375,0.010865677407383919,0.05933408636972308,0.04852781099937856
1772788831213780700,14.91278076171875,0.02134907749891281,0.06247165374308824,0.02568564539849758
1772788831233812500,14.9328125,0.06576163519918918,0.06227393921390176,0.003550824349373579
1772788831253844700,14.9528447265625,0.008785364001989364,0.10076821278110146,0.056874783584102986
1772788831273877500,14.97287744140625,0.009847440275549887,0.07425152338594197,-0.002516439800336957
1772788831293909500,14.992909423828126,-0.028370938959717748,0.06779547911435366,-0.0489986433815211
1772788831313941800,15.012941650390625,-0.09796703775525092,0.10445099294707179,0.0063236500635743135
1772788831333974500,15.032974609375,-0.06811725841462611,0.08965703618004918,0.014488617144897579
1772788831354006500,15.053006591796875,-0.0060071314603090285,0.04034793860986829,0.003841916250437498
1772788831374038800,15.073038818359375,0.023525252494215963,-0.007309446230530738,0.05269508674666285
1772788831394071600,15.093071533203124,-0.05532675042450428,0.04633300436884165,0.1077340332057327
1772788831414103800,15.113103759765625,-0.1063467435657978,0.06710954267680645,0.24301702146381138
1772788831434135600,15.133135498046874,-0.05859013613462448,0.04645180844292044,0.06841207664273678
1772788831454167600,15.15316748046875,-0.05486264004409313,0.08546396840438246,0.13438947348445654
1772788831474200800,15.173200927734374,-0.04941138890087604,0.08093187793269753,0.0707351858280599
1772788831494232600,15.193232666015625,-0.029670331120491025,0.07868336835354565,0.054369668895378705
1772788831514264600,15.2132646484375,0.07307984925806522,0.03432239471003413,0.02960756808258593
1772788831534297600,15.233297607421875,0.08665361658036708,0.040651451601088046,0.045715383927151555
1772788831554329600,15.25332958984375,-0.040672202128171915,0.08501973176822065,0.022048896331340072
1772788831574361600,15.273361572265625,-0.032329905718564984,0.06015227088481188,0.013135229774564505
1772788831594394600,15.29339453125,-0.0937070422232151,0.08246420206651091,0.05865889052189886
1772788831614426600,15.313426513671875,-0.10051087701916694,0.08761486282795668,0.02779145857132971
1772788831634458600,15.333458740234375,-0.08035130156576634,0.07930719934031367,0.023471184219419954
1772788831654491600,15.35349169921875,-0.08393266718387603,0.06922171252518892,0.06197400641925633
1772788831674523600,15.373523681640625,-0.016150339812040327,0.06732347768843173,0.08385850596912205
1772788831694555600,15.3935556640625,0.013890578186511992,0.04430310597643256,0.05838116955906152
1772788831714588700,15.413588623046875,-0.033007366588711735,0.03424640686437488,0.05112535321190953
1772788831734620700,15.43362060546875,0.0011684592574834824,0.01794569879621267,0.036317367919534445
1772788831754652700,15.453652587890625,-0.019324293673038482,0.032901275865733624,0.048684755126759405
1772788831774684700,15.4736845703125,-0.009958499434590339,0.059688745026290416,0.06092018651738763
1772788831794717400,15.493717529296875,0.0035252515166997907,0.04876023151576519,0.06844159499816596
1772788831814749700,15.513749755859376,-0.012878770795464515,0.03502265193387866,0.03716521692052483
1772788831834781700,15.53378173828125,-0.030159575942158696,0.048620530784130096,0.08460157942138612
1772788831854814500,15.553814453125,-0.05375263297557831,0.06448343195691704,0.05169051281400024
1772788831874846700,15.5738466796875,-0.04660217669904232,0.03395663013756275,-0.0008311170618981122
1772788831894878700,15.593878662109375,0.018519407030940054,0.018045213647931813,-0.005914046349376439
1772788831914911700,15.613911865234375,0.03256605256199836,0.023132015392929313,-0.0012609598465263842
1772788831934944000,15.633944091796875,0.038352234748005865,0.0340521994665265,0.0822669989939779
1772788831954976000,15.65397607421875,-0.01673018552660942,0.02557210202142596,0.08848952677063643
1772788831975009000,15.674009033203125,-0.059958501878380775,0.0028514439083635805,0.0030988427981734276
1772788831995041000,15.694041015625,0.010462941825389862,-0.04799348492696881,0.0253556827917695
1772788832015073000,15.714072998046875,0.0062982233613729476,-0.018424568354338408,0.09916026612780987
1772788832035106000,15.73410595703125,-0.013563245928287506,0.010859393797069787,0.13899799019321799
1772788832055138000,15.754137939453125,-0.03074409783184528,-0.025007161615043877,0.06466448761224747
1772788832075170000,15.774170166015624,-0.0993541081994772,-0.006453121662139892,0.01643017966672778
1772788832095202800,15.794202880859375,-0.09804068751335143,0.006933014133572578,0.055011620060727
1772788832115235000,15.814235107421876,0.04794774608910084,-0.009243483033031224,0.05109904972687363
1772788832135267000,15.83426708984375,0.03690495854914188,-0.000029956746846437452,-0.02744257206842303
1772788832155300000,15.854300048828126,-0.06963526176214217,0.038866321749985215,-0.006547741143032908
1772788832175332000,15.87433203125,-0.06367606109678745,0.05433364773392677,-0.07066803887598216
1772788832195364000,15.894364013671876,-0.05016776022613048,0.03539206976816058,-0.08804857807010412
1772788832215395800,15.914395751953125,-0.00263210206925869,0.01821004882082343,-0.07286722942069172
1772788832235429000,15.93442919921875,-0.00843348182439804,0.042168724296241994,-0.04561418857499957
1772788832255460900,15.9544609375,-0.05449205316603183,0.05711071123182773,-0.0071384735777974126
1772788832275492900,15.974492919921875,-0.03852876035869121,0.06826119692996144,0.019402546541020273
1772788832295526100,15.994526123046874,-0.022342180189490315,0.06078925361409783,0.030386005109176037
1772788832315558000,16.014557861328125,0.02911737341284752,0.034796149701625104,0.07321954998970032
1772788832335590100,16.034590087890624,0.16394786866307257,-0.017588848182559014,0.11145349212028086
1772788832355623000,16.054622802734375,0.1017021326303482,0.0016056816309690475,0.11700681539848447
1772788832375655000,16.074655029296874,0.018666122025251388,0.03599836509823799,0.12214198632985353
1772788832395687200,16.094687255859377,-0.020716624814271927,0.03360138695910573,0.08517959850504994
1772788832415720000,16.114719970703124,-0.04674129290878772,0.017612229058146477,0.07135448677018284
1772788832435752000,16.134751953125,-0.04244038084447384,0.02006181416735053,0.02539784143306315
1772788832455784200,16.1547841796875,-0.06683189477920531,0.013149550560861825,0.010595774424821137
1772788832475817000,16.17481689453125,-0.10408464385271071,0.041474312291294335,0.04281323274485767
1772788832495849200,16.19484912109375,-0.09598492402732371,0.05208922980800271,-0.017036986453458667
1772788832515881000,16.214880859375,-0.06420037723183632,0.04998845813646912,-0.0122312666721642
1772788832535914000,16.2349140625,0.03861702316403389,0.02586217100918293,-0.01965798260681331
1772788832555946000,16.254946044921876,0.0864741683602333,0.012632540949434041,0.0040937355870381
1772788832575978000,16.27497802734375,0.0359673854380846,0.04706014959961176,0.08564064014554024
1772788832596011000,16.295010986328126,-0.017853636598587037,0.04975684133768082,0.09696604401916264
1772788832616043000,16.31504296875,0.044293899756669995,0.019463263752311468,0.05267214426249266
1772788832636075000,16.335074951171876,0.05402677374184131,0.00149316116720438,0.05622903302647173
1772788832656108000,16.35510791015625,0.05757657517790794,0.009963321740180253,0.06819638806544244
1772788832676140000,16.37514013671875,-0.05415069238245487,0.04627776705026626,0.10615315722245722
1772788832696172000,16.395172119140625,-0.049481531527638435,0.04070800409391522,0.03755838095657527
1772788832716204000,16.4152041015625,-0.10135960280299186,0.028928865103423594,-0.0055677536623552435
1772788832736237000,16.435237060546875,-0.12381693380475044,0.04067088695392013,0.03473656500149518
1772788832756269800,16.455269775390626,-0.06988426808714866,0.023633681304752824,0.07081990496944636
1772788832776302000,16.475302001953125,0.001681084954738617,0.005888619647175073,0.07386259713359176
1772788832796335000,16.495335205078124,0.02054828251004219,0.0136212597258389,0.017788024016469717
1772788832816366800,16.515366943359375,-0.027304771032929418,0.0377536843329668,0.00228281370755285
1772788832836399000,16.535399169921874,-0.016472411373257636,0.04223565205261111,0.03473411731608212
1772788832856431900,16.555431884765625,-0.01371112996637821,0.05942147239223122,0.048759610461257395
1772788832876464000,16.575464111328124,-0.14208908807635307,0.11644903538525103,0.0938238735359162
1772788832896496000,16.59549609375,-0.13700140954852102,0.10567498178407549,0.06811075560860336
1772788832916529000,16.61552880859375,0.01115267765522003,0.052327714738994835,0.028241832687333223
1772788832936560600,16.635560546875,0.146117612940073,0.004190729688107967,0.06970840006358921
1772788832956592600,16.655592529296875,0.08601356511116028,0.01660319814607501,0.1440160740835592
1772788832976625400,16.67562548828125,-0.029437106886506078,0.05838482282087207,0.17059026581961662
1772788832996657700,16.69565771484375,-0.0784966136097908,0.07220365094542502,0.1324544503012672
1772788833016689700,16.715689697265624,-0.055201662740111346,0.02433715339899063,0.08467745766919106
1772788833036722400,16.735722412109375,-0.028887071788311004,-0.021957564786076543,0.03189801710732281
1772788833056754700,16.755754638671874,0.009842179578542708,-0.02791837288662791,0.05451064826864749
1772788833076786400,16.775786376953125,-0.10232231035530566,0.041908612055331466,0.1309516810555011
1772788833096819700,16.79581982421875,-0.14589023392498493,0.06309431568607687,0.038352344345860184
1772788833116851500,16.8158515625,-0.11877075633108615,0.086763798956573,-0.02596358555704355
1772788833136883500,16.835883544921874,-0.060194648721814153,0.10470409092530608,-0.031021782262064514
1772788833156916700,16.855916748046877,0.011418050593137741,0.0916547858685255,-0.03840864111036062
1772788833176948500,16.875948486328124,0.0442588284432888,0.0919841639533639,-0.0021645210901275274
1772788833196980500,16.89598046875,0.07608955246806144,0.06833937673270701,0.030601657153852282
1772788833217013500,16.916013427734374,0.08789221846461295,0.0619137275993824,0.0275098651509732
1772788833237045500,16.93604541015625,0.004698386949300765,0.0846054518789053,0.11515979929231107
1772788833257077500,16.956077392578123,0.06085983463227748,0.04173354774937033,0.11307389639634638
1772788833277110500,16.976110595703126,0.03274491626024246,0.040666503039747476,0.1183789074692875
1772788833297142500,16.996142578125,-0.022995675662159917,0.033968466705828905,0.1146476485190913
1772788833317174500,17.016174560546876,-0.028140637335181233,0.02564925891086459,0.13241221859473734
1772788833337207600,17.03620751953125,0.005857493856549263,0.06075578973591327,0.1454715335888788
1772788833357239600,17.056239501953126,-0.03469605032801628,0.05076879485920071,0.07995079447347671
1772788833377271300,17.076271240234377,-0.004046060520410537,0.04712313183322549,0.05813789885509759
1772788833397304600,17.0963046875,0.01708089866042137,0.03849485808908939,0.05131170609686524
1772788833417336600,17.116336669921875,0.015395722052454947,0.06895721637010574,0.04995305802952498
1772788833437368600,17.13636865234375,0.017504092508554458,0.08794204895570874,-0.011904738131538032
1772788833457401600,17.156401611328125,-0.01535772812962532,0.0946244493290782,-0.030482049362175166
1772788833477433300,17.176433349609376,0.02810848863124847,0.08081585033759474,-0.00045519642159342765
1772788833497465600,17.196465576171875,0.01469371126294136,0.06887699074074626,0.0042481589637696745
1772788833517497600,17.21649755859375,0.02114157222807407,0.012973609472066163,0.03809340114872902
1772788833537530400,17.2365302734375,-0.05105389541089535,-0.005452712447941303,0.018809695214405654
1772788833557562600,17.256562744140624,-0.12323299643695354,0.011246931809931993,0.020542108497582375
1772788833577594600,17.2765947265625,-0.07156126138865947,0.0020123627357184885,0.023587175281904637
1772788833597627600,17.296627685546873,-0.03945230494439601,0.011085603768378496,0.06056958298142999
1772788833617659600,17.31665966796875,-0.06621639322936534,0.031048049214482305,0.09484079549349844
1772788833637691400,17.33669140625,-0.12239713013470171,0.04783361819013953,0.07088255840949714
1772788833657724700,17.356724609375,-0.09856617269217967,0.03250102450177073,0.02556567228063941
1772788833677756700,17.376756591796877,0.00305471139550209,-0.0033887656554579732,0.016891148241981863
1772788833697788400,17.396788330078124,0.07210662031173706,-0.028151304859668016,0.04855616031102836
1772788833717821700,17.41682177734375,0.021285364612936973,0.016905395963042972,0.10867993575371801
1772788833737853400,17.436853515625,-0.0038929157853126524,0.009022679889202117,0.07144311490170657
1772788833757885400,17.456885498046876,-0.12015490416586398,0.055100394322723144,0.027894042162969708
1772788833777918500,17.47691845703125,-0.06410393112003802,0.07923194214701652,0.005208163102343678
1772788833797950500,17.496950439453126,-0.0017547347128391265,0.06691124362573027,0.02353124384358525
1772788833817982500,17.516982421875,0.0019826982498168944,0.05402224369719624,0.036179932210221886
1772788833838015500,17.537015380859376,-0.0004763853400945663,0.05446501902863383,0.032310397300496695
1772788833858047500,17.557047607421875,0.035998949620127674,0.051288288688659665,0.03545424828417599
1772788833878079500,17.57707958984375,0.07476853299736977,0.04227437662780285,0.040600379000976676
1772788833898112500,17.597112548828125,0.08684358619451522,0.01941737878397107,0.0323367738507688
1772788833918144500,17.61714453125,-0.03345452583432197,0.05470554978623986,0.07515585181452333
1772788833938176500,17.637176513671875,-0.08922492837309837,0.04379325675815344,0.022571531965956092
1772788833958209300,17.657209228515626,-0.005548866298794746,0.0017583879746496675,0.028917539991810917
1772788833978241300,17.6772412109375,-0.022535656934976576,0.006720540426671504,0.056872226300835604
1772788833998273300,17.697273193359376,-0.07850362787246704,0.0137846335940063,0.04148629499003291
1772788834018306300,17.717306396484375,-0.13376783445477486,0.058999155326932666,0.07085888527296483
1772788834038338300,17.73733837890625,-0.13987258107066153,0.07593509255871177,0.1450933113936335
1772788834058370300,17.757370361328125,-0.018145897543430326,0.04258344257697463,0.08960296790525317
1772788834078403300,17.7774033203125,-0.08378536766767501,0.06445829751566053,0.05614690770097076
1772788834098435300,17.797435302734375,-0.06687924105226993,0.07394464939385652,0.08572108497060835
1772788834118467300,17.81746728515625,0.02450023500621319,0.04143514932468533,0.11245207470357417
1772788834138500000,17.8375,0.09026303924918175,0.025056699845194815,0.09871537190452218
1772788834158532400,17.857532470703124,0.11555822402536868,0.006781476833671331,0.09761047940254211
1772788834178564400,17.877564453125,0.07662088286578655,0.004102174621820449,0.07477072495445608
1772788834198597400,17.897597412109373,0.05172960271537304,0.042058395789563656,0.08253938619457185
1772788834218629400,17.91762939453125,-0.008539864808320998,0.07440057646781206,0.06810279149785638
1772788834238661400,17.937661376953123,0.02249181779325008,0.06780716955214738,0.0799562378335744
1772788834258694400,17.9576943359375,-0.016584055054187773,0.05575783531814813,0.0640503743018955
1772788834278726400,17.977726318359377,0.004671498942375183,0.029054391179233786,0.02479176529869437
1772788834298758100,17.997758056640624,0.07460545139014721,0.01709419653341174,0.017827113917842505
1772788834318790100,18.0177900390625,-0.030894319957494733,-0.023546003021299836,0.030782457080855963
1772788834338823400,18.037823486328126,-0.0038338790744543074,-0.05267477461099624,-0.017675211291760206
1772788834358855200,18.057855224609376,-0.03517594279944897,-0.05149681687280536,-0.018079262048006056
1772788834378887400,18.077887451171875,-0.16544190661311148,0.026301439209282396,0.018974968778714536
1772788834398920200,18.097920166015626,-0.11868658517897128,0.030007454120367764,-0.01178469194844365
1772788834418952200,18.1179521484375,-0.09968260950148106,0.010036825367808342,-0.009518427516892553
1772788834438984400,18.137984375,-0.09416180025339126,0.038163434177637096,0.0013957652073353529
1772788834459017200,18.158017333984375,-0.014410218146443367,0.03685074414387345,-0.04415310304649174
1772788834479049200,18.17804931640625,0.03582768470644951,0.0125134446144104,0.006667641195654868
1772788834499081500,18.19808154296875,0.03499181840419769,0.03082315441742539,0.07827149961702524
1772788834519114200,18.2181142578125,0.01955225721001625,0.026152239996939896,0.03788469030149281
1772788834539146500,18.238146484375,0.07379647309482097,0.01119257127419114,0.05264467173367739
1772788834559178200,18.25817822265625,0.029483868637681005,0.038353988313674925,0.10149258153289556
1772788834579211300,18.278211181640625,-0.0637783524274826,0.05417188130095601,0.08857406324893236
1772788834599243500,18.298243408203124,-0.042298926547169685,0.04167904108315706,0.020017317438498137
1772788834619275300,18.318275146484375,-0.046534956681728364,0.023443565560132263,-0.008221154247969388
1772788834639308300,18.338308349609374,-0.008052373552322387,0.011478840869665146,0.029804186633229254
1772788834659340300,18.35834033203125,-0.05953296994268894,0.03775003107115626,0.06626951165609062
1772788834679372300,18.378372314453124,-0.024382746106386185,0.03369184172153473,0.027851518195495008
1772788834699405300,18.3984052734375,-0.008113748350739478,0.04176072801724076,0.02109597952067852
1772788834719437300,18.418437255859374,-0.0058282677620649335,0.020196400332450865,-0.007192541852593421
1772788834739469300,18.43846923828125,-0.04423194043636322,0.048868221934884784,0.06299852716140449
1772788834759502300,18.45850244140625,-0.023367431584000585,0.041866672609746455,0.07489405907317996
1772788834779534300,18.478534423828126,0.03433540032207966,-0.0013258417762815951,0.012129852124303578
1772788834799566300,18.49856640625,-0.01041676459610462,0.01647021941617131,0.05024082546234131
1772788834819599400,18.518599365234376,-0.11089198578000067,0.09034823331460357,0.08325907877124845
1772788834839631400,18.53863134765625,-0.07451601954102516,0.05491816962361335,0.03370097487606108
1772788834859663400,18.558663330078126,0.011060323196649551,0.03434124554097652,0.04833944882042706
1772788834879696400,18.5786962890625,-0.0023170447707176207,0.048194560457020995,0.11496595722064375
1772788834899728400,18.598728271484376,-0.01789922930598259,0.06026625265330076,0.12106062083393335
1772788834919760100,18.618760009765627,-0.01309679746031761,0.05399477116838097,0.11389109453074633
1772788834939793400,18.63879345703125,0.02060322756767273,0.023395927026122806,0.09812025555558503
1772788834959825400,18.658825439453125,0.08508066817522049,-0.00972790554910898,0.09488463463522494
1772788834979857400,18.678857421875,0.02933715364336967,-0.007149433363229036,0.08481529523730277
1772788834999890400,18.698890380859375,-0.027257424759864805,0.007473404620587825,0.0929799700576812
1772788835019922400,18.71892236328125,-0.12389525973796844,0.05085033566281199,0.030056992350518702
1772788835039954400,18.738954345703124,-0.14336568388342857,0.05394698650389909,-0.0017562690827995539
1772788835059987500,18.758987548828124,-0.07589841381013393,0.011137041694670915,-0.030121947345510124
1772788835080019500,18.77901953125,-0.03609481121003628,0.04130786968320608,0.031541604885086415
1772788835100051500,18.799051513671873,-0.043780105015635486,0.033332653020322324,-0.004856719316169619
1772788835120084500,18.81908447265625,-0.0035322657793760296,0.025879706665873525,-0.0027123276986181733
1772788835140116500,18.839116455078123,0.06919570130109787,-0.0015653496205806732,0.023195070691779254
1772788835160148500,18.8591484375,0.09296645298898219,0.014421324062347411,0.03752031396850943
1772788835180181500,18.879181396484373,0.014600772282481193,0.035717648460716005,0.03352181891687214
1772788835200213500,18.899213623046876,-0.06852467017173766,0.05981631692871451,0.02749576356038451
1772788835220245200,18.919245361328127,0.013888240098953246,0.019223171386122704,-0.00441109444051981
1772788835240278500,18.939278564453126,0.025212767189741133,-0.006017214462906122,-0.0273917186640203
1772788835260310500,18.959310546875,-0.013948445853590964,0.02228840417563915,0.015074892600253223
1772788835280342300,18.97934228515625,-0.03990297132134437,0.033534751463681456,0.017420652008801697
1772788835300375600,18.99937548828125,-0.0986567735850811,0.06309884573072194,0.01725289422646165
1772788835320407300,19.0194072265625,-0.0039040217012166973,0.043840018509328366,0.045246743502095337
1772788835340439300,19.039439208984376,-0.003960135802626609,0.03378814170286059,0.013716098402440547
1772788835360472300,19.059472412109375,-0.06682195790708065,0.03698416126519442,0.078184771181643
1772788835380504300,19.07950439453125,-0.005655833804607391,0.02109963278248906,0.03800488261505961
1772788835400536600,19.09953662109375,-0.015312719944119452,0.021524726326763628,0.07303579092063009
1772788835420569300,19.1195693359375,-0.036470074263215066,0.04218231443017721,0.06395560869053006
1772788835440601300,19.139601318359375,-0.055498599860072134,0.04390197782963514,0.00005713701471686363
1772788835460633600,19.159633544921874,-0.05087152458131313,0.04963175365328788,0.013942746765166521
1772788835480666400,19.179666259765625,0.008407178339362144,0.0339488852225244,0.009642930679395794
1772788835500698400,19.199698486328124,0.03267302006781101,0.01977788265943527,-0.016072013878822327
1772788835520730400,19.21973046875,0.019364625683426857,0.05375204845368862,0.054937751106917856
1772788835540763400,19.239763427734374,-0.042245150533318516,0.09757613874152302,0.04708323821425438
1772788835560795600,19.259795654296877,-0.027056933751702306,0.04998261291757226,-0.047620779157057404
1772788835580827400,19.279827392578124,0.000016366612911224363,0.010933628077059984,-0.026669980260729788
1772788835600860400,19.2998603515625,0.0011836568266153334,0.012165800220519303,0.08115019685849546
1772788835620892400,19.319892333984374,0.002389525485038757,-0.0045886429645121095,-0.008150792425498366
1772788835640924400,19.33992431640625,0.0016717326045036314,0.005059036955237389,0.01335588678792119
1772788835660957400,19.35995751953125,-0.05634732564389705,0.04065831973329186,0.0996228421382606
1772788835680989400,19.379989501953126,-0.14509236154556274,0.09053966423347592,0.0872606425628066
1772788835701021400,19.400021484375,-0.07354103702902794,0.03166647337377071,0.006550663752481341
1772788835721054500,19.420054443359376,0.008664367970824241,0.003957943845540285,0.04634681369848549
1772788835741086500,19.44008642578125,0.03245382435917854,0.024198767841607332,0.11545987821742891
1772788835761118500,19.460118408203126,0.028103227934241293,0.01625248501226306,0.11365567833967506
1772788835781151500,19.4801513671875,0.00044131402671337126,0.006088233872503042,0.07935074622109532
1772788835801183500,19.50018359375,-0.03129822458326816,0.028255349756032225,0.10706139464117587
1772788835821215500,19.520215576171875,-0.03815758895874023,0.03796659643128514,0.0507383266557008
1772788835841248500,19.54024853515625,-0.026041034707427024,0.04114215772747993,0.026330665303766727
1772788835861280500,19.560280517578125,-0.01459784967303276,0.02880976876839995,0.04243285512514412
1772788835881312300,19.580312255859376,0.021627309918403625,0.025710925970226523,0.01852612903267145
1772788835901345500,19.600345458984375,0.006498714369535446,0.046646308101713656,-0.023205153694376347
1772788835921377500,19.62037744140625,-0.1038023197799921,0.09036562284082174,0.04765811549276113
1772788835941409800,19.640409912109376,-0.009478606963157653,0.04124196484014392,0.005606295574456453
1772788835961442800,19.66044287109375,0.07780804682374,-0.0066767012849450105,0.05373904284164309
1772788835981474800,19.680474853515626,-0.023993454527854917,0.06074789869040251,0.017574162070080637
1772788836001506800,19.7005068359375,-0.08970832797586917,0.05190305958613753,0.017817834632843733
1772788836021539800,19.720539794921876,-0.03651332888305187,0.03302168737500906,0.0549846589885652
1772788836041571800,19.74057177734375,-0.00551554855108261,0.03197407801821828,0.09545512799955903
1772788836061603800,19.760603759765626,0.008856675672531128,0.012022300096601247,0.07823043695427477
1772788836081636900,19.780636962890625,-0.06540566136837005,0.021783085002005098,0.014021291894093155
1772788836101668900,19.8006689453125,-0.07104395951628685,0.0392091438382864,0.026147709952294824
1772788836121700900,19.820700927734375,-0.013037760749459266,0.06611424802914262,0.044728857107833024
1772788836141734000,19.84073388671875,0.04214636633396148,0.07317571084797382,0.04862162676267326
1772788836161766000,19.860765869140625,0.013898176971077918,0.07926438311189413,0.06974493268169463
1772788836181797600,19.880797607421876,0.041567105141282076,0.053111558593064545,0.04329012954160571
1772788836201831000,19.900830810546875,0.052664837738871574,0.04324906687885523,0.011363470861688256
1772788836221863000,19.92086279296875,0.020521394503116606,0.04452975433915853,0.06467230559252202
1772788836241894700,19.940894775390625,-0.022714520633220672,0.046704760290682316,0.043531098690629
1772788836261928000,19.960927978515624,-0.08436287529468536,0.04089914275184273,0.04511376477219164
1772788836281959700,19.980959716796875,-0.10014964249134063,0.05266089221611619,0.08130889455154537
1772788836301991700,20.00099169921875,-0.0806704505175352,0.035513504190742964,0.10971154382377862
1772788836322024000,20.02102392578125,0.006551321339607239,0.0027428689673542977,0.07635295264460146
1772788836342055700,20.0410556640625,-0.04775602290928364,0.04681435814499855,0.07931450586393475
1772788836362087700,20.061087646484374,-0.019607786789536476,0.06230550339594483,0.09619637482091783
1772788836382121000,20.081120849609373,0.05538637165725231,0.028073563448339698,0.08416486850455403
1772788836402152700,20.101152587890624,0.05328092381060123,0.022772680561244485,0.018274638489633798
1772788836422184700,20.121184814453127,0.036117023041844366,0.026884792055189607,0.017725114848092197
1772788836442217700,20.1412177734375,-0.03164543058574199,0.0682912998072803,-0.00040982290990650654
1772788836462249700,20.161249755859377,-0.07896949181854725,0.09828589444607495,-0.009032689826563
1772788836482282000,20.181281982421876,-0.09938684142529963,0.10025587934479117,-0.0353949193123728
1772788836502314800,20.201314697265627,-0.04103986639678478,0.06638371262028812,-0.0016853227384388445
1772788836522346800,20.2213466796875,-0.0164478614538908,0.03845043442547321,-0.0006390285558998584
1772788836542379000,20.24137890625,0.025226795715093613,0.0195782684341073,0.06205474350526929
1772788836562411800,20.261411865234376,-0.054493222209811204,0.05350274986773729,0.08620784557424485
1772788836582443800,20.28144384765625,-0.01949438954293728,0.03672799454703927,0.09979074605107306
1772788836602475800,20.301475830078125,0.036132220610976214,0.04806421207562089,0.08890957881361246
1772788836622508800,20.3215087890625,0.02300385896861553,0.023158172747492788,0.02387289688810706
1772788836642541000,20.341541015625,-0.015443068325519562,0.03413067153021693,0.04136011132709682
1772788836662572800,20.36157275390625,-0.015101123020052908,0.025471125864982604,0.03836158709824085
1772788836682605800,20.381605712890625,-0.0750543642014265,0.06815349877178668,0.016538973803445697
1772788836702637800,20.401637939453124,-0.07108838317990303,0.03873553497716784,-0.014853212673589586
1772788836722669800,20.421669921875,-0.05424363136291504,0.06440978219881653,-0.01369695531055331
1772788836742706000,20.441705810546875,-0.18165829739868639,0.12352277316376566,-0.03264408623427152
1772788836762737700,20.461737548828125,-0.08572305773198605,0.06642009910792111,-0.02808591147325933
1772788836782771000,20.48177099609375,0.015246084448695182,0.027159663473814724,0.06061879241801798
1772788836802802700,20.501802734375,0.07624152815937996,0.012424451156705617,0.09329977659657597
1772788836822834700,20.521834716796874,0.09148410547673702,-0.025014175877720115,0.08207330305278301
1772788836842868000,20.541867919921874,0.08453297116458415,-0.042014118256419895,0.07001344742476939
1772788836862899700,20.561899658203124,0.0052460839599370954,0.0068073419272899624,0.08002849935218691
1772788836882931700,20.581931640625,-0.03153729403614998,0.029620354498922825,0.08191847781725227
1772788836902964700,20.60196484375,-0.056101241928339,0.0604744885765016,0.07852927377037704
1772788836922996700,20.621996826171873,-0.07335808167755603,0.08182663481533527,0.06457549415454268
1772788836943028200,20.6420283203125,-0.10476210472285746,0.08961480447351931,0.038697541054338216
1772788836963061000,20.66206103515625,0.03650806818604469,0.04565700480341911,0.029307416092231867
1772788836983093200,20.68209326171875,0.07652560579776764,0.012660013478249311,0.036957346323505044
1772788837003125200,20.702125244140625,0.07556348276734352,0.018351356987655162,0.07461721489317714
1772788837023158000,20.722157958984376,0.05642448253333568,0.011731938847899435,0.08637501883469521
1772788837043190300,20.742190185546875,0.04982581492066383,-0.0019184008419513702,0.07247260407991707
1772788837063222300,20.76222216796875,-0.012193126618862151,-0.003581657879054546,0.08674648249559104
1772788837083255000,20.782255126953125,-0.09479249937236309,0.02466214756965637,0.05780863036811351
1772788837103287300,20.802287353515624,-0.06176642808318138,0.006820201408863067,0.0815487677220255
1772788837123319000,20.822319091796874,0.03812602477669716,-0.026807927426695823,0.008207783309742808
1772788837143352000,20.84235205078125,-0.009038461980223655,-0.01726546144708991,-0.0543703264825046
1772788837163384300,20.86238427734375,-0.08042378228008747,0.015102438194304704,-0.044155295003578066
1772788837183416000,20.882416015625,-0.09177519737780093,0.057958852493762966,0.04189925970509648
1772788837203449300,20.902449462890626,-0.031252631875872613,0.054811932770162816,-0.02839863068424165
1772788837223481000,20.922481201171873,0.025900749453902243,0.029964637891948222,-0.0514714632358402
1772788837243513000,20.94251318359375,0.04371288499832153,0.016798428457230327,0.0047129999965429305
1772788837263546000,20.962546142578127,0.050908349460363385,0.030894173827022312,0.019260873048007488
1772788837283578000,20.982578125,0.05979483574926853,0.03844371242374182,0.0006169628545641899
1772788837303610000,21.002610107421877,0.07128302896916866,0.008476590313762427,-0.003536211302131414
1772788837323643100,21.02264306640625,0.042185529300570485,0.005378478167951107,-0.01801299187876284
1772788837343675100,21.042675048828126,-0.02948445315957069,0.02007233556136489,0.0018161825764924286
1772788837363707100,21.06270703125,-0.03529226265549659,0.009356003496795893,0.052894993232935665
1772788837383740200,21.082740234375,-0.12569032646119593,0.00974909446761012,0.09327434989437461
1772788837403772200,21.102772216796875,-0.16107961975038051,0.013307371471077203,0.14960085194595157
1772788837423805200,21.12280517578125,-0.050263037294149396,-0.021566958033293483,0.13690489037148654
1772788837443837200,21.142837158203125,-0.04166355125308036,-0.036219314372539516,0.11359744534641504
1772788837463869200,21.162869140625,0.022883447459340095,-0.05391542232185602,0.15397271035462617
1772788837483902200,21.182902099609375,0.012435703203082083,-0.0016289163760840892,0.04524535526260733
1772788837503934200,21.202934326171874,-0.021238602861762046,0.03243497352823615,-0.023750147291272877
1772788837523966000,21.222966064453125,0.014729951620101928,0.026388240709900854,-0.004539762321487069
1772788837543999200,21.242999267578124,0.014725275444984436,0.029386253482103344,-0.02340761746391654
1772788837564031200,21.26303125,0.0123696522295475,0.03934519130811095,-0.06938062941394746
1772788837584063000,21.28306298828125,0.002554360657930374,0.05172361136600375,-0.07234963528737426
1772788837604096300,21.30309619140625,-0.037515199401974675,0.07558700977340341,-0.041763066104799504
1772788837624128000,21.3231279296875,-0.001858195087313652,0.05525792297199368,0.008267696803435682
1772788837644160000,21.343159912109375,0.00455225647687912,0.030345600033551454,0.02484334935545921
1772788837664193300,21.363193359375,0.03482990584075451,-0.02465323361083865,0.06227035901732742
1772788837684225000,21.38322509765625,0.01073883615732193,-0.03387289737686515,0.1059234766524285
1772788837704257300,21.40325732421875,-0.05149111778438091,-0.020460896487534044,0.0652446986529976
1772788837724290000,21.4232900390625,-0.06207213303148746,-0.012548369797319173,0.11439034928977489
1772788837744322000,21.443322021484374,-0.016546645653247833,-0.003053542351722717,0.0995181396547705
1772788837764354300,21.463354248046876,-0.05254384170770645,0.015975129375606776,0.0027254063758999107
1772788837784387000,21.483386962890624,-0.12333294968008994,0.054620501851290464,0.012048092124983667
1772788837804419000,21.503419189453126,-0.12614040831625462,0.09045476242899894,0.03909150880798697
1772788837824451300,21.523451416015625,-0.039170565393567086,0.0819084678798914,0.09007131606936454
1772788837844484000,21.543484130859376,0.023104981255531308,0.05791852048337459,0.008470160572975874
1772788837864516400,21.563516357421875,-0.00019055413603782652,0.028906068749725816,-0.021354849652573466
1772788837884548000,21.583548095703126,0.0392483068048954,0.027831425255537032,0.06761785752512514
1772788837904581000,21.6035810546875,0.055201662740111346,0.04042582615166902,0.06616071751937269
1772788837924613000,21.623613037109376,0.0580488688647747,0.01853957303613424,0.05567446788363158
1772788837944644900,21.643644775390626,-0.015782675543427466,0.024132862998545168,0.06338336176052689
1772788837964678100,21.66367822265625,-0.06238543676435947,0.04911956634745002,0.057834787722676986
1772788837984710000,21.6837099609375,-0.02079144361615181,0.040361382613331075,0.07585713195167482
1772788838004742000,21.703741943359375,-0.14262509464919565,0.10474427680522203,0.1275133771698922
1772788838024775000,21.72377490234375,-0.15437340011000633,0.07881210929974913,0.08783676195032894
1772788838044807000,21.743806884765625,-0.05293021067678928,0.019918898565322158,0.06544014815986156
1772788838064839200,21.763839111328124,0.02544482237994671,-0.008234159860014915,0.0494327239498496
1772788838084872000,21.783871826171875,-0.036303485524654386,0.018918927742540836,0.0690041973169893
1772788838104904000,21.803904052734374,0.021667641928792,-0.004324292939901352,0.04006459162384272
1772788838124937000,21.82393701171875,0.045801381710171694,-0.017744331005215642,0.030103169579803944
1772788838144969000,21.843968994140624,-0.007263269001245499,0.01836290129497647,0.05749284241721034
1772788838165001000,21.8640009765625,-0.0034597850650548933,0.03136003777310252,0.035788594805076714
1772788838185034000,21.884033935546874,-0.0640969168573618,0.05326558011099696,0.017923998421058056
1772788838205066000,21.90406591796875,0.0006061491996049881,0.03801847274899482,0.007134601120278239
1772788838225098200,21.92409814453125,0.0026356092005968093,0.05755991630405187,0.023267989797517655
1772788838245131000,21.944131103515623,-0.0025508535265922547,0.04524637817591429,-0.01876834029071033
1772788838265163000,21.9641630859375,0.020803718575835226,0.024344167661666867,0.038804289364442225
1772788838285195000,21.984195068359377,0.012740823629498481,0.02007350460514426,0.056235755028203126
1772788838305228000,22.00422802734375,-0.024830489873886107,0.022381781547516584,0.027250191301479935
1772788838325260000,22.024260009765626,-0.030551790130138395,0.0026731647320091725,0.03767981537915766
1772788838345292000,22.0442919921875,-0.06798866359889506,0.027753683844208715,0.038152766653150316
1772788838365325000,22.064324951171876,-0.037082068681716915,0.003946253407746553,0.05201170759238302
1772788838385356800,22.084356689453124,0.00021276596784591673,0.006498714369535446,0.09302980054877698
1772788838405389000,22.10438916015625,-0.006548398730158805,-0.0021809973008930683,0.011072598156332969
1772788838425422000,22.124422119140625,-0.004835749593377113,-0.004311433458328247,-0.025693755639716983
1772788838445454000,22.1444541015625,-0.010581015247106551,0.04146437541916966,0.01411583830974996
1772788838465486000,22.164486083984375,0.014046061009168625,0.04378755766972899,0.022773484278842807
1772788838485518800,22.184518798828126,0.015651742640137672,0.03795052207931876,-0.030050854870676994
1772788838505551000,22.204551025390625,-0.07784837883412837,0.04656593634188175,-0.047778307806327934
1772788838525583000,22.2245830078125,-0.06837795517742633,0.04297770259156823,-0.03609349603578448
1772788838545616000,22.244615966796875,0.0545674564898014,0.01714548832923174,-0.01023285939656198
1772788838565648100,22.264648193359374,0.07255085694789887,0.023038199629634618,0.027058321991190314
1772788838585681000,22.284680908203125,-0.06479015981853008,0.04479308145046234,0.036437267972156406
1772788838605713200,22.304713134765624,-0.08295885371565818,0.03328399157300591,0.034750849255174396
1772788838625745200,22.3247451171875,-0.07631868504881859,0.02639028653651476,0.06852766584642231
1772788838645778000,22.34477783203125,-0.03602583762705326,0.023416677553206682,0.11257847756221889
1772788838665810200,22.36481005859375,0.037518706533312796,-0.0010113689996302127,0.15778941909857094
1772788838685842000,22.384842041015624,0.0047884033203125,0.028020079695433377,0.1426502290904522
1772788838705875000,22.404875,-0.07764964139163494,0.07330503631606698,0.11823029277883469
1772788838725907200,22.4249072265625,0.0004933364748954773,0.03687368662804365,0.07586999143324792
1772788838745939000,22.44493896484375,0.07157996608912945,-0.0028613807804882523,0.08561908590085804
1772788838765972200,22.46497216796875,0.11215104593038558,-0.014207389050722122,0.06538271888419986
1772788838786004000,22.48500390625,0.03671732702255249,0.04574117595553398,0.11467289255820214
1772788838806036000,22.505035888671873,-0.04918927058279514,0.09145838651359081,0.08574095871485769
1772788838826069000,22.525069091796876,-0.0964513724952936,0.07750321865826845,0.014637524096295236
1772788838846101000,22.54510107421875,-0.04942541742622852,0.04247442924454808,-0.0024476854130625722
1772788838866133000,22.565133056640626,0.026601591199636457,-0.002814034507423639,-0.022395152485743162
1772788838886166000,22.585166015625,0.08990589637458324,-0.009439882387965916,-0.007528568873926997
1772788838906198000,22.605197998046876,0.014226678273081779,0.0038218963757157324,0.019201544076204297
1772788838926230500,22.62523046875,-0.14816285503208637,0.06086816406920552,0.002186404128372669
1772788838946263300,22.64526318359375,-0.15153145468235016,0.03394508583024144,-0.04822722061760723
1772788838966295600,22.665295654296877,-0.055196986564993854,0.0006552490383386611,-0.06582556728087366
1772788838986327300,22.685327392578124,-0.03250701585114002,-0.010192308190464973,0.06042407356351614
1772788839006360300,22.7053603515625,-0.050317982351779936,0.02688245396763086,0.17471680769771336
1772788839026392600,22.725392578125,-0.0463894107311964,-0.002431172669678926,0.09885331907048821
1772788839046425300,22.74542529296875,-0.0007668927192687987,-0.03571326454654336,0.05731551308892667
1772788839066457600,22.76545751953125,0.054797758114337916,-0.025216274321079254,0.09784136554896831
1772788839086489300,22.7854892578125,0.07118190668225288,0.009817775789648294,0.09974931806214153
1772788839106522400,22.8055224609375,0.08263269050121307,0.03042611792385578,0.10320471921302378
1772788839126554400,22.825554443359376,0.019383914905786514,0.07743161472678184,0.04965535372458398
1772788839146586400,22.84558642578125,-0.03506897529363632,0.07229498249068855,-0.07304653151035309
1772788839166619400,22.865619384765626,0.009669161099195479,0.07141936869993805,-0.01590118735656142
1772788839186651400,22.8856513671875,-0.0032809213668107983,0.09354293770268558,0.08325162611715495
1772788839206683400,22.905683349609376,0.041076691275835034,0.008482581663131714,0.0006109715051949024
1772788839226716200,22.925716064453123,-0.046773441612720484,0.0013439619548618793,0.02413943886980414
1772788839246748400,22.94574853515625,-0.07768763531446457,0.027238866189867258,0.11259747452363371
1772788839266780400,22.965780517578125,-0.02527998720705509,0.04558861574232578,0.08033712690994144
1772788839286813400,22.9858134765625,0.041405777099728584,0.008912935904413461,0.05192337172180414
1772788839306845400,23.005845458984375,-0.020468203011155126,0.03541968842744827,0.07567629549205303
1772788839326877400,23.02587744140625,-0.008545710027217865,0.06497267677858472,0.07182502689138054
1772788839346910500,23.045910400390625,-0.03515548453330993,0.05470628043860197,0.0357500163603574
1772788839366942500,23.0659423828125,-0.015405074402689933,0.01182107843607664,0.012009732875972986
1772788839386975200,23.085975341796875,0.020599135914444924,-0.02668590848222375,0.009164645643159747
1772788839407007500,23.106007568359374,0.03607669103145599,-0.0018156711198389528,0.014253347084298729
1772788839427039500,23.12603955078125,-0.008601824128627776,0.03227437613904476,0.02333133735731244
1772788839447072500,23.146072509765624,-0.1167991639971733,0.07986117996126413,0.04676701187193393
1772788839467104500,23.1661044921875,-0.10322773476243019,0.06994228188470006,0.048943844454362985
1772788839487136300,23.18613623046875,-0.03010638445019722,0.0325568463422358,0.05388575783595442
1772788839507169500,23.20616943359375,-0.00038519992530345915,0.01627308940887451,0.03321582170762122
1772788839527201500,23.226201416015623,0.017427520141005515,0.026060616190731523,0.08383541735447943
1772788839547233300,23.2462333984375,0.0012017770051956176,-0.012521335659921168,0.044918753656744956
1772788839567266600,23.2662666015625,0.012851882788538932,0.0007514028891921043,0.07039682071916759
1772788839587298300,23.28629833984375,0.010225625938177108,0.016000117686390876,0.06495667549185455
1772788839607330300,23.306330322265627,0.03129588649570942,0.016255553752183915,0.10135996812917292
1772788839627363300,23.32636328125,-0.00805880329310894,0.040111937896907326,0.08464161917082964
1772788839647395300,23.346395263671877,0.007006663891673088,0.006586392652988433,0.0031521073553711174
1772788839667427300,23.36642724609375,0.05440028322935104,-0.04630114792585373,-0.01978153592124581
1772788839687460400,23.38646044921875,-0.09371405648589133,0.0393887381888926,0.10971921567358076
1772788839707492400,23.406492431640626,-0.1103115555435419,0.07469751358777284,0.08348499648161233
1772788839727524400,23.4265244140625,0.031873978644609446,0.03169511494636536,0.0056258039925247425
1772788839747557400,23.446557373046875,-0.0024304420173168182,0.039257513024657964,-0.03296696151308715
1772788839767589400,23.46658935546875,-0.012671850046515463,0.05418371786922216,-0.0014206073876470327
1772788839787622400,23.486622314453125,0.035059622943401335,0.03574629003331065,0.0007774141132831573
1772788839807654400,23.506654296875,0.01869476359784603,0.03697612408921122,0.013360270702093838
1772788839827686400,23.526686279296875,0.021151509100198744,0.03772212015092373,0.10903576345406472
1772788839847719400,23.546719482421874,-0.041897360008955,0.029452888977527618,0.016836130119115115
1772788839867751400,23.56675146484375,-0.12173019065856933,0.029618600933253764,0.024221564195305106
1772788839887783200,23.586783203125,-0.10424071119725703,0.031229251000285146,0.061398325423151254
1772788839907816400,23.60681640625,-0.07803951749205588,0.01734904807731509,0.08498663321621716
1772788839927848700,23.6268486328125,-0.005479892715811729,0.007495762582868337,0.17591851163767278
1772788839947880400,23.64688037109375,-0.0016834230422973632,0.010094693034887314,0.06945318319350481
1772788839967913700,23.666913818359376,-0.07616963196694851,0.036226036374270916,0.021368878177925942
1772788839987945500,23.686945556640627,0.01598725820481777,0.00657192573621869,0.012404796608164907
1772788840007977500,23.7069775390625,0.08089958309829234,0.011020429577678442,0.08050824569314718
1772788840028010500,23.727010498046877,0.03345277226865291,0.02620864635929465,0.060558878924325106
1772788840048042500,23.74704248046875,0.013341712132096289,0.024869652840495107,0.0037406478330492972
1772788840068075800,23.76707568359375,-0.06398994935154914,0.03944236807227135,0.03820464297086
1772788840088107500,23.787107421875,-0.06377133816480636,0.06832461755499243,0.08088562763817608
1772788840108139500,23.807139404296876,-0.04937631758749485,0.04035685256868601,0.0022695523671805856
1772788840128172500,23.827172607421875,-0.015411504143476485,-0.012151771695166826,0.07312251935601234
1772788840148204500,23.84720458984375,0.028548049092292783,-0.015920184317976236,0.12758578481897712
1772788840168236500,23.867236572265625,0.03650222296714783,-0.005417787265032529,0.13765300532504915
1772788840188269600,23.88726953125,0.1055272438764572,-0.0543716416567564,0.06950352514125406
1772788840208301600,23.907301513671875,0.0357715706050396,-0.03248758049830794,-0.026986864190176128
1772788840228333600,23.92733349609375,-0.08615560393035411,0.022137889789044855,-0.01881393299810588
1772788840248366600,23.94736669921875,-0.11360825900137424,0.056140551025420427,-0.02803184319846332
1772788840268398600,23.967398681640624,-0.08544833244383335,0.02981017798259854,-0.016264394645765422
1772788840288430300,23.987430419921875,-0.08346271158456801,-0.01729278784543276,-0.047672801605239505
1772788840308463600,24.007463623046874,-0.11999591421186924,-0.0006102408528327941,-0.06363631360828877
1772788840328492500,24.027492431640624,-0.06685936730802058,0.020726415555924176,-0.03003448825776577
1772788840348524500,24.047524658203123,0.015789105284214018,0.039919045673310755,-0.011483297849074005
1772788840368557600,24.0675576171875,0.045371758121252055,0.023276830691099166,-0.08864676315896212
1772788840388589600,24.087589599609377,0.034460488006472584,0.03880713890865445,-0.02431947161182761
1772788840408622600,24.10762255859375,0.0046270752787590025,0.05468742960765958,0.010022139255329967
1772788840428654600,24.127654541015627,0.12493453965783119,0.01083469774723053,-0.0713056061271578
1772788840448686600,24.1476865234375,0.24173954887390137,-0.06141469203606247,-0.0430740756381303
1772788840468719400,24.16771923828125,0.11022387726008892,-0.0005447744011878967,-0.0022254940297454593
1772788840488751600,24.187751708984376,-0.11479366939365863,0.08436842825263738,-0.03301511150375008
1772788840508783600,24.20778369140625,-0.15974749436378477,0.09816606745868921,-0.026611162745580074
1772788840528816400,24.22781640625,-0.12027706924080848,0.04423617822006345,0.04051533106602728
1772788840548848600,24.2478486328125,-0.01603518899977207,-0.030016660340130327,0.049657399551197884
1772788840568880600,24.267880615234375,0.006484101322293281,-0.05992094634696841,0.07669562860243022
1772788840588913700,24.28791357421875,-0.12822832050621508,-0.007390840903669595,0.19999730636142193
1772788840608945700,24.307945556640625,-0.12059037297368048,-0.03286898103132844,0.07347169811986386
1772788840628977700,24.327977783203124,-0.08820902932882309,-0.015454028110951184,0.016763211013376713
1772788840649010700,24.3480107421875,-0.06314765330851077,0.017769465446472166,0.048191930108517404
1772788840669042700,24.368042724609374,-0.022035890719294546,0.05749225789532065,0.051608898945152755
