time,seconds_elapsed,z,y,x
1772788816389886000,0.088885986328125,-0.21131733059883118,-0.7069991230964661,-0.3346196711063385
1772788816409918700,0.108918701171875,-0.3390056788921356,-0.9379457235336304,-0.46209782361984253
1772788816429951000,0.128950927734375,-0.3492850363254547,-0.8015937805175781,-0.4677037298679352
1772788816449983000,0.14898291015625,-0.2173316478729248,-0.6223815679550171,-0.09305940568447113
1772788816470016000,0.16901611328125,0.05911288410425186,-0.1070086658000946,0.24272941052913666
1772788816490048000,0.189048095703125,0.3256555199623108,0.8128359317779541,0.6541258096694946
1772788816510079700,0.209079833984375,0.3732307255268097,1.7009778022766113,1.0046969652175903
1772788816530111700,0.22911181640625,0.43523481488227844,1.91221284866333,0.8950422406196594
1772788816550145000,0.24914501953125,0.44786617159843445,2.1822526454925537,0.49795931577682495
1772788816570176800,0.2691767578125,0.5280848145484924,2.369776725769043,0.31006619334220886
1772788816590209000,0.289208984375,0.36794617772102356,1.3371578454971313,0.1282450556755066
1772788816610241000,0.309240966796875,0.03792451694607735,-0.03414882719516754,-0.06363218277692795
1772788816630273800,0.329273681640625,-0.04457160457968712,0.07667213678359985,-0.02896665409207344
1772788816650306000,0.34930615234375,0.4016815423965454,1.3497201204299927,0.15433627367019653
1772788816670337800,0.369337890625,0.8172441720962524,2.0967977046966553,0.17657655477523804
1772788816690370800,0.389370849609375,0.9384431838989258,1.90004301071167,0.1252836138010025
1772788816710403000,0.409403076171875,0.787453293800354,1.250353455543518,0.16250085830688477
1772788816730434800,0.429434814453125,0.5502599477767944,0.8896046280860901,0.3175000250339508
1772788816750466800,0.449466796875,0.7937043309211731,1.1849558353424072,0.34512466192245483
1772788816770499800,0.469499755859375,1.0012872219085693,1.8582006692886353,0.1253560185432434
1772788816790531800,0.48953173828125,0.9716583490371704,1.7207531929016113,0.1464848667383194
1772788816810563800,0.509563720703125,0.8145502209663391,0.8839150071144104,0.24872197210788727
1772788816830596000,0.52959619140625,0.7793877720832825,0.15743672847747803,0.06370704621076584
1772788816850628900,0.54962890625,0.7657589912414551,0.48508304357528687,-0.02082398347556591
1772788816870660900,0.569660888671875,0.8505160212516785,-0.5654527544975281,0.6181279420852661
1772788816890692900,0.58969287109375,0.8607856631278992,-0.1459050476551056,0.5005839467048645
1772788816910726400,0.609726318359375,0.9745190739631653,0.11661173403263092,0.010282292030751705
1772788816930758100,0.629758056640625,1.2296205759048462,0.0915631651878357,-0.16486887633800507
1772788816950790100,0.6497900390625,0.9811845421791077,-0.1898006647825241,0.06835369765758514
1772788816970822400,0.669822509765625,1.2294141054153442,-0.12676432728767395,-0.001798467943444848
1772788816990855200,0.689855224609375,1.6068799495697021,-0.21772430837154388,0.060065850615501404
1772788817010887400,0.709887451171875,2.0086286067962646,-0.442995548248291,-0.28332436084747314
1772788817030919400,0.72991943359375,2.491196870803833,-0.5430576801300049,-0.6438490748405457
1772788817050952200,0.7499521484375,2.139246940612793,-0.978812038898468,-0.6152336597442627
1772788817070984400,0.769984375,1.7165557146072388,-0.5544528365135193,-0.44316980242729187
1772788817091016200,0.79001611328125,1.7365041971206665,0.014576456509530544,-0.27203309535980225
1772788817111048200,0.810048095703125,2.1490283012390137,0.10768794268369675,-0.19481395184993744
1772788817131081200,0.830081298828125,2.3407020568847656,0.12751264870166779,-0.23599392175674438
1772788817151113200,0.85011328125,1.7898216247558594,0.7829087376594543,-0.31793999671936035
1772788817171145200,0.870145263671875,1.3473223447799683,0.8075656294822693,-0.9516006708145142
1772788817191177500,0.890177490234375,1.3899827003479004,0.8190233111381531,-1.3142653703689575
1772788817211210200,0.910210205078125,1.0783073902130127,0.8385446667671204,-1.031304121017456
1772788817231242200,0.9302421875,1.070007085800171,0.4290308654308319,-0.6847144961357117
1772788817251274200,0.950274169921875,1.125379204750061,-0.31641915440559387,-0.6004644632339478
1772788817271307300,0.970307373046875,1.1488757133483887,-0.5627338290214539,-0.8423260450363159
1772788817291339300,0.99033935546875,0.9681599140167236,-0.3398835361003876,-0.8869256377220154
1772788817311371300,1.010371337890625,0.7309201955795288,-0.22739842534065247,-0.848472535610199
1772788817331403300,1.0304033203125,0.5157077312469482,0.5932682156562805,-0.7004132866859436
1772788817351436300,1.050436279296875,0.2703464925289154,1.1991804838180542,-0.583884060382843
1772788817371468300,1.07046826171875,0.16704049706459045,1.1320459842681885,-0.528008222579956
1772788817391500300,1.090500244140625,0.3265359103679657,0.07162665575742722,-0.3910665512084961
1772788817411532300,1.1105322265625,0.45181164145469666,-0.6467995643615723,-0.3985150456428528
1772788817431565300,1.1305654296875,0.5211861729621887,-0.5403252840042114,-0.505217969417572
1772788817451597300,1.150597412109375,0.5234184861183167,-0.3968923091888428,-0.5731374025344849
1772788817471629300,1.17062939453125,0.5034676790237427,-0.2481817603111267,-0.46643316745758057
1772788817491662300,1.190662353515625,0.4115324318408966,-0.04332466796040535,-0.3099319338798523
1772788817511694000,1.210694091796875,0.2155187427997589,0.07774734497070312,-0.3242746889591217
1772788817531726300,1.230726318359375,0.08737298846244812,0.07680226117372513,-0.3162744641304016
1772788817551758300,1.25075830078125,0.0915573313832283,0.2639216482639313,-0.2615419924259186
1772788817571791000,1.270791015625,0.01081138290464878,0.33617711067199707,-0.13668079674243927
1772788817591823400,1.2908232421875,-0.18953566253185272,0.45762065052986145,-0.050766296684741974
1772788817611855400,1.31085546875,-0.25822198390960693,0.5709763765335083,-0.03401317819952965
1772788817631887000,1.33088720703125,-0.4114997088909149,0.6922038197517395,0.02407696470618248
1772788817651920400,1.35092041015625,-0.7299618124961853,0.656528890132904,-0.03248000144958496
1772788817671952100,1.3709521484375,-1.0051195621490479,0.3655720055103302,-0.3400057554244995
1772788817691984100,1.390984130859375,-0.9722740650177002,-0.16096213459968567,-0.35920676589012146
1772788817712017400,1.411017333984375,-1.1317298412322998,-0.0931321382522583,-0.4925221800804138
1772788817732049200,1.431049072265625,-1.6390485763549805,0.4261264503002167,-0.23467978835105896
1772788817752081200,1.4510810546875,-2.274052381515503,0.5751250386238098,-0.10867047309875488
1772788817772113400,1.471113525390625,-2.05875301361084,1.0007989406585693,-0.7788764238357544
1772788817792146200,1.491146240234375,-1.2374011278152466,0.7604088187217712,-0.27509480714797974
1772788817812178400,1.511178466796875,-1.0748778581619263,-0.7916699051856995,0.08617032319307327
1772788817832210200,1.531210205078125,-1.5144380331039429,-0.5584834814071655,-0.23495453596115112
1772788817852242200,1.5512421875,-2.5213019847869873,0.7835214138031006,-0.5105441212654114
1772788817872275500,1.571275390625,-2.77641224861145,1.2676477432250977,-0.2029932737350464
1772788817892307200,1.59130712890625,-1.8272937536239624,1.7666125297546387,-0.1538747251033783
1772788817912339500,1.61133935546875,-1.0076146125793457,-0.10647761821746826,0.7026426196098328
1772788817932372500,1.63137255859375,-1.041265606880188,-1.316339373588562,1.6536455154418945
1772788817952404500,1.651404541015625,-1.4061013460159302,-0.3870977461338043,1.3915477991104126
1772788817972436500,1.6714365234375,-1.8027271032333374,0.11736370623111725,0.6410830020904541
1772788817992468500,1.691468505859375,-1.5632176399230957,0.41357728838920593,-0.24198727309703827
1772788818012501500,1.71150146484375,-1.2073235511779785,-0.5487226247787476,-0.3941204845905304
1772788818032533500,1.731533447265625,-0.6443971395492554,-1.210033893585205,-0.1935780644416809
1772788818052565500,1.7515654296875,-0.7785378694534302,-0.7569275498390198,-0.3621235191822052
1772788818072597500,1.771597412109375,-1.3198198080062866,0.01485279481858015,-0.5741446614265442
1772788818092630500,1.791630615234375,-1.796311616897583,0.19436794519424438,-0.32222896814346313
1772788818112662500,1.81166259765625,-1.86191987991333,-0.723785936832428,0.3555610179901123
1772788818132694500,1.831694580078125,-1.4585243463516235,-1.544437050819397,0.46448224782943726
1772788818152727600,1.8517275390625,-0.7694218158721924,-1.4919989109039307,-0.11957821995019913
1772788818172759600,1.871759521484375,-0.5685996413230896,-1.8050549030303955,-0.0674019604921341
1772788818192791600,1.89179150390625,-0.8496673703193665,-2.2149298191070557,0.6392220854759216
1772788818212823600,1.911823486328125,-0.660275399684906,-2.491241216659546,0.7469872236251831
1772788818232856600,1.931856689453125,-0.2698570787906647,-1.7750545740127563,0.18298542499542236
1772788818252888300,1.951888427734375,-0.46183475852012634,-0.8808482885360718,0.01574176922440529
1772788818272920600,1.971920654296875,-0.5985268354415894,-0.5146579146385193,0.35330572724342346
1772788818292952600,1.99195263671875,-0.4906729757785797,-0.31772923469543457,0.13414877653121948
1772788818312985300,2.0119853515625,-0.43957841396331787,0.05550909787416458,-0.08313018828630447
1772788818333017600,2.032017578125,-0.1824904829263687,-0.19636771082878113,0.234834223985672
1772788818353049600,2.052049560546875,0.22503121197223663,-0.034645527601242065,0.5475942492485046
1772788818373081300,2.072081298828125,0.49131670594215393,0.073375403881073,0.14447049796581268
1772788818393114600,2.092114501953125,0.5525574684143066,-0.46930375695228577,-0.3645581901073456
1772788818413146400,2.112146484375,0.20297342538833618,-0.6832086443901062,-0.5225459933280945
1772788818433178400,2.132178466796875,-0.008654208853840828,-0.899827241897583,-0.31006139516830444
1772788818453211600,2.152211669921875,-0.07851529866456985,-1.0347822904586792,-0.13923530280590057
1772788818473243400,2.172243408203125,-0.08292927592992783,-0.7369319200515747,-0.07610208541154861
1772788818493275400,2.192275390625,-0.1415606439113617,-0.07866255939006805,0.18442009389400482
1772788818513307600,2.2123076171875,-0.17021462321281433,0.09976225346326828,0.614121675491333
1772788818533340400,2.23234033203125,-0.08747214078903198,-0.3228226900100708,0.616657018661499
1772788818553372700,2.25237255859375,0.03703813999891281,-0.35924437642097473,0.16016346216201782
1772788818573404700,2.27240478515625,0.17629653215408325,-0.10255686938762665,-0.07131541520357132
1772788818593436400,2.2924365234375,0.24448435008525848,0.17064133286476135,-0.03711455687880516
1772788818613469700,2.3124697265625,0.20428988337516785,0.3484639823436737,0.17546312510967255
1772788818633501400,2.33250146484375,0.09695864468812943,0.39478179812431335,0.42145130038261414
1772788818653533400,2.352533447265625,0.003957806620746851,0.4237295985221863,0.430214524269104
1772788818673566500,2.37256640625,-0.06540211290121078,0.20495328307151794,0.045511871576309204
1772788818693598500,2.392598388671875,0.053775493055582047,-0.1293567717075348,-0.41896694898605347
1772788818713630500,2.41263037109375,0.23165930807590485,-0.03291725367307663,-0.16774924099445343
1772788818733662700,2.432662841796875,0.18297263979911804,0.5103211402893066,0.240397647023201
1772788818753695500,2.452695556640625,0.07555965334177017,0.8505035042762756,0.3740488886833191
1772788818773727500,2.4727275390625,0.0416153222322464,0.732481062412262,0.12377294898033142
1772788818793759500,2.492759521484375,0.09714338928461075,0.392259806394577,-0.4845261573791504
1772788818813791500,2.51279150390625,0.18921518325805664,0.003387260250747204,-1.1414214372634888
1772788818833824500,2.532824462890625,0.40452805161476135,-0.1682996302843094,-0.8947967290878296
1772788818853856500,2.5528564453125,0.47431260347366333,0.2689191401004791,0.047883857041597366
1772788818873888500,2.572888427734375,0.46362048387527466,0.6378853917121887,0.43835821747779846
1772788818893921500,2.592921630859375,0.419280469417572,0.612059473991394,0.31577447056770325
1772788818913953300,2.612953369140625,0.40542465448379517,0.3848685622215271,0.2006256878376007
1772788818933985300,2.6329853515625,0.34386777877807617,0.051311857998371124,0.18504035472869873
1772788818954017300,2.653017333984375,0.20834296941757202,-0.17803505063056946,0.23996464908123016
1772788818974050300,2.67305029296875,0.1852632761001587,-0.006222985684871674,0.019732333719730377
1772788818994082300,2.693082275390625,0.2689361870288849,0.4125819206237793,-0.03504019230604172
1772788819014114300,2.7131142578125,0.27697280049324036,0.4133184552192688,0.03226056694984436
1772788819034146300,2.733146240234375,0.12668898701667786,0.22862401604652405,-0.10656736046075821
1772788819054179000,2.753178955078125,-0.08115094155073166,-0.07697125524282455,-0.06294111907482147
1772788819074211300,2.77321142578125,-0.22149764001369476,-0.23815983533859253,0.031899623572826385
1772788819094243300,2.793243408203125,-0.1628984659910202,-0.007443036884069443,-0.09925097972154617
1772788819114276000,2.813276123046875,-0.12931036949157715,0.3071453273296356,-0.13226118683815002
1772788819134308400,2.833308349609375,-0.07215314358472824,0.276676207780838,-0.11314711719751358
1772788819154340400,2.85334033203125,-0.05524313822388649,0.019166655838489532,0.033290520310401917
1772788819174372000,2.8733720703125,-0.16932372748851776,-0.24900251626968384,0.05128592252731323
1772788819194405400,2.8934052734375,-0.22471508383750916,-0.21851760149002075,-0.09857392311096191
1772788819214437000,2.91343701171875,-0.10795840620994568,-0.05342337489128113,-0.13782541453838348
1772788819234469000,2.93346923828125,-0.06099638342857361,-0.06827013194561005,0.1896543651819229
1772788819254501400,2.95350146484375,-0.19026893377304077,-0.15142254531383514,0.3485926389694214
1772788819274534100,2.9735341796875,-0.2639494836330414,-0.2269476354122162,0.24578388035297394
1772788819294566100,2.993566162109375,-0.18036536872386932,-0.05969434604048729,0.11600861698389053
1772788819314598400,3.013598388671875,-0.08258749544620514,0.07762062549591064,0.1294291466474533
1772788819334631200,3.033631103515625,-0.050547774881124496,-0.14899688959121704,0.2639320492744446
1772788819354663400,3.053663330078125,0.0025330963544547558,-0.4358151853084564,0.34356340765953064
1772788819374695400,3.0736953125,0.07894443720579147,-0.2862774133682251,0.38201904296875
1772788819394727200,3.09372705078125,0.15351401269435883,0.023911505937576294,0.3401293456554413
1772788819414760400,3.113760498046875,0.1920371651649475,0.15784654021263123,0.2730315625667572
1772788819434792200,3.133792236328125,0.20170694589614868,-0.17428620159626007,0.24125538766384125
1772788819454824200,3.15382421875,0.22649113833904266,-0.5454031229019165,0.21097126603126526
1772788819474856400,3.1738564453125,0.26890504360198975,-0.41817259788513184,0.22396549582481384
1772788819494889200,3.19388916015625,0.2798685133457184,-0.07936454564332962,0.2451772689819336
1772788819514921200,3.213921142578125,0.23967933654785156,0.1151072084903717,0.22309136390686035
1772788819534953500,3.233953369140625,0.16626743972301483,0.19813072681427002,0.1700718253850937
1772788819554985200,3.253985107421875,0.09004388749599457,0.04326934739947319,0.070284903049469
1772788819575018200,3.274018310546875,0.08412661403417587,-0.20712065696716309,-0.0230029858648777
1772788819595050200,3.29405029296875,0.09042079746723175,-0.19312547147274017,0.08056063205003738
1772788819615082200,3.314082275390625,0.05298316478729248,0.15748345851898193,0.17045003175735474
1772788819635115300,3.334115234375,0.023821812123060226,0.3559412956237793,0.10538078099489212
1772788819655147300,3.354147216796875,-0.014580792747437954,0.17167659103870392,0.09919751435518265
1772788819675179300,3.37417919921875,-0.043288666754961014,-0.030977590009570122,0.08373230695724487
1772788819695211300,3.394211181640625,-0.0008206765633076429,0.007012997753918171,0.1418367624282837
1772788819715244300,3.414244384765625,0.06791764497756958,0.10961180925369263,0.22386318445205688
1772788819735276300,3.4342763671875,0.11124897003173828,0.026260260492563248,0.15186558663845062
1772788819755308300,3.454308349609375,0.10922785103321075,-0.03190447390079498,0.055752672255039215
1772788819775341300,3.47434130859375,0.12495461106300354,-0.11220092326402664,0.11126045882701874
1772788819795373300,3.494373291015625,0.12865331768989563,-0.1232791617512703,0.11484683305025101
1772788819815405300,3.5144052734375,0.11404842883348465,-0.11184471845626831,0.0694943442940712
1772788819835437300,3.534437255859375,0.11535246670246124,-0.09833953529596329,0.08750646561384201
1772788819855470000,3.554469970703125,0.13935790956020355,-0.0459047369658947,0.1410517543554306
1772788819875502300,3.57450244140625,0.09620902687311172,0.07218713313341141,0.20169387757778168
1772788819895534300,3.594534423828125,0.035592880100011826,0.1279182732105255,0.13356560468673706
1772788819915566000,3.614566162109375,0.005555081181228161,0.11595629155635834,0.10335072129964828
1772788819935599400,3.634599365234375,0.0013210854958742857,0.057283323258161545,0.08448395133018494
1772788819955631400,3.65463134765625,-0.03231846168637276,0.07179468870162964,0.060203202068805695
1772788819975663000,3.6746630859375,-0.054190248250961304,0.1889774203300476,0.012990966439247131
1772788819995696400,3.6946962890625,-0.06541407108306885,0.2827624976634979,-0.04749560356140137
1772788820015728000,3.71472802734375,-0.09520755708217621,0.35857105255126953,-0.13020946085453033
1772788820035760000,3.734760009765625,-0.11438324302434921,0.42347443103790283,-0.1591813564300537
1772788820055792400,3.75479248046875,-0.06720893830060959,0.3462826907634735,-0.12510237097740173
1772788820075825200,3.7748251953125,-0.062220990657806396,0.1716272234916687,-0.09999605268239975
1772788820095857400,3.794857421875,-0.10367026925086975,-0.00831197015941143,-0.13929033279418945
1772788820115889400,3.814889404296875,-0.10004932433366776,-0.07184506952762604,-0.13999564945697784
1772788820135921200,3.834921142578125,-0.07329017668962479,0.004397847689688206,-0.07319236546754837
1772788820155954400,3.854954345703125,-0.05623199790716171,0.024856049567461014,-0.03995729237794876
1772788820175986200,3.874986083984375,-0.025401290506124496,-0.005831767804920673,-0.010735560208559036
1772788820196018200,3.89501806640625,-0.008663317188620567,-0.0025570066645741463,0.04208128899335861
1772788820216051500,3.915051513671875,-0.016228804364800453,-0.01917242258787155,0.023128096014261246
1772788820236083200,3.935083251953125,-0.024833982810378075,-0.031024370342493057,-0.025519905611872673
1772788820256115200,3.955115234375,-0.03414463251829147,-0.044804178178310394,-0.05502163618803024
1772788820276147500,3.9751474609375,-0.06621909141540527,-0.027749858796596527,-0.03445148468017578
1772788820296180200,3.99518017578125,-0.0776313990354538,0.04266268014907837,-0.03717523813247681
1772788820316212200,4.015212158203125,-0.0637175664305687,0.059608131647109985,-0.06234174221754074
1772788820336244200,4.035244140625,-0.049180399626493454,0.0990930125117302,-0.04064130038022995
1772788820356276200,4.055276123046875,-0.04731183871626854,0.25713449716567993,0.0030749784782528877
1772788820376309200,4.075309326171875,-0.07267534732818604,0.3505729138851166,0.007869027554988861
1772788820396341200,4.09534130859375,-0.14436089992523193,0.0666419044137001,-0.007253000512719154
1772788820416373200,4.115373291015625,-0.2565208971500397,-0.27805522084236145,-0.024289892986416817
1772788820436406300,4.13540625,-0.2910332977771759,-0.35590070486068726,-0.07588864862918854
1772788820456438300,4.155438232421875,-0.26447594165802,-0.16280274093151093,-0.1601300984621048
1772788820476470300,4.17547021484375,-0.18691648542881012,-0.012013910338282585,-0.1636030524969101
1772788820496502300,4.195502197265625,-0.12415094673633575,-0.12325646728277206,-0.07944627106189728
1772788820516535300,4.215535400390625,-0.12431202828884125,-0.15833556652069092,0.06198403239250183
1772788820536567300,4.2355673828125,-0.1451757848262787,-0.14387667179107666,0.1348356455564499
1772788820556599300,4.255599365234375,-0.12048300355672836,-0.02715929225087166,0.08402048051357269
1772788820576631300,4.27563134765625,-0.06374979019165039,0.033192239701747894,0.06763037294149399
1772788820596664000,4.2956640625,-0.07774774730205536,-0.10984545201063156,0.10533952713012695
1772788820616696300,4.3156962890625,-0.07733723521232605,-0.17193694412708282,0.07572851330041885
1772788820636728300,4.335728271484375,-0.04812139645218849,-0.08696646243333817,0.0199082400649786
1772788820656761000,4.355760986328125,0.006101022474467754,-0.015511063858866692,0.004524839110672474
1772788820676793300,4.37579345703125,0.022954966872930527,0.019133716821670532,0.03236190974712372
1772788820696825300,4.395825439453125,-0.01040495652705431,0.06296448409557343,0.04922942817211151
1772788820716859400,4.415859375,-0.038621686398983,0.14460381865501404,-0.019709670916199684
1772788820736892200,4.43589208984375,-0.03518097102642059,0.09937476366758347,-0.06494126468896866
1772788820756924400,4.45592431640625,-0.046849384903907776,0.010875701904296875,-0.04529030993580818
1772788820776956400,4.475956298828125,-0.07770098745822906,-0.03794606029987335,-0.06994272768497467
1772788820796989200,4.4959892578125,-0.11823669821023941,-0.03837387263774872,-0.0744873434305191
1772788820817021400,4.516021484375,-0.13567745685577393,-0.15602366626262665,-0.11152741312980652
1772788820837053200,4.53605322265625,-0.17077688872814178,-0.18548187613487244,-0.19265899062156677
1772788820857085200,4.556085205078125,-0.18010900914669037,-0.12061767280101776,-0.22663281857967377
1772788820877118500,4.576118408203125,-0.11585342884063721,-0.10553252696990967,-0.19688332080841064
1772788820897150200,4.596150146484375,-0.09824035316705704,-0.10069876909255981,-0.12093819677829742
1772788820917182500,4.616182373046875,-0.11498695611953735,0.0034862542524933815,-0.13141977787017822
1772788820937215500,4.636215576171875,-0.10351308435201645,0.05884533375501633,-0.15400703251361847
1772788820957247500,4.65624755859375,-0.08265233039855957,-0.046672143042087555,-0.09819483757019043
1772788820977279700,4.67627978515625,-0.0656440481543541,-0.1378847360610962,-0.04060133919119835
1772788820997311500,4.6963115234375,-0.051467590034008026,-0.10319255292415619,0.010703768581151962
1772788821017344500,4.716344482421875,-0.04305125027894974,-0.042112547904253006,0.015235917642712593
1772788821037376800,4.736376708984375,-0.03670777007937431,-0.056988880038261414,0.011792954057455063
1772788821057408500,4.756408447265625,-0.03377612307667732,-0.08727522194385529,0.02377469651401043
1772788821077440500,4.7764404296875,-0.01013106107711792,-0.015119018964469433,-0.015553961507976055
1772788821097473500,4.7964736328125,0.028033006936311722,0.034126896411180496,-0.06874758005142212
1772788821117505500,4.816505615234375,0.025391241535544395,0.06112527847290039,-0.012853756546974182
1772788821137537500,4.83653759765625,0.006526730954647064,0.04438328742980957,0.043105076998472214
1772788821157570600,4.856570556640625,0.014384306035935879,-0.01796426624059677,0.08895310014486313
1772788821177602600,4.8766025390625,0.016385288909077644,-0.0069118523970246315,0.07744301855564117
1772788821197634600,4.896634521484375,0.008951390162110329,-0.014662487432360649,0.018560748547315598
1772788821217666600,4.91666650390625,0.029572192579507828,-0.014733696356415749,0.03566763550043106
1772788821237699600,4.936699462890625,0.052332960069179535,0.03225871920585632,0.1190093606710434
1772788821257731600,4.956731689453125,0.06428217887878418,0.016626257449388504,0.10120251029729843
1772788821277763600,4.976763671875,0.05645597726106644,-0.0903889536857605,0.04700075089931488
1772788821297796600,4.996796630859375,0.03604977950453758,-0.12567570805549622,0.037578731775283813
1772788821317828600,5.01682861328125,0.018938373774290085,0.0030559347942471504,0.06346502155065536
1772788821337860600,5.036860595703125,0.023646412417292595,0.04812653735280037,0.06312933564186096
1772788821357892600,5.056892578125,0.006585526745766401,-0.04961482435464859,0.03748590126633644
1772788821377925600,5.076925537109375,-0.026986127719283104,-0.09422074258327484,-0.016800161451101303
1772788821397957600,5.09695751953125,-0.021643880754709244,-0.012593625113368034,0.015153847634792328
1772788821417989400,5.1169892578125,-0.00943550281226635,0.0710047036409378,0.07204362750053406
1772788821438022700,5.137022705078125,-0.010172680951654911,0.04787098243832588,0.048108186572790146
1772788821458054700,5.1570546875,-0.047637443989515305,-0.0039092861115932465,0.04078309237957001
1772788821478086400,5.17708642578125,-0.05403577536344528,-0.01617170311510563,0.022880123928189278
1772788821498118700,5.19711865234375,-0.04199117794632912,-0.006826587021350861,0.010493003763258457
1772788821518151400,5.2171513671875,-0.02896369993686676,-0.012653389945626259,0.02223159372806549
1772788821538183400,5.237183349609375,-0.004812775645405054,-0.013494719751179218,-0.0061186011880636215
1772788821558215700,5.257215576171875,0.0013460023328661919,-0.02476677857339382,0.0005646473728120327
1772788821578247400,5.277247314453125,0.017045384272933006,-0.01869906857609749,0.017494849860668182
1772788821598280700,5.29728076171875,0.021426428109407425,-0.009484108537435532,0.039197344332933426
1772788821618312700,5.317312744140625,0.020905205979943275,0.007073472253978252,0.06717786937952042
1772788821638344400,5.337344482421875,0.04136887192726135,0.046002380549907684,0.0561722069978714
1772788821658377700,5.357377685546875,0.04352182149887085,-0.007719866931438446,0.055497556924819946
1772788821678409500,5.377409423828125,0.012394535355269909,-0.031197890639305115,0.05941503867506981
1772788821698441500,5.39744140625,0.019627995789051056,-0.022692322731018066,0.054705195128917694
1772788821718473700,5.4174736328125,0.03579955920577049,-0.018456868827342987,0.04944220930337906
1772788821738506500,5.437506591796875,0.03765330836176872,-0.001406925730407238,0.04394979029893875
1772788821758538500,5.45753857421875,0.04073138162493706,0.051514044404029846,0.04166502505540848
1772788821778570800,5.47757080078125,0.05402625724673271,0.07982487976551056,0.03897035866975784
1772788821798603500,5.497603515625,0.061970777809619904,0.04838182404637337,0.010557873174548149
1772788821818635500,5.517635498046875,0.030904877930879593,-0.04230025038123131,0.00997689925134182
1772788821838667500,5.53766748046875,0.012899354100227356,-0.05582118034362793,0.010787155479192734
1772788821858699500,5.557699462890625,0.03185361623764038,0.01794641837477684,0.01176614873111248
1772788821878732800,5.57773291015625,0.041952647268772125,0.08923987299203873,-0.009253721684217453
1772788821898764500,5.5977646484375,0.024495823308825493,0.06201304495334625,-0.019573679193854332
1772788821918796300,5.61779638671875,0.018925383687019348,-0.016279174014925957,-0.03162510693073273
1772788821938828300,5.637828369140625,0.0019523145165294409,-0.0660194605588913,-0.01425204798579216
1772788821958861300,5.657861328125,-0.015821920707821846,-0.02606464922428131,0.017831381410360336
1772788821978893300,5.677893310546875,-0.008064031600952148,0.026495831087231636,0.03397907316684723
1772788821998925300,5.69792529296875,-0.020307648926973343,-0.0028447462245821953,0.018116753548383713
1772788822018958300,5.717958251953125,-0.03836480900645256,-0.040807824581861496,0.006845610681921244
1772788822038990300,5.737990234375,-0.03559310734272003,-0.001981837674975395,0.022122137248516083
1772788822059022000,5.75802197265625,-0.016985414549708366,0.06203414499759674,0.008768889121711254
1772788822079054300,5.778054443359375,-0.02552364021539688,0.01472667045891285,0.02624943107366562
1772788822099087400,5.79808740234375,-0.028398945927619934,-0.0058751776814460754,0.017688091844320297
1772788822119119000,5.818119140625,-0.01272929459810257,0.01781299337744713,-0.0037472969852387905
1772788822139151400,5.8381513671875,0.013044975697994232,-0.02081376686692238,0.007350417785346508
1772788822159184100,5.85818408203125,0.008694659918546677,-0.011984678916633129,-0.010947609320282936
1772788822179216400,5.87821630859375,0.0188535638153553,0.018081380054354668,0.0060287523083388805
1772788822199248400,5.898248291015625,0.03425173461437225,0.030897771939635277,0.019632358103990555
1772788822219280100,5.918280029296875,0.025817161425948143,0.009706850163638592,0.034945882856845856
1772788822239313400,5.9383134765625,0.03538370132446289,-0.030824339017271996,-0.0028355279937386513
1772788822259345400,5.958345458984375,0.029193377122282982,-0.07080265879631042,0.0013859053142368793
1772788822279377200,5.978377197265625,0.019821368157863617,-0.00872066244482994,0.004976751748472452
1772788822299410400,5.998410400390625,0.02151651680469513,0.0721411257982254,0.007854783907532692
1772788822319442200,6.018442138671875,0.033556144684553146,0.045723240822553635,-0.00987603422254324
1772788822339474200,6.03847412109375,0.0077767702750861645,-0.03326273709535599,-0.0175880528986454
1772788822359506400,6.05850634765625,-0.014160812832415104,-0.06316281855106354,-0.017238281667232513
1772788822379539200,6.078539306640625,-0.01108129695057869,-0.045839689671993256,-0.0036187279038131237
1772788822399571200,6.0985712890625,-0.007504710927605629,-0.05278754234313965,0.00842337403446436
1772788822419603500,6.118603515625,-0.018643582239747047,-0.06958691775798798,0.015012710355222225
1772788822439635200,6.13863525390625,-0.013465598225593567,-0.05379543453454971,0.012348751537501812
1772788822459668200,6.158668212890625,-0.006157555617392063,-0.023701578378677368,0.03424256667494774
1772788822479700200,6.1787001953125,-0.0017202027374878526,0.009420016780495644,0.03709989786148071
1772788822499732200,6.198732177734375,-0.000034627970308065414,0.022528603672981262,0.004768759477883577
1772788822519765500,6.218765625,0.00029805442318320274,0.0009563006460666656,-0.005216301418840885
1772788822539797200,6.23879736328125,0.00823437049984932,0.015499217435717583,0.023001395165920258
1772788822559829200,6.258829345703125,0.03129233792424202,0.044536031782627106,0.01665661111474037
1772788822579861200,6.278861328125,0.033791765570640564,0.04849611222743988,0.03927984833717346
1772788822599894300,6.298894287109375,0.02259155549108982,0.020098943263292313,0.03717975690960884
1772788822619926300,6.31892626953125,0.050695810467004776,-0.03487793728709221,0.014414298348128796
1772788822639958300,6.338958251953125,0.050123028457164764,-0.034753166139125824,0.011218741536140442
1772788822659991300,6.3589912109375,0.044620413333177567,0.026453478261828423,0.010972348973155022
1772788822680023300,6.379023193359375,0.05456501618027687,0.07024309039115906,0.018064012750983238
1772788822700055300,6.39905517578125,0.05094718560576439,0.02382567524909973,0.030645504593849182
1772788822720087300,6.41908740234375,0.03878570348024368,-0.03939943388104439,0.03310079500079155
1772788822740120000,6.4391201171875,0.04335314780473709,-0.013279142789542675,0.02495012804865837
1772788822760152300,6.45915234375,0.055078767240047455,0.03626027703285217,0.017858382314443588
1772788822780184300,6.479184326171875,0.04674585163593292,0.055397987365722656,-0.02835848554968834
1772788822800217300,6.49921728515625,0.03788251802325249,-0.015066864900290966,-0.015416264533996582
1772788822820249300,6.519249267578125,0.021723303943872452,0.000923515297472477,0.015605254098773003
1772788822840281300,6.53928125,0.024816282093524933,0.058169588446617126,-0.0023633744567632675
1772788822860313000,6.55931298828125,0.004194136708974838,0.025401610881090164,-0.021546676754951477
1772788822880346400,6.579346435546875,-0.015743741765618324,-0.03531404584646225,-0.024831291288137436
1772788822900378000,6.599378173828125,-0.023277681320905685,-0.04216007515788078,-0.026257554069161415
1772788822920409900,6.619409912109375,-0.024344494566321373,-0.018545862287282944,-0.032260630279779434
1772788822940443000,6.63944287109375,-0.043665483593940735,0.04676012694835663,-0.017864903435111046
1772788822960474600,6.659474609375,-0.041507139801979065,0.054670751094818115,-0.0069247400388121605
1772788822980507000,6.6795068359375,-0.03774792328476906,-0.00536228995770216,-0.006232201121747494
1772788823000539000,6.699538818359375,-0.04242132604122162,-0.06453950703144073,-0.012957174330949783
1772788823020571600,6.719571533203125,-0.030436694622039795,-0.025219250470399857,-0.04734162613749504
1772788823040604000,6.73960400390625,-0.023381885141134262,-0.01567988097667694,-0.02036735787987709
1772788823060636000,6.759635986328125,-0.03239947184920311,0.004494787193834782,0.0032566068693995476
1772788823080669000,6.7796689453125,-0.036505136638879776,0.001885935664176941,0.00649725366383791
1772788823100701000,6.799700927734375,-0.04395833611488342,-0.0041132476180791855,0.036238186061382294
1772788823120732700,6.819732666015625,-0.05484671890735626,-0.05690532177686691,0.045617349445819855
1772788823140764700,6.8397646484375,-0.04814216122031212,-0.016912398859858513,0.022764191031455994
1772788823160798000,6.8597978515625,-0.024539846926927567,-0.004376403987407684,0.01540556363761425
1772788823180829700,6.87982958984375,-0.01498144306242466,-0.08488845825195312,0.024640534073114395
1772788823200862000,6.899862060546875,-0.031182441860437393,-0.11939408630132675,0.01018082071095705
1772788823220894700,6.919894775390625,-0.03070666268467903,-0.0305174607783556,-0.027653222903609276
1772788823240926700,6.9399267578125,-0.014796865172684193,0.055980559438467026,-0.020144522190093994
1772788823260959000,6.959958984375,0.019735783338546753,0.0975283533334732,-0.041661232709884644
1772788823280990700,6.97999072265625,0.038212090730667114,0.04585869237780571,-0.08534222841262817
1772788823301023700,7.000023681640625,0.029265251010656357,-0.02733459882438183,-0.20758934319019318
1772788823321056000,7.020055908203125,0.018676554784178734,-0.0464475154876709,-0.30181631445884705
1772788823341087700,7.040087646484375,0.007174214348196983,0.05966557189822197,-0.28458550572395325
1772788823361120800,7.060120849609375,-0.002153923735022545,0.12682700157165527,-0.22840328514575958
1772788823381152800,7.08015283203125,-0.010254113003611565,0.0864202156662941,-0.19524118304252625
1772788823401184800,7.100184814453125,-0.03377893567085266,-0.040824390947818756,-0.1706678569316864
1772788823421216800,7.120216796875,-0.075506791472435,-0.06352061778306961,-0.12364138662815094
1772788823441249800,7.140249755859375,-0.0874304473400116,-0.02580416202545166,-0.03285432979464531
1772788823461281800,7.16028173828125,-0.11831565201282501,-0.010284057818353176,0.0406678207218647
1772788823481313800,7.180313720703125,-0.1659773737192154,-0.026441574096679688,0.05816790461540222
1772788823501346800,7.200346923828125,-0.1926865130662918,-0.05789182707667351,0.0650615319609642
1772788823521378800,7.22037890625,-0.19723528623580933,-0.008738993667066097,0.02038366161286831
1772788823541410800,7.240410888671875,-0.1521812379360199,-0.00012414343655109406,-0.03793057054281235
1772788823561442800,7.26044287109375,-0.0791616141796112,-0.10422816872596741,-0.07851901650428772
1772788823581475800,7.280475830078125,-0.05200931802392006,-0.21531811356544495,-0.13450878858566284
1772788823601507800,7.3005078125,-0.026206886395812035,-0.21359799802303314,-0.19728684425354004
1772788823621539800,7.320539794921875,0.009767566807568073,-0.07034388184547424,-0.29218345880508423
1772788823641572600,7.340572509765625,0.023644963279366493,0.010679326020181179,-0.37502792477607727
1772788823661604900,7.36060498046875,-0.004791096318513155,0.048438891768455505,-0.3136403560638428
1772788823681636900,7.380636962890625,-0.06539542227983475,0.018961895257234573,-0.20977000892162323
1772788823701668900,7.4006689453125,-0.10281816869974136,-0.051186032593250275,-0.15376533567905426
1772788823721702000,7.420701904296875,-0.13002313673496246,0.017173629254102707,-0.04464152827858925
1772788823741734000,7.44073388671875,-0.14723321795463562,0.10266666859388351,0.053517431020736694
1772788823761765600,7.460765625,-0.16550229489803314,0.09947223216295242,0.13992299139499664
1772788823781799000,7.480798828125,-0.18009907007217407,0.06509415060281754,0.17477841675281525
1772788823801830700,7.50083056640625,-0.18667231500148773,-0.0335223525762558,0.1601843386888504
1772788823821862700,7.520862548828125,-0.20632189512252808,-0.12833110988140106,0.14934206008911133
1772788823841895000,7.54089501953125,-0.21299497783184052,-0.1273212432861328,0.14646850526332855
1772788823861927700,7.560927734375,-0.2043491005897522,-0.0883265808224678,0.13729293644428253
1772788823881960000,7.5809599609375,-0.19282492995262146,-0.08145985007286072,0.11979047954082489
1772788823901992000,7.600991943359375,-0.1762007623910904,-0.1103966236114502,0.10396100580692291
1772788823922025200,7.621025146484375,-0.1625131219625473,-0.09179913997650146,0.09828414022922516
1772788823942057500,7.641057373046875,-0.12941768765449524,-0.03585663065314293,0.06147225201129913
1772788823962089200,7.661089111328125,-0.08650977909564972,-0.046630337834358215,0.05837832763791084
1772788823982121200,7.681121337890625,-0.07245315611362457,-0.07228844612836838,0.06490635126829147
1772788824002154200,7.701154296875,-0.05880149081349373,-0.0885779857635498,0.06078191101551056
1772788824022186200,7.721186279296875,-0.03275046870112419,-0.14013443887233734,0.0817766860127449
1772788824042218200,7.74121826171875,-0.04089615121483803,-0.1775055229663849,0.11789592355489731
1772788824062251300,7.761251220703125,-0.06443925201892853,-0.15741321444511414,0.1703074425458908
1772788824082283300,7.781283203125,-0.06925068795681,-0.10857170820236206,0.21328598260879517
1772788824102315500,7.8013154296875,-0.033379413187503815,-0.09990505874156952,0.22018800675868988
1772788824122347300,7.82134716796875,-0.020246639847755432,-0.09869586676359177,0.1934395730495453
1772788824142380300,7.84138037109375,-0.027582306414842606,-0.1239016056060791,0.1294645220041275
1772788824162412300,7.861412353515625,-0.03892648220062256,-0.1271713823080063,0.06936463713645935
1772788824182444300,7.8814443359375,-0.03351582959294319,-0.0907662883400917,0.03985927253961563
1772788824202477300,7.901477294921875,-0.005913092289119959,-0.0645594373345375,0.0022523952648043633
1772788824222509300,7.92150927734375,-0.016848735511302948,-0.05619531869888306,-0.03551691398024559
1772788824242541300,7.941541259765625,-0.03464828059077263,-0.03955278545618057,-0.05127748101949692
1772788824262573300,7.9615732421875,-0.03131623566150665,-0.011647982522845268,-0.05448061227798462
1772788824282606300,7.9816064453125,-0.018129974603652954,-0.04770955070853233,-0.04179560765624046
1772788824302638300,8.001638427734376,-0.019899707287549973,-0.07861018180847168,-0.029307682067155838
1772788824322668300,8.021668212890624,-0.01993260160088539,-0.13871188461780548,-0.026424964889883995
1772788824342701300,8.041701416015625,-0.023934751749038696,-0.1471160650253296,-0.026702243834733963
1772788824362733300,8.0617333984375,-0.03060334175825119,-0.06953147053718567,-0.018412893638014793
1772788824382765300,8.081765380859375,-0.03206032142043114,-0.012625894509255886,0.008081035688519478
1772788824402797300,8.10179736328125,-0.03666549548506737,-0.020775385200977325,0.02662888541817665
1772788824422830300,8.121830322265625,-0.03532625734806061,-0.028533820062875748,0.020278964191675186
1772788824442862300,8.1418623046875,-0.03894936293363571,0.01022501103579998,0.009353192523121834
1772788824462894000,8.16189404296875,-0.02222626470029354,0.031893111765384674,0.005883071571588516
1772788824482927400,8.18192724609375,-0.033148590475320816,0.042368583381175995,0.004261115100234747
1772788824502959400,8.20195947265625,-0.016407743096351624,-0.001989522948861122,0.01096673309803009
1772788824522991400,8.221991455078125,-0.019847815856337547,0.009368584491312504,0.04059472307562828
1772788824543023400,8.2420234375,-0.018435850739479065,0.023088034242391586,0.045063797384500504
1772788824563056000,8.26205615234375,-0.015331409871578217,0.036446310579776764,0.03461357578635216
1772788824583088400,8.28208837890625,-0.012422177940607071,0.03747788071632385,0.03530576080083847
1772788824603120400,8.302120361328125,0.003654196858406067,-0.030671214684844017,0.02664945088326931
1772788824623153200,8.322153076171874,0.02923763170838356,-0.0910995826125145,0.03567301854491234
1772788824643185400,8.342185302734375,0.022874198853969574,-0.07237930595874786,0.04044708237051964
1772788824663217400,8.362217529296874,0.027514351531863213,-0.018570952117443085,0.03646683692932129
1772788824683249200,8.382249267578125,0.03081195428967476,0.013275809586048126,0.0027165128849446774
1772788824703282400,8.402282470703126,0.01906692050397396,0.006864339113235474,0.015444537624716759
1772788824723314200,8.422314208984375,0.016668148338794708,0.010793962515890598,0.011459413915872574
1772788824743347500,8.442347412109376,0.03747951239347458,0.11810024082660675,0.0025851628743112087
1772788824763380200,8.462380126953125,0.0435563400387764,0.18054062128067017,0.055199600756168365
1772788824783412200,8.482412109375,0.033677294850349426,0.16279016435146332,0.08849555253982544
1772788824803444500,8.502444580078125,0.02319277822971344,0.10151084512472153,0.05700969323515892
1772788824823476200,8.522476318359375,-0.004778852220624685,0.02879421040415764,-0.0157252736389637
1772788824843509200,8.54250927734375,-0.02548728510737419,-0.030511628836393356,-0.07385171949863434
1772788824863541200,8.562541259765625,-0.032246045768260956,-0.05733004957437515,-0.08712898939847946
1772788824883573200,8.5825732421875,-0.045635782182216644,-0.04168444499373436,-0.062400054186582565
1772788824903606500,8.6026064453125,-0.04788853973150253,-0.013810457661747932,-0.03470855578780174
1772788824923638800,8.622638671875,-0.051385752856731415,-0.02412981539964676,-0.027110004797577858
1772788824943670800,8.6426708984375,-0.059109315276145935,-0.031580813229084015,-0.025544269010424614
1772788824963703800,8.662703857421874,-0.04774784296751022,-0.019254310056567192,-0.022654864937067032
1772788824983735800,8.68273583984375,-0.05065964162349701,-0.0026896484196186066,0.014803975820541382
1772788825003767800,8.702767822265624,-0.053919751197099686,-0.00921611301600933,0.04026370868086815
1772788825023799800,8.7227998046875,-0.060635097324848175,-0.011755683459341526,0.030421888455748558
1772788825043832800,8.742832763671874,-0.06817486882209778,-0.0013359924778342247,0.02656732313334942
1772788825063864800,8.76286474609375,-0.06567423790693283,0.02176957204937935,0.032522525638341904
1772788825083896800,8.782896728515626,-0.06772328168153763,-0.0018476396799087524,0.05670718103647232
1772788825103929900,8.802929931640625,-0.06862404942512512,-0.013940008357167244,0.02803809382021427
1772788825123961900,8.8229619140625,-0.06963711231946945,-0.002669510431587696,0.013003217056393623
1772788825143993900,8.842993896484375,-0.05088270083069801,0.004543202929198742,-0.009488683193922043
1772788825164025900,8.86302587890625,-0.05683094263076782,0.003819474019110203,-0.002866917522624135
1772788825184059000,8.883058837890625,-0.045996129512786865,-0.006214112974703312,-0.04259944334626198
1772788825204091000,8.9030908203125,-0.03923733904957771,-0.027489397674798965,-0.0331723615527153
1772788825224123000,8.923122802734374,-0.05242156609892845,-0.01992611400783062,0.01236078143119812
1772788825244156000,8.943156005859375,-0.05406951159238815,0.0232754647731781,0.031061489135026932
1772788825264188000,8.96318798828125,-0.013833381235599518,0.00934438593685627,0.009445905685424805
1772788825284219600,8.9832197265625,-0.03192010894417763,-0.024555541574954987,0.020026490092277527
1772788825304253000,9.0032529296875,-0.042960025370121,-0.003062729723751545,0.006767990533262491
1772788825324284700,9.02328466796875,-0.030396010726690292,0.0633229985833168,0.02056555077433586
1772788825344316700,9.043316650390626,-0.003015444613993168,0.019831061363220215,0.013328063301742077
1772788825364349000,9.063348876953125,-0.02443249151110649,-0.021346542984247208,0.020397331565618515
1772788825384381700,9.083381591796876,-0.025875374674797058,-0.005291770212352276,0.027554592117667198
1772788825404413700,9.10341357421875,-0.003403110895305872,0.05141540244221687,0.011043536476790905
1772788825424446000,9.123446044921875,-0.0008160891011357307,0.04655531793832779,0.018021514639258385
1772788825444478700,9.143478759765625,-0.0009612527210265398,0.040419887751340866,-0.028938259929418564
1772788825464511000,9.163510986328125,-0.0046807401813566685,0.0345630906522274,-0.035784076899290085
1772788825484542700,9.183542724609374,-0.0013150640297681093,0.023876706138253212,-0.029137324541807175
1772788825504574700,9.20357470703125,-0.0004649085458368063,0.018425628542900085,-0.019131379202008247
1772788825524608000,9.22360791015625,-0.0005721705965697765,0.01307760365307331,-0.02060467004776001
1772788825544639700,9.2436396484375,0.006147352978587151,0.01426357589662075,-0.01945243775844574
1772788825564671700,9.263671630859376,0.001050520222634077,-0.007012831978499889,0.016170883551239967
1772788825584704800,9.283704833984375,0.005242357030510902,0.0024550175294280052,0.027399027720093727
1772788825604736800,9.30373681640625,0.02298668958246708,-0.0014308914542198181,0.015902714803814888
1772788825624768800,9.323768798828125,0.011664420366287231,-0.05099358782172203,0.028977112844586372
1772788825644801800,9.3438017578125,-0.0058072153478860855,-0.05434191972017288,0.03222504258155823
1772788825664833800,9.363833740234375,0.001214358489960432,-0.010192545130848885,0.009672168642282486
1772788825684865800,9.38386572265625,-0.000531855272129178,-0.005398542620241642,-0.0053249020129442215
1772788825704897800,9.403897705078125,-0.011428636498749256,-0.03659066930413246,0.009263812564313412
1772788825724930800,9.423930908203126,-0.020090144127607346,-0.06546726077795029,0.024696175009012222
1772788825744962800,9.443962890625,-0.030718686059117317,-0.06467831134796143,0.009842216968536377
1772788825764994800,9.463994873046875,-0.05266812816262245,-0.03848119452595711,0.01929187774658203
1772788825785027800,9.48402783203125,-0.07018673419952393,-0.031754590570926666,0.03623177111148834
1772788825805059800,9.504059814453125,-0.08572853356599808,-0.020718561485409737,0.052752017974853516
1772788825825091800,9.524091796875,-0.10160015523433685,-0.03411368280649185,0.08839228749275208
1772788825845123800,9.544123779296875,-0.1223987340927124,-0.060929372906684875,0.08402424305677414
1772788825865156900,9.564156982421874,-0.14229214191436768,-0.08624376356601715,0.058441273868083954
1772788825885188900,9.58418896484375,-0.14699028432369232,-0.10396004468202591,0.02815690077841282
1772788825905220900,9.604220947265626,-0.1399693489074707,-0.09797276556491852,-0.018921706825494766
1772788825925253000,9.624253173828125,-0.1489313840866089,-0.10360516607761383,-0.04628092795610428
1772788825945285400,9.644285400390626,-0.1761632114648819,-0.09793676435947418,-0.06965019553899765
1772788825965317400,9.6643173828125,-0.2046889364719391,-0.11825748533010483,-0.10014600306749344
1772788825985349000,9.68434912109375,-0.2149757444858551,-0.12910468876361847,-0.1266757994890213
1772788826005382400,9.70438232421875,-0.21991536021232605,-0.09003251045942307,-0.11218369752168655
1772788826025414100,9.7244140625,-0.2066754698753357,-0.04414479061961174,-0.10014431923627853
1772788826045446100,9.744446044921874,-0.19858066737651825,-0.012441517785191536,-0.07323241978883743
1772788826065479200,9.764479248046875,-0.18640385568141937,-0.0281483456492424,-0.04786771908402443
1772788826085511200,9.78451123046875,-0.18056851625442505,-0.09975430369377136,-0.060708750039339066
1772788826105543400,9.80454345703125,-0.18139101564884186,-0.13899728655815125,-0.027662014588713646
1772788826125576200,9.824576171875,-0.2019389122724533,-0.06427911669015884,0.036297839134931564
1772788826145608200,9.844608154296875,-0.19688254594802856,0.031185641884803772,0.06685590744018555
1772788826165640400,9.864640380859376,-0.1767062097787857,-0.023047558963298798,0.054797444492578506
1772788826185672200,9.884672119140625,-0.17809146642684937,-0.15881766378879547,0.02531503140926361
1772788826205705200,9.904705322265626,-0.17938899993896484,-0.2133885771036148,0.025210391730070114
1772788826225737200,9.9247373046875,-0.16704215109348297,-0.10598695278167725,0.046816978603601456
1772788826245769200,9.944769287109375,-0.129430890083313,0.06958694010972977,0.07453814148902893
1772788826265802500,9.964802490234375,-0.09883982688188553,0.07623883336782455,0.06452640146017075
1772788826285834200,9.984834228515625,-0.08217382431030273,-0.012830158695578575,0.02199578657746315
1772788826305866200,10.0048662109375,-0.05881952494382858,-0.0505492240190506,0.01071467250585556
1772788826325898200,10.024898193359375,-0.03265255317091942,0.006478926166892052,0.02146308124065399
1772788826345931300,10.04493115234375,-0.015640079975128174,0.09422222524881363,0.009593140333890915
1772788826365963300,10.06496337890625,0.01742217130959034,0.08666185289621353,-0.0023798069451004267
1772788826385995300,10.084995361328126,0.027668382972478867,0.0013556834310293198,0.017967600375413895
1772788826406028300,10.1050283203125,0.01973589137196541,-0.05371981859207153,0.005950620397925377
1772788826426060300,10.125060302734376,0.029438437893986702,-0.05822671204805374,0.024076523259282112
1772788826446092300,10.14509228515625,0.03853645175695419,-0.040169037878513336,0.06436576694250107
1772788826466125300,10.165125244140626,0.040902115404605865,-0.016765492036938667,0.05712197721004486
1772788826486157000,10.185156982421875,0.03414061665534973,-0.008538455702364445,0.0504441000521183
1772788826506189300,10.205189208984375,0.016313955187797546,-0.008407553657889366,0.08977736532688141
1772788826526221300,10.22522119140625,0.016638072207570076,0.010606649331748486,0.1365334540605545
1772788826546254000,10.245254150390625,0.014572752639651299,0.0055940961465239525,0.1326388418674469
1772788826566286300,10.265286376953124,0.010072372853755951,-0.031069446355104446,0.08661400526762009
1772788826586318300,10.285318359375,0.006353694014251232,-0.057512447237968445,0.05928132310509682
1772788826606351400,10.305351318359374,0.0024517050478607416,-0.05265336483716965,0.07422130554914474
1772788826626383400,10.32538330078125,0.013290420174598694,-0.02115793526172638,0.09098515659570694
1772788826646415400,10.345415283203126,0.018189812079072,0.003753090277314186,0.08199302852153778
1772788826666447000,10.365447021484375,0.022921007126569748,-0.013691626489162445,0.0360126830637455
1772788826686480400,10.38548046875,0.017614759504795074,-0.037061598151922226,0.0026823077350854874
1772788826706512100,10.40551220703125,0.015914127230644226,-0.015074671246111393,0.013103757984936237
1772788826726544400,10.42554443359375,0.01687808148562908,0.026560023427009583,0.011907809413969517
1772788826746577200,10.4455771484375,0.013775717467069626,0.019706416875123978,-0.005878064781427383
1772788826766609200,10.465609130859375,0.002351165981963277,-0.01629696786403656,-0.00025573791936039925
1772788826786641400,10.485641357421875,0.0088953310623765,0.00010433141142129898,0.03319410979747772
1772788826806674200,10.505674072265625,0.022707052528858185,0.06449152529239655,0.06894651800394058
1772788826826706200,10.5257060546875,0.03972984477877617,0.06250625848770142,0.06488794833421707
1772788826846738400,10.545738525390625,0.05017910152673721,0.008533616550266743,0.027006328105926514
1772788826866770200,10.565770263671874,0.051735684275627136,-0.009037071838974953,0.030806656926870346
1772788826886803500,10.585803466796875,0.07009632885456085,0.020671961829066277,0.03396780043840408
1772788826906835200,10.605835205078124,0.0824129655957222,0.014822856523096561,0.024161770939826965
1772788826926867200,10.6258671875,0.08101067692041397,-0.027464164420962334,0.03718207776546478
1772788826946900200,10.645900146484376,0.06799990683794022,-0.017865659669041634,0.045445725321769714
1772788826966932200,10.66593212890625,0.0813421681523323,-0.004201066680252552,0.033789560198783875
1772788826986964200,10.685964111328126,0.08567304164171219,0.002511925995349884,0.05728445202112198
1772788827006997000,10.7059970703125,0.07648427039384842,0.013628624379634857,0.07511620968580246
1772788827027029200,10.726029296875,0.07364419102668762,-0.0062131499871611595,0.06099093705415726
1772788827047061200,10.746061279296875,0.0673631951212883,-0.048453573137521744,0.016048135235905647
1772788827067093200,10.76609326171875,0.06776522099971771,-0.05941521003842354,0.00514260632917285
1772788827087126300,10.786126220703125,0.07216405123472214,-0.029399072751402855,0.013223659247159958
1772788827107158300,10.806158203125,0.06089511513710022,0.012894105166196823,-0.013117670081555843
1772788827127190000,10.82618994140625,0.054984960705041885,0.02391025982797146,-0.036054085940122604
1772788827147223300,10.846223388671875,0.05602153763175011,0.015491890721023083,-0.04050617665052414
1772788827167255000,10.866255126953124,0.03888646140694618,-0.011365612968802452,-0.03137040510773659
1772788827187287000,10.886287109375,0.025411216542124748,-0.03775205463171005,-0.015004614368081093
1772788827207320300,10.9063203125,0.010801962576806545,-0.012353789992630482,0.007169617339968681
1772788827227352000,10.92635205078125,0.009364424273371696,0.029224498197436333,0.04345439001917839
1772788827247384000,10.946384033203126,0.011494058184325695,0.031246976926922798,0.03680217266082764
1772788827267416300,10.966416259765625,0.010807016864418983,-0.014397905208170414,0.009201900102198124
1772788827287449000,10.986448974609376,0.011022050864994526,-0.02433232218027115,-0.012486720457673073
1772788827307481300,11.0064814453125,0.025475777685642242,-0.009082494303584099,-0.018027380108833313
1772788827327513300,11.026513427734375,0.018574891611933708,0.004777597263455391,-0.028933174908161163
1772788827347546000,11.046546142578125,0.02625438943505287,-0.005640549585223198,-0.035677120089530945
1772788827367578400,11.066578369140625,0.017323845997452736,-0.02384425699710846,-0.05405411496758461
1772788827387610000,11.086610107421874,0.005680629052221775,-0.04533905163407326,-0.06939245760440826
1772788827407643100,11.10664306640625,0.004412794020026922,-0.013261616230010986,-0.051262546330690384
1772788827427675100,11.126675048828124,0.014720967970788479,0.02608727663755417,-0.019534846767783165
1772788827447707100,11.14670703125,0.009815352037549019,0.031301334500312805,-0.006045056041330099
1772788827467739100,11.1667392578125,0.005739131942391396,-0.007015789858996868,-0.041204094886779785
1772788827487772200,11.186772216796875,0.0026445449329912663,-0.05215516686439514,-0.04814591258764267
1772788827507804200,11.20680419921875,-0.006661536172032356,-0.017854440957307816,-0.029809575527906418
1772788827527836200,11.226836181640625,0.0014781339559704065,0.041673693805933,-0.01727595366537571
1772788827547869200,11.246869140625,-0.007032371126115322,0.029293250292539597,-0.013605710119009018
1772788827567901200,11.266901123046875,-0.016272591426968575,-0.03897418826818466,-0.02123822644352913
1772788827587933200,11.28693310546875,-0.019140666350722313,-0.0738445296883583,-0.016555752605199814
1772788827607965200,11.306965087890624,-0.021859385073184967,-0.055606335401535034,-0.014849316328763962
1772788827627998200,11.326998291015625,-0.008806967176496983,0.011958860792219639,-0.0026054340414702892
1772788827648030200,11.3470302734375,0.0075187101028859615,0.028299162164330482,0.012281164526939392
1772788827668062200,11.367062255859375,0.008047832176089287,-0.007855079136788845,0.003844848368316889
1772788827688095000,11.387094970703124,0.01636909693479538,-0.03964546322822571,-0.013433694839477539
1772788827708127200,11.407127197265625,0.019067412242293358,-0.031813107430934906,0.00446061696857214
1772788827728159200,11.4271591796875,0.017312701791524887,0.026479724794626236,0.007488851901143789
1772788827748192000,11.44719189453125,0.014349430799484253,0.03519457206130028,-0.003537203650921583
1772788827768224300,11.467224365234374,0.012286503799259663,-0.00032676104456186295,-0.024255244061350822
1772788827788256300,11.48725634765625,0.005069086328148842,0.016728561371564865,-0.030556002631783485
1772788827808288000,11.5072880859375,-0.0039056111127138138,0.14240622520446777,-0.027278371155261993
1772788827828321300,11.5273212890625,-0.006801900453865528,0.22982655465602875,-0.007641170173883438
1772788827848353000,11.54735302734375,-0.006253635510802269,0.19902174174785614,0.005595911759883165
1772788827868385000,11.567385009765625,-0.01303877867758274,0.13237212598323822,-0.03476279228925705
1772788827888418300,11.587418212890626,-0.03138437867164612,0.03879900276660919,-0.04603738710284233
1772788827908450000,11.607449951171875,-0.033203668892383575,-0.005356119945645332,-0.026751529425382614
1772788827928482600,11.627482666015625,-0.006548660341650248,-0.0021932804957032204,0.007662720046937466
1772788827948515300,11.647515380859375,0.0013648595195263624,-0.024970099329948425,0.033640556037425995
1772788827968547300,11.66754736328125,0.006759059615433216,-0.07040075957775116,0.012861834838986397
1772788827988579600,11.68757958984375,0.0060266852378845215,-0.05902334302663803,0.012879438698291779
1772788828008611300,11.707611328125,0.023510029539465904,-0.029584048315882683,0.03442469984292984
1772788828028644400,11.727644287109374,0.024358075112104416,-0.019911255687475204,0.020196136087179184
1772788828048676600,11.747676513671875,0.01697000116109848,-0.017682978883385658,-0.006354838609695435
1772788828068708400,11.767708251953126,0.02210046350955963,-0.031845640391111374,-0.010228835977613926
1772788828088741600,11.78774169921875,0.023164888843894005,-0.047136273235082626,0.001171113457530737
1772788828108773400,11.8077734375,0.009789593517780304,-0.044825777411460876,-0.002745480975136161
1772788828128805400,11.827805419921875,0.0036406207364052534,-0.022301293909549713,-0.0025859575252979994
1772788828148838400,11.84783837890625,0.014233541674911976,-0.005973462015390396,-0.0030309148132801056
1772788828168870400,11.867870361328125,0.010408383794128895,-0.020826419815421104,-0.026271693408489227
1772788828188902400,11.88790234375,-0.005491561722010374,-0.04518543556332588,-0.04580643028020859
1772788828208935400,11.907935302734375,-0.006680529098957777,-0.034292981028556824,-0.02490079402923584
1772788828228967400,11.927967529296875,-0.0017842651577666402,0.006035354919731617,0.0004338356666266918
1772788828248999400,11.94799951171875,-0.006207019090652466,0.016534509137272835,0.01366337575018406
1772788828269031400,11.968031494140625,-0.0063518257811665535,-0.004871970042586327,0.0029757884331047535
1772788828289064400,11.988064453125,-0.009978817775845528,-0.00024611596018075943,-0.004328669514507055
1772788828309096400,12.008096435546875,0.006909533869475126,0.008224420249462128,0.014046385884284973
1772788828329127400,12.02812744140625,0.012496024370193481,-0.0270068496465683,0.005293119233101606
1772788828349160400,12.048160400390625,0.008154439739882946,-0.07799845933914185,0.0160239115357399
1772788828369192400,12.0681923828125,0.015484683215618134,-0.05615568161010742,0.012358210980892181
1772788828389224400,12.088224365234375,0.002108360640704632,0.036822058260440826,0.041047677397727966
1772788828409257500,12.108257568359376,-0.0028644013218581676,0.03755475580692291,0.043988216668367386
1772788828429289200,12.128289306640625,-0.016660144552588463,0.028251050040125847,0.03703416511416435
1772788828449321500,12.148321533203125,-0.027568887919187546,0.05525489151477814,0.03462817519903183
1772788828469353500,12.168353515625,-0.03349047526717186,0.053050633519887924,0.021836793050169945
1772788828489386200,12.18838623046875,-0.03371179476380348,0.007697524502873421,0.05164613574743271
1772788828509418500,12.20841845703125,-0.04632451385259628,0.0011070119217038155,0.061616163700819016
1772788828529450500,12.228450439453125,-0.04392123967409134,0.0324648842215538,0.0683656856417656
1772788828549483500,12.2484833984375,-0.034673478454351425,0.05418948456645012,0.05970272049307823
1772788828569515500,12.268515625,-0.02766556106507778,0.021683087572455406,0.04600173979997635
1772788828589547500,12.288547607421876,-0.0331960953772068,-0.02279532700777054,0.012021595612168312
1772788828609580500,12.30858056640625,-0.01648738607764244,-0.05205046758055687,-0.019285190850496292
1772788828629612500,12.328612548828126,-0.0144906435161829,-0.04532697796821594,0.0012217727489769459
1772788828649644300,12.348644287109375,-0.0036066872999072075,-0.0073630535043776035,0.010312576778233051
1772788828669676500,12.368676513671875,0.012286141514778137,0.004676325246691704,-0.010782751254737377
1772788828689709300,12.388709228515625,0.02294274792075157,-0.030648697167634964,-0.02681279182434082
1772788828709741300,12.4087412109375,0.012769430875778198,-0.03733518719673157,-0.02002277411520481
1772788828729773600,12.428773681640624,0.023102810606360435,0.00425403006374836,-0.0026638032868504524
1772788828749806300,12.448806396484375,0.029545284807682037,0.01107922475785017,0.002673693001270294
1772788828769838300,12.46883837890625,0.01746501959860325,-0.019692203029990196,-0.016155505552887917
1772788828789870600,12.48887060546875,0.006579998880624771,-0.020595043897628784,-0.008113129064440727
1772788828809903400,12.5089033203125,0.0070936596021056175,-0.004195699468255043,0.01626814529299736
1772788828829935600,12.528935546875,0.01214089896529913,0.003636830486357212,-0.0018256250768899918
1772788828849967400,12.54896728515625,0.00811742153018713,-0.012220778502523899,-0.015157178044319153
1772788828870000400,12.56900048828125,0.012347463518381119,-0.0280589759349823,-0.006005896255373955
1772788828890032600,12.58903271484375,0.014264960773289204,-0.037783727049827576,0.02270243689417839
1772788828910064400,12.609064453125,0.00370398280210793,-0.0021084528416395187,0.04315570741891861
1772788828930096400,12.629096435546876,-0.0008223103359341621,0.04980897903442383,0.0627874806523323
1772788828950129200,12.649129150390625,-0.003999078646302223,0.016926635056734085,0.06622631847858429
1772788828970161200,12.6691611328125,-0.01626030169427395,-0.0629270002245903,0.02650338038802147
1772788828990193400,12.689193359375,-0.024800244718790054,-0.2815329432487488,-0.10331212729215622
1772788829010226200,12.70922607421875,-0.03901851922273636,-0.11228837072849274,-0.13275639712810516
1772788829030258400,12.729258544921874,-0.0263363029807806,-0.00046627316623926163,0.013478865846991539
1772788829050290400,12.74929052734375,0.03438989073038101,0.10479103773832321,0.05439995974302292
1772788829070323200,12.7693232421875,0.025311125442385674,0.013751973398029804,-0.005214856471866369
1772788829090355500,12.78935546875,0.0006650707218796015,-0.10353436321020126,-0.048411235213279724
1772788829110387200,12.80938720703125,0.008284886367619038,-0.0759107694029808,-0.03963664174079895
1772788829130420200,12.829420166015625,0.01792886294424534,0.015524087473750114,-0.0066828010603785515
1772788829150452500,12.849452392578126,0.01085195504128933,0.032483842223882675,0.021012810990214348
1772788829170484200,12.869484130859375,-0.000014125136658549309,0.0024018697440624237,0.01513611525297165
1772788829190516200,12.88951611328125,-0.006112375296652317,-0.021315334364771843,0.012559913098812103
1772788829210549200,12.90954931640625,-0.004516156855970621,-0.0040977513417601585,0.005471216514706612
1772788829230581200,12.929581298828126,-0.0009245427791029215,0.010057895444333553,-0.0025226096622645855
1772788829250613200,12.94961328125,-0.0023154376540333033,0.01307779923081398,0.005849221721291542
1772788829270646300,12.969646240234376,-0.007697186432778835,0.014759795740246773,0.00586366280913353
1772788829290678300,12.98967822265625,-0.0023773987777531147,0.01701507158577442,0.011619159020483494
1772788829310710500,13.00971044921875,-0.004752501845359802,0.010008634068071842,0.009845851920545101
1772788829330743300,13.029743408203124,-0.0019458923488855362,-0.003104163333773613,0.00919879600405693
1772788829350775300,13.049775390625,-0.003343567019328475,0.01099731121212244,0.024567946791648865
1772788829370807300,13.069807373046874,-0.0015575762372463942,0.047765325754880905,0.020348884165287018
1772788829390840300,13.08984033203125,-0.002990138716995716,0.048568300902843475,0.01271631196141243
1772788829410872300,13.109872314453124,-0.005814468953758478,0.003470374271273613,0.02685614489018917
1772788829430904300,13.129904296875,-0.013133341446518898,-0.01287645660340786,0.02086586132645607
1772788829450936300,13.149936279296876,-0.02174799144268036,0.021892063319683075,0.022455895319581032
1772788829470969000,13.169968994140625,-0.020469220355153084,0.04565543308854103,0.022747084498405457
1772788829491001300,13.19000146484375,-0.020418567582964897,0.024073807522654533,0.011967070400714874
1772788829511033300,13.210033447265625,-0.019403446465730667,0.0004596784710884094,0.007509819697588682
1772788829531066400,13.23006640625,-0.016180673614144325,0.00295135285705328,0.03950706124305725
1772788829551098400,13.250098388671875,-0.011842752806842327,0.019615748897194862,0.04527159035205841
1772788829571130400,13.27013037109375,-0.005187779199331999,0.0026452895253896713,0.031157368794083595
1772788829591163400,13.290163330078125,-0.0052762022241950035,0.00022407062351703644,0.03379019349813461
1772788829611195400,13.3101953125,0.017198849469423294,0.006525440141558647,0.03788255900144577
1772788829631227100,13.33022705078125,0.014891976490616798,0.016102876514196396,0.027075206860899925
1772788829651260400,13.350260498046875,0.024460170418024063,0.006089911796152592,0.0020673731341958046
1772788829671292400,13.37029248046875,0.024769539013504982,0.0016426462680101395,0.004141777288168669
1772788829691324200,13.39032421875,0.028052320703864098,-0.0066061560064554214,0.02298613078892231
1772788829711356400,13.4103564453125,0.022855838760733604,0.015405027195811272,0.019184330478310585
1772788829731389200,13.43038916015625,0.01085629127919674,0.014144396409392357,0.011600319296121597
1772788829751421200,13.450421142578126,0.007775929290801287,0.011525948531925678,0.0005134753882884979
1772788829771453400,13.470453369140625,0.008783014491200447,-0.003986543044447899,-0.013228042051196098
1772788829791486200,13.490486328125,0.002057829638943076,-0.006774679757654667,-0.004253547638654709
1772788829811518500,13.5105185546875,0.0013442724011838436,0.0053313253447413445,0.013545515015721321
1772788829831550500,13.530550537109375,0.0029147653840482235,0.011408842168748379,0.0050782253965735435
1772788829851583200,13.550583251953125,-0.0018195627490058541,0.0035067936405539513,-0.002497100504115224
1772788829871615500,13.570615478515625,-0.004196865018457174,-0.005109531804919243,-0.00882994756102562
1772788829891647200,13.590647216796874,0.002329483162611723,-0.0048353541642427444,-0.005530314985662699
1772788829911679200,13.61067919921875,0.0019037069287151098,-0.011408965103328228,0.001711585558950901
1772788829931712300,13.630712158203124,-0.0027468963526189327,-0.014406472444534302,0.0018856748938560486
1772788829951744000,13.650743896484375,0.0004972973838448524,-0.006075579673051834,-0.0013260405976325274
1772788829971776300,13.6707763671875,-0.004863682668656111,0.006080735474824905,0.005244509316980839
1772788829991809000,13.69080908203125,0.0022411136887967587,-0.006455658003687859,0.009774291887879372
1772788830011841000,13.710841064453126,-0.0012520793825387955,-0.012427649460732937,0.007674042135477066
1772788830031873300,13.730873291015625,-0.0071773044764995575,-0.00386017095297575,0.01089298352599144
1772788830051906000,13.750906005859376,-0.0028500831685960293,0.008907795883715153,0.01587006077170372
1772788830071938000,13.77093798828125,-0.0028192384634166956,-0.0016140518710017204,0.010513692162930965
1772788830091970300,13.79097021484375,-0.006906439550220966,-0.012397686950862408,0.007157621905207634
1772788830112003000,13.811003173828125,-0.017688114196062088,0.003810700960457325,0.010204635560512543
1772788830132035300,13.831035400390626,-0.009906388819217682,-0.002144183963537216,0.005040825344622135
1772788830152067000,13.851067138671874,-0.00995539128780365,-0.008925391361117363,0.002939857542514801
1772788830172100000,13.87110009765625,-0.010128566063940525,-0.004570332355797291,0.003568952903151512
1772788830192132400,13.89113232421875,-0.0055585866793990135,0.0015129875391721725,0.0059764753095805645
1772788830212164000,13.9111640625,-0.002958297962322831,-0.007738080341368914,0.010703064501285553
1772788830232196000,13.931196044921874,-0.00015578442253172398,-0.026660896837711334,0.003983051981776953
1772788830252229000,13.95122900390625,-0.0008903802372515202,-0.032328829169273376,-0.0030792916659265757
1772788830272261000,13.97126123046875,0.00016509555280208588,-0.018382804468274117,0.013347500935196877
1772788830292293000,13.991293212890625,0.004651786759495735,0.0021119527518749237,0.029927775263786316
1772788830312326100,14.011326171875,0.006301609333604574,-0.014431476593017578,0.013940577395260334
1772788830332358100,14.031358154296875,0.0014108309987932444,-0.04166232794523239,0.0034444229677319527
1772788830352390100,14.05139013671875,-0.0036060111597180367,-0.023463038727641106,-0.006372799165546894
1772788830372423200,14.071423095703125,-0.0017306284280493855,0.01592014729976654,-0.011820042505860329
1772788830392455200,14.091455078125,-0.0025431534741073847,0.011074665933847427,-0.013582278043031693
1772788830412487000,14.11148681640625,-0.007090336177498102,-0.01999250426888466,-0.03260299190878868
1772788830432520200,14.131520263671876,-0.005810857750475407,-0.019611213356256485,-0.026251178234815598
1772788830452552200,14.15155224609375,-0.0004355865530669689,0.0017738668248057365,-0.008623911067843437
1772788830472584200,14.171584228515625,0.008893301710486412,-0.004731904715299606,0.0010554972104728222
1772788830492616200,14.1916162109375,0.005485466681420803,-0.0026712538674473763,0.0033046072348952293
1772788830512649000,14.21164892578125,0.010908308438956738,0.014349887147545815,0.00032276706770062447
1772788830532681200,14.23168115234375,0.020395684987306595,0.011077802628278732,-0.010465788654983044
1772788830552713200,14.251713134765625,0.02607767842710018,-0.018465423956513405,0.004275226034224033
1772788830572746000,14.27174609375,0.022935781627893448,-0.017762284725904465,-0.0060100192204117775
1772788830592778200,14.2917783203125,0.023139499127864838,-0.007845910266041756,-0.015311388298869133
1772788830612810200,14.311810302734376,0.022571638226509094,-0.002574862912297249,-0.008396143093705177
1772788830632843300,14.33184326171875,0.01656186766922474,0.01424297783523798,-0.007126242853701115
1772788830652875300,14.351875244140626,0.020411085337400436,0.0157301165163517,-0.016785956919193268
1772788830672907000,14.371906982421875,0.01088281162083149,-0.0048080869019031525,-0.025527263060212135
1772788830692940300,14.391940185546876,0.0038276223931461573,-0.039321593940258026,-0.03811071068048477
1772788830712972300,14.41197216796875,0.000409700907766819,-0.004673912189900875,-0.016392085701227188
1772788830733004000,14.432004150390625,0.003795499913394451,0.040100060403347015,0.008587438613176346
1772788830753036300,14.452036376953124,0.0023746765218675137,0.02672441676259041,0.007516882382333279
1772788830773069000,14.472069091796875,0.0012313604820519686,-0.004061505198478699,-0.01998716965317726
1772788830793101000,14.49210107421875,-0.0013409603852778673,-0.006864563561975956,-0.03155197948217392
1772788830813133300,14.51213330078125,0.013086879625916481,0.02618573233485222,-0.01651805453002453
1772788830833166000,14.532166015625,0.02053922414779663,0.023284796625375748,-0.014705251902341843
1772788830853198000,14.552197998046875,0.015581030398607254,-0.01672358624637127,-0.01567554660141468
1772788830873230300,14.572230224609376,0.01642780564725399,-0.03167733550071716,-0.006512860301882029
1772788830893263000,14.59226318359375,0.014769922941923141,0.006090969778597355,0.01163377147167921
1772788830913295000,14.612295166015626,0.01669469103217125,0.011257033795118332,0.03212827816605568
1772788830933327600,14.63232763671875,0.010810015723109245,-0.0018235156312584877,0.011374983005225658
1772788830953360600,14.652360595703126,0.007981306873261929,-0.007321012672036886,0.007609688211232424
1772788830973392600,14.672392578125,0.0194504763931036,0.0012897858396172523,0.0034690056927502155
1772788830993424600,14.692424560546876,0.015498158521950245,0.010119517333805561,-0.003316302318125963
1772788831013457700,14.712457763671875,0.021298334002494812,-0.014058376662433147,-0.016194365918636322
1772788831033489700,14.73248974609375,0.013837970793247223,-0.020109040662646294,-0.016032930463552475
1772788831053521700,14.752521728515624,0.015662359073758125,0.008373577147722244,-0.01933963969349861
1772788831073553700,14.7725537109375,0.024008024483919144,0.01742563396692276,-0.017091237008571625
1772788831093586700,14.792586669921874,0.023320812731981277,-0.01998882181942463,-0.005688009783625603
1772788831113618700,14.81261865234375,0.008309835568070412,-0.017154160887002945,0.013806654140353203
1772788831133650400,14.832650390625,0.01561637595295906,0.010319069027900696,0.017820443958044052
1772788831153683700,14.85268359375,0.011660927906632423,0.01536538265645504,0.013228481635451317
1772788831173715700,14.8727158203125,0.005599776282906532,-0.020735498517751694,-0.002324877306818962
1772788831193747700,14.892747802734375,0.009877871721982956,-0.025620674714446068,-0.003076929831877351
1772788831213780700,14.91278076171875,0.0058956691063940525,-0.007133230566978455,0.0022573708556592464
1772788831233812500,14.9328125,0.007116994354873896,-0.005324412137269974,-0.002889188239350915
1772788831253844700,14.9528447265625,0.006542529445141554,-0.034858912229537964,-0.01771233230829239
1772788831273877500,14.97287744140625,-0.002590733580291271,-0.02920505963265896,-0.023142296820878983
1772788831293909500,14.992909423828126,-0.0058167967945337296,0.004889846779406071,-0.007391897961497307
1772788831313941800,15.012941650390625,0.003212171606719494,-0.00026380084455013275,0.0076354509219527245
1772788831333974500,15.032974609375,-0.00844390969723463,-0.016782233491539955,0.0010251961648464203
1772788831354006500,15.053006591796875,-0.01249108836054802,-0.0148488599807024,-0.011235766112804413
1772788831374038800,15.073038818359375,-0.003379977308213711,0.003184010274708271,-0.012778975069522858
1772788831394071600,15.093071533203124,0.00702802324667573,-0.006152966991066933,0.0009114202111959457
1772788831414103800,15.113103759765625,0.0022549149580299854,-0.05359490588307381,-0.012742954306304455
1772788831434135600,15.133135498046874,-0.00027065654285252094,-0.04771803319454193,-0.015870213508605957
1772788831454167600,15.15316748046875,0.011882172897458076,-0.03137882053852081,-0.0032942676916718483
1772788831474200800,15.173200927734374,0.006553469691425562,-0.013809243217110634,0.006756514776498079
1772788831494232600,15.193232666015625,0.003482290543615818,-0.0013923002406954765,0.005608437117189169
1772788831514264600,15.2132646484375,0.010440591722726822,0.025082044303417206,-0.011816602200269699
1772788831534297600,15.233297607421875,0.008347566239535809,0.030651016160845757,-0.013259455561637878
1772788831554329600,15.25332958984375,-0.002853955375030637,0.00924585945904255,-0.009275900200009346
1772788831574361600,15.273361572265625,-0.0019503659568727016,-0.003322441130876541,-0.015603026375174522
1772788831594394600,15.29339453125,0.00015900121070444584,-0.018060484901070595,-0.005460782907903194
1772788831614426600,15.313426513671875,-0.00015259417705237865,-0.0010685911402106285,0.0025700037367641926
1772788831634458600,15.333458740234375,0.002804537769407034,0.0286982711404562,0.010369891300797462
1772788831654491600,15.35349169921875,0.009993618354201317,0.023808594793081284,0.022871963679790497
1772788831674523600,15.373523681640625,0.005097300745546818,-0.000917450524866581,0.0036216615699231625
1772788831694555600,15.3935556640625,0.0025880439206957817,-0.013473374769091606,0.0010546762496232986
1772788831714588700,15.413588623046875,0.00539110042154789,0.016144726425409317,0.008877339772880077
1772788831734620700,15.43362060546875,0.012210534885525703,0.03290176019072533,0.013462631031870842
1772788831754652700,15.453652587890625,0.006256334949284792,0.023148123174905777,0.01108833122998476
1772788831774684700,15.4736845703125,0.007645050995051861,0.003780970349907875,0.0033437199890613556
1772788831794717400,15.493717529296875,0.010659824125468731,0.00845416821539402,-0.005516431760042906
1772788831814749700,15.513749755859376,0.013314325362443924,0.015525909140706062,0.0015431903302669525
1772788831834781700,15.53378173828125,0.017226791009306908,-0.007311856374144554,0.004871356301009655
1772788831854814500,15.553814453125,0.00908732321113348,-0.01820521429181099,0.019688963890075684
1772788831874846700,15.5738466796875,0.014518192037940025,0.02061491459608078,0.015860240906476974
1772788831894878700,15.593878662109375,0.01021003257483244,0.02687169797718525,0.013855948112905025
1772788831914911700,15.613911865234375,0.0009661095682531595,0.0036294367164373398,0.013993700966238976
1772788831934944000,15.633944091796875,0.012943701818585396,-0.013039901852607727,0.006407386157661676
1772788831954976000,15.65397607421875,0.004372905474156141,-0.023607753217220306,0.013632205314934254
1772788831975009000,15.674009033203125,-0.0021041263826191425,-0.00030473899096250534,0.01355415303260088
1772788831995041000,15.694041015625,0.006800787523388863,0.043333351612091064,0.007545944303274155
1772788832015073000,15.714072998046875,0.017413750290870667,0.02037210762500763,0.008319593034684658
1772788832035106000,15.73410595703125,0.009713316336274147,-0.034710392355918884,-0.0022665655706077814
1772788832055138000,15.754137939453125,0.0047684116289019585,-0.024593738839030266,-0.00642702542245388
1772788832075170000,15.774170166015624,0.01206006109714508,0.03518155217170715,0.023426074534654617
1772788832095202800,15.794202880859375,0.020703835412859917,0.04064026474952698,0.026521777734160423
1772788832115235000,15.814235107421876,0.011123842559754848,-0.011870352551341057,-0.016050126403570175
1772788832135267000,15.83426708984375,-0.0008003171533346176,-0.03585489094257355,-0.01948893815279007
1772788832155300000,15.854300048828126,0.008285801857709885,-0.008793283253908157,0.00749454740434885
1772788832175332000,15.87433203125,-0.00006196647882461548,0.015810543671250343,0.013714428059756756
1772788832195364000,15.894364013671876,-0.012887626886367798,-0.004639758728444576,0.01032729260623455
1772788832215395800,15.914395751953125,-0.020111985504627228,0.006402506493031979,0.007500080857425928
1772788832235429000,15.93442919921875,-0.02091093361377716,0.005000618286430836,0.013425612822175026
1772788832255460900,15.9544609375,-0.02754712663590908,-0.0029622167348861694,0.020342795178294182
1772788832275492900,15.974492919921875,-0.030097438022494316,-0.0036280155181884766,0.029411712661385536
1772788832295526100,15.994526123046874,-0.032636858522892,0.008671600371599197,0.03579194098711014
1772788832315558000,16.014557861328125,-0.023944417014718056,0.02169049344956875,0.023739907890558243
1772788832335590100,16.034590087890624,-0.014166253618896008,0.007952641695737839,-0.012840322218835354
1772788832355623000,16.054622802734375,-0.016086185351014137,-0.01628369651734829,-0.013182178139686584
1772788832375655000,16.074655029296874,-0.0035701270680874586,-0.019209180027246475,-0.008607400581240654
1772788832395687200,16.094687255859377,-0.004328520968556404,-0.002993578091263771,-0.0008760583586990833
1772788832415720000,16.114719970703124,-0.0006904508918523788,-0.00016890931874513626,-0.005535443779081106
1772788832435752000,16.134751953125,-0.005733386613428593,0.00030212104320526123,-0.010210391134023666
1772788832455784200,16.1547841796875,-0.0025860625319182873,-0.0057147592306137085,-0.003027313621714711
1772788832475817000,16.17481689453125,-0.007778604049235582,-0.01654418371617794,0.005028147716075182
1772788832495849200,16.19484912109375,-0.017104072496294975,-0.008676562458276749,0.014749091118574142
1772788832515881000,16.214880859375,-0.01542811281979084,0.014981154352426529,0.024970244616270065
1772788832535914000,16.2349140625,-0.01880614086985588,0.03977503627538681,0.013301684521138668
1772788832555946000,16.254946044921876,-0.018139859661459923,0.02318265289068222,-0.011669956147670746
1772788832575978000,16.27497802734375,-0.01718800887465477,-0.016787713393568993,-0.0049196393229067326
1772788832596011000,16.295010986328126,-0.014313142746686935,-0.013600615784525871,0.0003781737759709358
1772788832616043000,16.31504296875,-0.004378370009362698,0.013116719201207161,-0.011649031192064285
1772788832636075000,16.335074951171876,-0.005289607681334019,0.025354670360684395,-0.021461008116602898
1772788832656108000,16.35510791015625,-0.003165491856634617,0.012160259298980236,-0.025392621755599976
1772788832676140000,16.37514013671875,-0.003237077035009861,-0.015943443402647972,-0.017097745090723038
1772788832696172000,16.395172119140625,-0.0068940878845751286,-0.018688006326556206,-0.019065577536821365
1772788832716204000,16.4152041015625,-0.0077915675938129425,0.020606007426977158,-0.001975296763703227
1772788832736237000,16.435237060546875,-0.002353610936552286,0.034945230931043625,0.012640884146094322
1772788832756269800,16.455269775390626,0.001962356036528945,-0.0008490234613418579,0.0040849000215530396
1772788832776302000,16.475302001953125,-0.0011702782940119505,-0.02650369703769684,-0.006398921832442284
1772788832796335000,16.495335205078124,-0.003915869165211916,-0.00004600640386343002,-0.006938097532838583
1772788832816366800,16.515366943359375,-0.007631388492882252,0.021932372823357582,0.0011503282003104687
1772788832836399000,16.535399169921874,-0.006394042167812586,0.018937472254037857,-0.011496780440211296
1772788832856431900,16.555431884765625,-0.013578110374510288,-0.0024449005722999573,-0.010837196372449398
1772788832876464000,16.575464111328124,-0.010415893979370594,-0.0109076714143157,0.021930880844593048
1772788832896496000,16.59549609375,-0.013966841623187065,0.0163368321955204,0.04510296508669853
1772788832916529000,16.61552880859375,-0.011907152831554413,0.03653557598590851,0.025256557390093803
1772788832936560600,16.635560546875,-0.0037898002192378044,0.03287845477461815,-0.0000904272310435772
1772788832956592600,16.655592529296875,0.005054190754890442,0.004415852949023247,-0.005529818125069141
1772788832976625400,16.67562548828125,0.014479447156190872,-0.01385409478098154,-0.0009947540238499641
1772788832996657700,16.69565771484375,0.021602274850010872,-0.014154368080198765,0.006107930094003677
1772788833016689700,16.715689697265624,0.01688423939049244,-0.0013157567009329796,0.007113262079656124
1772788833036722400,16.735722412109375,0.01688285917043686,0.03495093807578087,0.007052321918308735
1772788833056754700,16.755754638671874,0.025132901966571808,0.020463144406676292,-0.0013591228052973747
1772788833076786400,16.775786376953125,0.023176835849881172,-0.025443974882364273,0.008472435176372528
1772788833096819700,16.79581982421875,0.018977873027324677,-0.026510747149586678,0.0214217659085989
1772788833116851500,16.8158515625,0.017878998070955276,0.006749100983142853,0.033474504947662354
1772788833136883500,16.835883544921874,0.009368223138153553,0.008398032747209072,0.03558886796236038
1772788833156916700,16.855916748046877,-0.0021464647725224495,-0.02209724672138691,0.02662891522049904
1772788833176948500,16.875948486328124,0.001584501238539815,-0.017048003152012825,0.014038151130080223
1772788833196980500,16.89598046875,-0.004190760664641857,-0.0038184765726327896,0.013650869950652122
1772788833217013500,16.916013427734374,0.0014056325890123844,-0.0010848240926861763,0.004642161540687084
1772788833237045500,16.93604541015625,0.0011132918298244476,-0.010035826824605465,0.00956173799932003
1772788833257077500,16.956077392578123,0.00737592251971364,-0.005058886483311653,0.001034922432154417
1772788833277110500,16.976110595703126,0.012938185594975948,0.0027037886902689934,-0.008973782882094383
1772788833297142500,16.996142578125,0.013101314194500446,0.001941748894751072,0.0009974860586225986
1772788833317174500,17.016174560546876,0.021743955090641975,0.0000682435929775238,-0.001309240236878395
1772788833337207600,17.03620751953125,0.028344282880425453,-0.00828445702791214,-0.000886550173163414
1772788833357239600,17.056239501953126,0.018774747848510742,-0.007246357388794422,0.0024333465844392776
1772788833377271300,17.076271240234377,0.02312857285141945,0.011959878727793694,-0.005147676914930344
1772788833397304600,17.0963046875,0.023296182975172997,0.00459403358399868,-0.008697763085365295
1772788833417336600,17.116336669921875,0.020895157009363174,-0.009686877951025963,-0.018462881445884705
1772788833437368600,17.13636865234375,0.008803654462099075,-0.0038354182615876198,-0.013954461552202702
1772788833457401600,17.156401611328125,0.004696042276918888,0.012055892497301102,-0.003265377599745989
1772788833477433300,17.176433349609376,0.006948358844965696,0.015040254220366478,-0.00673930998891592
1772788833497465600,17.196465576171875,0.004448124207556248,0.005979403853416443,-0.012906564399600029
1772788833517497600,17.21649755859375,0.003793108742684126,-0.02101694978773594,-0.026517044752836227
1772788833537530400,17.2365302734375,-0.001125573879107833,-0.013045095838606358,-0.011746816337108612
1772788833557562600,17.256562744140624,0.0018340661190450191,0.004148812964558601,0.013257810845971107
1772788833577594600,17.2765947265625,-0.001134032616391778,0.0037172408774495125,0.014630427584052086
1772788833597627600,17.296627685546873,0.0009844431187957525,-0.027546681463718414,-0.0013048050459474325
1772788833617659600,17.31665966796875,0.006175285205245018,-0.03299562633037567,0.0030922587029635906
1772788833637691400,17.33669140625,0.0032428305130451918,-0.03452610969543457,0.011132387444376945
1772788833657724700,17.356724609375,-0.0021548967342823744,-0.024092700332403183,0.02690155804157257
1772788833677756700,17.376756591796877,0.0004386599175632,0.004259919747710228,0.02085733786225319
1772788833697788400,17.396788330078124,0.00006942311301827431,-0.0174939576536417,0.006110211834311485
1772788833717821700,17.41682177734375,-0.006989722140133381,-0.08571036905050278,-0.016866035759449005
1772788833737853400,17.436853515625,-0.007630179636180401,-0.09047310054302216,-0.020330868661403656
1772788833757885400,17.456885498046876,0.006308954209089279,-0.014691765420138836,0.0210073534399271
1772788833777918500,17.47691845703125,0.005864829756319523,0.033735208213329315,0.037881605327129364
1772788833797950500,17.496950439453126,0.007649583742022514,-0.015461824834346771,0.018637698143720627
1772788833817982500,17.516982421875,-0.007969530299305916,-0.05260815471410751,0.008519723080098629
1772788833838015500,17.537015380859376,-0.0019999374635517597,-0.025958992540836334,0.02303997240960598
1772788833858047500,17.557047607421875,0.0027876482345163822,0.006859185174107552,0.024720948189496994
1772788833878079500,17.57707958984375,-0.0010683059226721525,-0.014480242505669594,0.0027514686807990074
1772788833898112500,17.597112548828125,-0.005964905023574829,-0.034645795822143555,-0.015416803769767284
1772788833918144500,17.61714453125,-0.0013582438696175814,-0.02752012386918068,0.0010224380530416965
1772788833938176500,17.637176513671875,-0.008848474361002445,-0.0035671712830662727,0.01617829129099846
1772788833958209300,17.657209228515626,-0.0025282662827521563,0.00024393759667873383,-0.00014366675168275833
1772788833978241300,17.6772412109375,-0.007722570560872555,-0.013698657043278217,0.00047906115651130676
1772788833998273300,17.697273193359376,-0.0003537265583872795,0.005581452511250973,0.0036022779531776905
1772788834018306300,17.717306396484375,0.0007671501953154802,0.0015326859429478645,0.030368156731128693
1772788834038338300,17.73733837890625,0.007355974987149239,-0.027017798274755478,0.02608085237443447
1772788834058370300,17.757370361328125,0.004468507133424282,-0.04002361744642258,0.008771426975727081
1772788834078403300,17.7774033203125,0.004725731909275055,-0.03336646407842636,0.023067275062203407
1772788834098435300,17.797435302734375,0.01754903793334961,0.00822010450065136,0.03999736160039902
1772788834118467300,17.81746728515625,0.023085547611117363,0.0028031030669808388,0.03667822852730751
1772788834138500000,17.8375,0.01730899140238762,-0.014953582547605038,0.011842514388263226
1772788834158532400,17.857532470703124,0.021373720839619637,-0.026292361319065094,-0.005781416315585375
1772788834178564400,17.877564453125,0.025174930691719055,0.0012162486091256142,-0.00970409158617258
1772788834198597400,17.897597412109373,0.03274354338645935,0.01008638832718134,-0.003348654368892312
1772788834218629400,17.91762939453125,0.02560795471072197,-0.012967086397111416,-0.0019635900389403105
1772788834238661400,17.937661376953123,0.022974872961640358,-0.03173748403787613,-0.010759490542113781
1772788834258694400,17.9576943359375,0.023731471970677376,-0.01825723424553871,-0.009499525651335716
1772788834278726400,17.977726318359377,0.02917872741818428,-0.005481600761413574,-0.018779611214995384
1772788834298758100,17.997758056640624,0.01922321878373623,-0.0168828796595335,-0.011437704786658287
1772788834318790100,18.0177900390625,0.014611572958528996,-0.02812724933028221,-0.011751586571335793
1772788834338823400,18.037823486328126,0.012367825955152512,0.012055532075464725,-0.022319482639431953
1772788834358855200,18.057855224609376,0.015848945826292038,0.02594638243317604,-0.015603108331561089
1772788834378887400,18.077887451171875,0.004860210698097944,0.0013401033356785774,-0.0020169916097074747
1772788834398920200,18.097920166015626,0.0038129808381199837,-0.015341287478804588,-0.002820385852828622
1772788834418952200,18.1179521484375,0.005193138029426336,-0.0020364606752991676,0.006605999078601599
1772788834438984400,18.137984375,0.00004258425906300545,0.001885310746729374,0.02022647112607956
1772788834459017200,18.158017333984375,-0.01451811008155346,0.00046586059033870697,0.018043095245957375
1772788834479049200,18.17804931640625,-0.010523139499127865,-0.004491829313337803,0.011882403865456581
1772788834499081500,18.19808154296875,-0.007565970998257399,-0.004245894029736519,0.015494473278522491
1772788834519114200,18.2181142578125,-0.011687122285366058,-0.0037363776937127113,0.0136317890137434
1772788834539146500,18.238146484375,-0.006739112548530102,-0.015798522159457207,-0.005139895714819431
1772788834559178200,18.25817822265625,-0.004109672270715237,-0.03766380995512009,-0.013664258643984795
1772788834579211300,18.278211181640625,-0.0037676957435905933,-0.0158065278083086,0.0013841651380062103
1772788834599243500,18.298243408203124,0.0014436200726777315,0.01588890701532364,0.0073379045352339745
1772788834619275300,18.318275146484375,-0.00764573784545064,0.018829315900802612,0.008469435386359692
1772788834639308300,18.338308349609374,-0.006854006554931402,-0.014469968155026436,-0.003868955187499523
1772788834659340300,18.35834033203125,-0.013519520871341228,-0.030160950496792793,0.0018831263296306133
1772788834679372300,18.378372314453124,-0.014390443451702595,-0.00807562842965126,0.006493914406746626
1772788834699405300,18.3984052734375,-0.014532922767102718,0.02063031867146492,0.00660683261230588
1772788834719437300,18.418437255859374,-0.014185156673192978,0.013471651822328568,0.00032712146639823914
1772788834739469300,18.43846923828125,-0.01045313011854887,-0.011016098782420158,0.011474198661744595
1772788834759502300,18.45850244140625,-0.00846934225410223,0.0005073985084891319,0.012100041843950748
1772788834779534300,18.478534423828126,-0.011353667825460434,0.011248082853853703,-0.0005863308906555176
1772788834799566300,18.49856640625,-0.0031354082748293877,0.008106098510324955,0.00803613942116499
1772788834819599400,18.518599365234376,-0.007154341787099838,-0.009012078866362572,0.01457737386226654
1772788834839631400,18.53863134765625,-0.013231169432401657,-0.008595744147896767,0.016169710084795952
1772788834859663400,18.558663330078126,-0.008255735039710999,0.007553102448582649,0.011130372993648052
1772788834879696400,18.5786962890625,0.0009061787277460098,-0.003955274820327759,0.011994429863989353
1772788834899728400,18.598728271484376,0.001113681122660637,-0.02534915879368782,0.010225269943475723
1772788834919760100,18.618760009765627,0.007147387135773897,-0.025602461770176888,0.01653318479657173
1772788834939793400,18.63879345703125,0.01141643337905407,-0.009593134745955467,0.018118567764759064
1772788834959825400,18.658825439453125,0.017888590693473816,-0.01001056469976902,0.00009548477828502655
1772788834979857400,18.678857421875,0.03496532142162323,-0.020411133766174316,-0.0034928820095956326
1772788834999890400,18.698890380859375,0.03420720994472504,-0.025590255856513977,-0.013147732242941856
1772788835019922400,18.71892236328125,0.02705373615026474,-0.021133100613951683,0.004158797673881054
1772788835039954400,18.738954345703124,0.020069187507033348,0.00015578698366880417,0.01841803267598152
1772788835059987500,18.758987548828124,0.01854107156395912,-0.0034776898100972176,0.01221204549074173
1772788835080019500,18.77901953125,0.009214021265506744,-0.04152359440922737,0.006078403443098068
1772788835100051500,18.799051513671873,0.003139499807730317,-0.03102991171181202,0.010974463075399399
1772788835120084500,18.81908447265625,0.008058208972215652,0.015268049202859402,0.022865906357765198
1772788835140116500,18.839116455078123,0.01041330210864544,0.013569463044404984,0.016243595629930496
1772788835160148500,18.8591484375,0.00460475031286478,-0.02283061482012272,-0.011687694117426872
1772788835180181500,18.879181396484373,0.002248193370178342,-0.03462187945842743,-0.002921714913100004
1772788835200213500,18.899213623046876,0.00643150182440877,-0.010136072523891926,0.012308115139603615
1772788835220245200,18.919245361328127,0.006370180286467075,0.015735730528831482,-0.005574952345341444
1772788835240278500,18.939278564453126,-0.003181507345288992,0.0029359199106693268,-0.010127916932106018
1772788835260310500,18.959310546875,-0.002425196347758174,-0.00709958840161562,-0.017790595069527626
1772788835280342300,18.97934228515625,-0.008425133302807808,0.0021052956581115723,-0.011729124933481216
1772788835300375600,18.99937548828125,-0.01355438120663166,-0.0003187134861946106,0.003102285787463188
1772788835320407300,19.0194072265625,-0.01578880101442337,-0.008315039798617363,-0.018010154366493225
1772788835340439300,19.039439208984376,-0.013256080448627472,-0.007003330625593662,-0.011920107528567314
1772788835360472300,19.059472412109375,-0.007164504379034042,-0.003919671289622784,0.0007646442390978336
1772788835380504300,19.07950439453125,-0.004855762235820293,-0.002588927745819092,-0.006368412636220455
1772788835400536600,19.09953662109375,-0.006119927857071161,-0.01637136936187744,-0.01277730893343687
1772788835420569300,19.1195693359375,-0.005550416186451912,-0.012753212824463844,-0.008176051080226898
1772788835440601300,19.139601318359375,-0.008678682148456573,-0.0007348721846938133,-0.0023129975888878107
1772788835460633600,19.159633544921874,-0.006570507772266865,0.0019508320838212967,0.011681926436722279
1772788835480666400,19.179666259765625,-0.011421226896345615,0.010651981458067894,-0.0004947618581354618
1772788835500698400,19.199698486328124,-0.012480562552809715,0.014782799407839775,-0.00611603818833828
1772788835520730400,19.21973046875,-0.0014644984621554613,-0.012581247836351395,-0.008795327506959438
1772788835540763400,19.239763427734374,-0.011566251516342163,-0.025342021137475967,-0.011871441267430782
1772788835560795600,19.259795654296877,-0.021123947575688362,0.001058272086083889,-0.0009171883575618267
1772788835580827400,19.279827392578124,-0.01392156258225441,0.031681038439273834,0.0011434736661612988
1772788835600860400,19.2998603515625,-0.01732221618294716,-0.010336054489016533,-0.011805579997599125
1772788835620892400,19.319892333984374,-0.03302943706512451,-0.010927209630608559,-0.020686538890004158
1772788835640924400,19.33992431640625,-0.022994792088866234,0.030898377299308777,-0.014618653804063797
1772788835660957400,19.35995751953125,-0.006816099397838116,0.01127273216843605,0.0005835150368511677
1772788835680989400,19.379989501953126,-0.02649177983403206,-0.0298384428024292,0.010021213442087173
1772788835701021400,19.400021484375,-0.03227226063609123,-0.0031067486852407455,0.01239762082695961
1772788835721054500,19.420054443359376,-0.014942851848900318,0.04383523017168045,0.008109711110591888
1772788835741086500,19.44008642578125,-0.011083420366048813,0.010740616358816624,-0.00785086676478386
1772788835761118500,19.460118408203126,-0.018878135830163956,-0.028012318536639214,-0.014598321169614792
1772788835781151500,19.4801513671875,-0.011118409223854542,-0.010708283632993698,-0.005474678706377745
1772788835801183500,19.50018359375,-0.0005768453702330589,0.011225061491131783,0.0013678157702088356
1772788835821215500,19.520215576171875,-0.004591528791934252,0.010127895511686802,0.003409602679312229
1772788835841248500,19.54024853515625,-0.007825097069144249,0.005891428329050541,0.00003322446718811989
1772788835861280500,19.560280517578125,-0.0029611950740218163,0.00044773519039154053,-0.0025994835887104273
1772788835881312300,19.580312255859376,-0.011302455328404903,-0.011922728270292282,-0.011006586253643036
1772788835901345500,19.600345458984375,-0.011385045945644379,0.003638329915702343,0.005643288604915142
1772788835921377500,19.62037744140625,-0.008789208717644215,0.021070417016744614,0.027353309094905853
1772788835941409800,19.640409912109376,-0.01420740969479084,0.009899257682263851,0.006266133394092321
1772788835961442800,19.66044287109375,-0.010371903888881207,-0.020678846165537834,-0.022203069180250168
1772788835981474800,19.680474853515626,-0.019084207713603973,-0.027102608233690262,-0.007924266159534454
1772788836001506800,19.7005068359375,-0.012067969888448715,0.01850590482354164,0.011994997039437294
1772788836021539800,19.720539794921876,-0.007570082321763039,0.026775702834129333,0.018609143793582916
1772788836041571800,19.74057177734375,-0.005446478258818388,-0.01259780302643776,0.001009110826998949
1772788836061603800,19.760603759765626,-0.011994173750281334,-0.03369878977537155,-0.016680624336004257
1772788836081636900,19.780636962890625,-0.012134794145822525,-0.0028978753834962845,-0.00196343963034451
1772788836101668900,19.8006689453125,-0.002165453042834997,0.016525473445653915,0.02007836289703846
1772788836121700900,19.820700927734375,-0.01252569817006588,0.0006467569619417191,0.012843156233429909
1772788836141734000,19.84073388671875,-0.0037170802243053913,-0.01462124940007925,-0.0011564786545932293
1772788836161766000,19.860765869140625,-0.0025030779652297497,0.0018955329433083534,0.000030850525945425034
1772788836181797600,19.880797607421876,0.0008987693581730127,0.013299042358994484,-0.004274334292858839
1772788836201831000,19.900830810546875,-0.009098716080188751,-0.008106870576739311,-0.01715126261115074
1772788836221863000,19.92086279296875,-0.007684305310249329,-0.008785303682088852,-0.018801113590598106
1772788836241894700,19.940894775390625,-0.004784092307090759,0.009433990344405174,-0.01111946813762188
1772788836261928000,19.960927978515624,-0.0009878883138298988,0.021037772297859192,0.0029165479354560375
1772788836281959700,19.980959716796875,0.00320981303229928,-0.004187769256532192,0.007542956620454788
1772788836301991700,20.00099169921875,0.0038573280908167362,-0.02533240243792534,0.0017049256712198257
1772788836322024000,20.02102392578125,0.010845121927559376,-0.01572892628610134,-0.0033105246257036924
1772788836342055700,20.0410556640625,0.018361825495958328,0.012531733140349388,0.021830305457115173
1772788836362087700,20.061087646484374,0.023783141747117043,0.0004438888281583786,0.020348893478512764
1772788836382121000,20.081120849609373,0.014162201434373856,-0.03436296433210373,-0.004229928832501173
1772788836402152700,20.101152587890624,0.015690546482801437,-0.018155058845877647,-0.01578376442193985
1772788836422184700,20.121184814453127,0.020725209265947342,0.011375046335160732,-0.008374826982617378
1772788836442217700,20.1412177734375,0.011950131505727768,-0.010696482844650745,0.0009718039073050022
1772788836462249700,20.161249755859377,-0.0010546380653977394,-0.026318099349737167,0.0032719881273806095
1772788836482282000,20.181281982421876,0.006626019719988108,0.01480916328728199,0.012436607852578163
1772788836502314800,20.201314697265627,0.005980996880680323,0.04131706431508064,0.017794111743569374
1772788836522346800,20.2213466796875,-0.0027722809463739395,0.012641211040318012,0.010590527206659317
1772788836542379000,20.24137890625,0.004681183025240898,-0.0058412449434399605,-0.007410391699522734
1772788836562411800,20.261411865234376,0.010542139410972595,0.007229297421872616,0.01346175093203783
1772788836582443800,20.28144384765625,0.02305658906698227,0.025647155940532684,0.013017767108976841
1772788836602475800,20.301475830078125,0.023457329720258713,0.009645170532166958,-0.003925945609807968
1772788836622508800,20.3215087890625,0.018096543848514557,-0.0012480542063713074,-0.013999538496136665
1772788836642541000,20.341541015625,0.02047072909772396,0.018498973920941353,-0.0016762823797762394
1772788836662572800,20.36157275390625,0.02706841193139553,0.041591718792915344,-0.0009374627843499184
1772788836682605800,20.381605712890625,0.022829512134194374,0.03558053448796272,0.006637030281126499
1772788836702637800,20.401637939453124,0.01847912184894085,0.033855099231004715,0.0021265381947159767
1772788836722669800,20.421669921875,0.0214534942060709,0.010370452888309956,-0.0001479857601225376
1772788836742706000,20.441705810546875,0.0035956783685833216,-0.010725748725235462,0.021562403067946434
1772788836762737700,20.461737548828125,0.003383429953828454,0.028520330786705017,0.036672092974185944
1772788836782771000,20.48177099609375,0.015062374994158745,0.05138514190912247,0.042950063943862915
1772788836802802700,20.501802734375,0.01106254756450653,0.002362823113799095,0.02514686807990074
1772788836822834700,20.521834716796874,0.011408429592847824,-0.020124511793255806,0.0011393046006560326
1772788836842868000,20.541867919921874,0.02357461117208004,0.010179201140999794,-0.005403850227594376
1772788836862899700,20.561899658203124,0.031102104112505913,0.033787600696086884,0.005155525635927916
1772788836882931700,20.581931640625,0.028768878430128098,0.009076318703591824,0.00757791381329298
1772788836902964700,20.60196484375,0.029657762497663498,-0.00950058363378048,0.0009925523772835732
1772788836922996700,20.621996826171873,0.03272058069705963,-0.004928490146994591,0.00700873788446188
1772788836943028200,20.6420283203125,0.030665569007396698,0.010332516394555569,0.024306872859597206
1772788836963061000,20.66206103515625,0.027652619406580925,0.014086538925766945,0.01827385276556015
1772788836983093200,20.68209326171875,0.021688422188162804,0.014964086934924126,0.005208961665630341
1772788837003125200,20.702125244140625,0.022902386263012886,0.01726764813065529,0.0013366327621042728
1772788837023158000,20.722157958984376,0.031254079192876816,0.014756063930690289,0.00006602797657251358
1772788837043190300,20.742190185546875,0.027708396315574646,0.005741492845118046,-0.013732388615608215
1772788837063222300,20.76222216796875,0.030646394938230515,-0.0021750200539827347,-0.02447238378226757
1772788837083255000,20.782255126953125,0.03753628581762314,0.012134330347180367,-0.005649995990097523
1772788837103287300,20.802287353515624,0.04248369485139847,0.01807408034801483,0.008154163137078285
1772788837123319000,20.822319091796874,0.04135770723223686,-0.00040079932659864426,-0.005456986371427774
1772788837143352000,20.84235205078125,0.028797002509236336,-0.010551385581493378,-0.025939693674445152
1772788837163384300,20.86238427734375,0.024368122220039368,0.015249495394527912,-0.014560515992343426
1772788837183416000,20.882416015625,0.028860360383987427,0.01754625141620636,0.00655221426859498
1772788837203449300,20.902449462890626,0.01770753040909767,-0.002718237228691578,0.006272096186876297
1772788837223481000,20.922481201171873,0.007718805223703384,-0.0002957005053758621,-0.0014465202111750841
1772788837243513000,20.94251318359375,0.010162526741623878,0.011458834633231163,-0.004391467198729515
1772788837263546000,20.962546142578127,0.010936884209513664,-0.0009166616946458817,-0.002270455937832594
1772788837283578000,20.982578125,0.006965382024645805,-0.01084305439144373,-0.006421050522476435
1772788837303610000,21.002610107421877,0.009636116214096546,-0.003503144718706608,-0.012493163347244263
1772788837323643100,21.02264306640625,0.005836056545376778,-0.0077574048191308975,-0.025617241859436035
1772788837343675100,21.042675048828126,-0.003928332589566708,-0.01203199289739132,-0.020381804555654526
1772788837363707100,21.06270703125,-0.002919047838076949,0.003543935716152191,-0.01867092028260231
1772788837383740200,21.082740234375,0.0034184132236987352,0.014040383510291576,-0.009128779172897339
1772788837403772200,21.102772216796875,0.0063624149188399315,0.009976289235055447,0.008343283087015152
1772788837423805200,21.12280517578125,0.007088925689458847,-0.0015655839815735817,0.0005508735775947571
1772788837443837200,21.142837158203125,0.011272991076111794,-0.008284391835331917,-0.0011636349372565746
1772788837463869200,21.162869140625,0.02738429419696331,0.0004302244633436203,-0.007692629471421242
1772788837483902200,21.182902099609375,0.027367422357201576,-0.00408189557492733,-0.013605552725493908
1772788837503934200,21.202934326171874,0.013965762220323086,-0.0007239812985062599,-0.0022843393962830305
1772788837523966000,21.222966064453125,0.013870223425328732,0.01250234991312027,-0.0029951948672533035
1772788837543999200,21.242999267578124,0.010389136150479317,-0.008757938630878925,-0.007549408823251724
1772788837564031200,21.26303125,-0.00208435975946486,-0.013234144076704979,-0.018397748470306396
1772788837584063000,21.28306298828125,-0.01257588341832161,0.002904612571001053,-0.012628277763724327
1772788837604096300,21.30309619140625,-0.015673555433750153,0.008193887770175934,-0.002470019506290555
1772788837624128000,21.3231279296875,-0.020230190828442574,0.008441087789833546,0.0027326736599206924
1772788837644160000,21.343159912109375,-0.022234588861465454,0.0021841907873749733,-0.0030939404387027025
1772788837664193300,21.363193359375,-0.022873643785715103,0.0019256630912423134,-0.007802790962159634
1772788837684225000,21.38322509765625,-0.010668670758605003,-0.003053033724427223,-0.019871138036251068
1772788837704257300,21.40325732421875,-0.014455568045377731,-0.004446163773536682,-0.009644969366490841
1772788837724290000,21.4232900390625,-0.0072177196852862835,-0.005759420804679394,0.004505007527768612
1772788837744322000,21.443322021484374,0.002107605105265975,-0.0145840710029006,-0.003872764529660344
1772788837764354300,21.463354248046876,-0.007925540208816528,-0.014524986036121845,-0.01942860148847103
1772788837784387000,21.483386962890624,-0.014624940231442451,0.013100747019052505,-0.0017021151725202799
1772788837804419000,21.503419189453126,-0.009552955627441406,0.01788337528705597,0.015260647982358932
1772788837824451300,21.523451416015625,-0.009521018713712692,-0.019306380301713943,0.013779940083622932
1772788837844484000,21.543484130859376,-0.014234398491680622,-0.024898722767829895,-0.0024686993565410376
1772788837864516400,21.563516357421875,-0.021331461146473885,0.018638495355844498,0.0074571906588971615
1772788837884548000,21.583548095703126,-0.0073990547098219395,0.03603614866733551,0.007827532477676868
1772788837904581000,21.6035810546875,-0.010917820036411285,0.002632658928632736,0.0021179229952394962
1772788837924613000,21.623613037109376,-0.012719911523163319,-0.015434217639267445,-0.014555120840668678
1772788837944644900,21.643644775390626,-0.009814131073653698,0.0034421412274241447,-0.015590313822031021
1772788837964678100,21.66367822265625,-0.00951689574867487,0.007731081917881966,-0.006337728351354599
1772788837984710000,21.6837099609375,-0.008765725418925285,0.006176120601594448,-0.012958208099007607
1772788838004742000,21.703741943359375,-0.004942879546433687,-0.004222567193210125,0.004677905235439539
1772788838024775000,21.72377490234375,-0.006235178560018539,-0.0061788009479641914,0.019264662638306618
1772788838044807000,21.743806884765625,0.00046675698831677437,0.012629827484488487,0.013492458499968052
1772788838064839200,21.763839111328124,0.00004121032543480396,0.01617574319243431,0.005466455593705177
1772788838084872000,21.783871826171875,-0.0037273382768034935,0.002720707096159458,0.01655818521976471
1772788838104904000,21.803904052734374,-0.006219982635229826,-0.002752740867435932,0.004150169901549816
1772788838124937000,21.82393701171875,-0.005405385512858629,0.011443105526268482,-0.0032611056230962276
1772788838144969000,21.843968994140624,-0.006155533716082573,0.014231568202376366,0.004466287791728973
1772788838165001000,21.8640009765625,-0.004752207547426224,0.005593812093138695,-0.0006479192525148392
1772788838185034000,21.884033935546874,-0.009619075804948807,-0.004438852891325951,0.00024396181106567383
1772788838205066000,21.90406591796875,-0.012962227687239647,0.005811475217342377,0.004536224529147148
1772788838225098200,21.92409814453125,-0.009513460099697113,0.008280572481453419,-0.0007130973972380161
1772788838245131000,21.944131103515623,-0.022282758727669716,0.007180873304605484,-0.0011368412524461746
1772788838265163000,21.9641630859375,-0.02159019745886326,0.002728348597884178,0.00009315693750977516
1772788838285195000,21.984195068359377,-0.017164770513772964,0.0008117752149701118,-0.007429810240864754
1772788838305228000,22.00422802734375,-0.020337313413619995,-0.007702862378209829,-0.004590717609971762
1772788838325260000,22.024260009765626,-0.018189549446105957,0.005168847739696503,-0.004334174562245607
1772788838345292000,22.0442919921875,-0.02129845879971981,0.00879593938589096,0.011263391934335232
1772788838365325000,22.064324951171876,-0.0206433217972517,0.01168333925306797,0.010221031494438648
1772788838385356800,22.084356689453124,-0.00827482994645834,-0.008943561464548111,0.004909657407552004
1772788838405389000,22.10438916015625,-0.01267135702073574,-0.0311078242957592,-0.0033662421628832817
1772788838425422000,22.124422119140625,-0.01840573363006115,-0.005181128159165382,-0.0022510846611112356
1772788838445454000,22.1444541015625,-0.009920806623995304,0.023880276829004288,0.008986828848719597
1772788838465486000,22.164486083984375,-0.012492201291024685,-0.0032441159710288048,0.0046523502096533775
1772788838485518800,22.184518798828126,-0.025299491360783577,-0.038325436413288116,-0.014434362761676311
1772788838505551000,22.204551025390625,-0.031947266310453415,-0.025044642388820648,-0.0033708163537085056
1772788838525583000,22.2245830078125,-0.03521163389086723,0.020005404949188232,0.023910224437713623
1772788838545616000,22.244615966796875,-0.034087974578142166,0.03698785975575447,0.016863174736499786
1772788838565648100,22.264648193359374,-0.036763995885849,-0.002992727793753147,-0.01607605069875717
1772788838585681000,22.284680908203125,-0.04189144819974899,-0.03983490541577339,-0.015123381279408932
1772788838605713200,22.304713134765624,-0.035227224230766296,-0.014520236290991306,0.00024870922788977623
1772788838625745200,22.3247451171875,-0.029610861092805862,0.015571664087474346,0.018397340551018715
1772788838645778000,22.34477783203125,-0.029033733531832695,0.0026457905769348145,0.018065499141812325
1772788838665810200,22.36481005859375,-0.020396271720528603,-0.021706094965338707,-0.00734590832144022
1772788838685842000,22.384842041015624,-0.011622417718172073,-0.019864246249198914,-0.012824621051549911
1772788838705875000,22.404875,-0.006352192256599665,-0.018599318340420723,0.013440445065498352
1772788838725907200,22.4249072265625,-0.008426602929830551,-0.00023111049085855484,0.021500583738088608
1772788838745939000,22.44493896484375,-0.005192433949559927,0.0059444112703204155,0.002791043370962143
1772788838765972200,22.46497216796875,-0.004531065002083778,0.02340911328792572,-0.01952177658677101
1772788838786004000,22.48500390625,0.005870241671800613,0.012427684850990772,-0.020846813917160034
1772788838806036000,22.505035888671873,0.00850183330476284,-0.015393716283142567,-0.020458389073610306
1772788838826069000,22.525069091796876,-0.00025291997008025646,-0.019582225009799004,-0.009317979216575623
1772788838846101000,22.54510107421875,0.003571784356608987,0.01742933690547943,0.0028048804961144924
1772788838866133000,22.565133056640626,0.0019531683064997196,0.04546533524990082,0.0051617082208395
1772788838886166000,22.585166015625,-0.006253266707062721,0.034730859100818634,-0.017127178609371185
1772788838906198000,22.605197998046876,-0.006496535614132881,0.01847507804632187,-0.037294901907444
1772788838926230500,22.62523046875,-0.013273508287966251,-0.0027827229350805283,-0.016942990943789482
1772788838946263300,22.64526318359375,-0.018908603116869926,0.02018534578382969,0.005659337155520916
1772788838966295600,22.665295654296877,-0.024793149903416634,0.06029929593205452,0.015690168365836143
1772788838986327300,22.685327392578124,-0.023868288844823837,0.05204871669411659,0.022604603320360184
1772788839006360300,22.7053603515625,-0.00489880982786417,-0.013316480442881584,0.009779571555554867
1772788839026392600,22.725392578125,-0.004712052643299103,-0.05720749869942665,0.012247998267412186
1772788839046425300,22.74542529296875,-0.0014575475361198187,-0.023860614746809006,0.01610146462917328
1772788839066457600,22.76545751953125,0.012128494679927826,0.022705938667058945,0.007596474606543779
1772788839086489300,22.7854892578125,0.013074390590190887,0.004690195433795452,0.0025165067054331303
1772788839106522400,22.8055224609375,0.013649717904627323,-0.024737823754549026,-0.006762259639799595
1772788839126554400,22.825554443359376,0.018350591883063316,-0.045640990138053894,-0.008381878025829792
1772788839146586400,22.84558642578125,0.0035883490927517414,-0.0112067312002182,-0.002905272413045168
1772788839166619400,22.865619384765626,0.0017631624359637499,0.03677719458937645,0.009462041780352592
1772788839186651400,22.8856513671875,0.010506757535040379,0.005617484450340271,0.003502245992422104
1772788839206683400,22.905683349609376,-0.007383730262517929,-0.026594053953886032,-0.017756262794137
1772788839226716200,22.925716064453123,0.0007499305065721273,-0.0015368377789855003,-0.017838403582572937
1772788839246748400,22.94574853515625,0.016117287799715996,0.024035871028900146,0.008802156895399094
1772788839266780400,22.965780517578125,0.014298091642558575,-0.01480924803763628,0.004245975520461798
1772788839286813400,22.9858134765625,0.004042007960379124,-0.016565965488553047,-0.014070969074964523
1772788839306845400,23.005845458984375,0.01440231129527092,0.005174364894628525,-0.0086826765909791
1772788839326877400,23.02587744140625,0.017804494127631187,0.003464474342763424,-0.007734567858278751
1772788839346910500,23.045910400390625,0.009696904569864273,-0.021729014813899994,-0.0015747922006994486
1772788839366942500,23.0659423828125,0.0054769450798630714,-0.00782049261033535,0.00047278543934226036
1772788839386975200,23.085975341796875,0.01012028381228447,0.025550484657287598,-0.008749580010771751
1772788839407007500,23.106007568359374,0.010113121010363102,0.03463844209909439,-0.018887469545006752
1772788839427039500,23.12603955078125,0.007203856483101845,0.016943413764238358,-0.032589931041002274
1772788839447072500,23.146072509765624,0.002684136852622032,-0.0033062053844332695,-0.014788239262998104
1772788839467104500,23.1661044921875,0.0070467786863446236,-0.006273262202739716,-0.0031346173491328955
1772788839487136300,23.18613623046875,0.011501767672598362,-0.006221226416528225,0.006409017369151115
1772788839507169500,23.20616943359375,0.008274639025330544,-0.015652760863304138,0.00355696864426136
1772788839527201500,23.226201416015623,0.00923965685069561,-0.03859385848045349,-0.00553871039301157
1772788839547233300,23.2462333984375,0.004725838545709848,-0.02388487011194229,-0.009899867698550224
1772788839567266600,23.2662666015625,0.009238047525286674,0.006261749193072319,-0.0064505310729146
1772788839587298300,23.28629833984375,0.00580503698438406,0.0054992930963635445,0.0016150609590113163
1772788839607330300,23.306330322265627,0.0036877330858260393,-0.022656230255961418,-0.014127613976597786
1772788839627363300,23.32636328125,0.008636318147182465,-0.039229944348335266,-0.006002726033329964
1772788839647395300,23.346395263671877,0.004829286597669125,-0.02027764916419983,0.0003132498823106289
1772788839667427300,23.36642724609375,0.006878525018692017,0.012708396650850773,-0.01870195008814335
1772788839687460400,23.38646044921875,0.015683557838201523,-0.003464130684733391,-0.004648520145565271
1772788839707492400,23.406492431640626,0.017770102247595787,-0.03941476345062256,0.013652212917804718
1772788839727524400,23.4265244140625,0.02078508958220482,-0.03696993738412857,-0.000798642635345459
1772788839747557400,23.446557373046875,0.015611893497407436,-0.024934984743595123,-0.0070487926714122295
1772788839767589400,23.46658935546875,0.014213540591299534,-0.005078841932117939,0.013179964385926723
1772788839787622400,23.486622314453125,0.01517714373767376,0.002317029982805252,0.003900921903550625
1772788839807654400,23.506654296875,0.0072431908920407295,-0.004902783781290054,0.003549800720065832
1772788839827686400,23.526686279296875,0.018927721306681633,-0.027545031160116196,-0.0034206872805953026
1772788839847719400,23.546719482421874,0.012144227512180805,-0.038964834064245224,-0.01428406871855259
1772788839867751400,23.56675146484375,0.01049083098769188,-0.011607736349105835,0.0005607153289020061
1772788839887783200,23.586783203125,0.013767094351351261,0.019165977835655212,0.012589925900101662
1772788839907816400,23.60681640625,0.01017144974321127,0.01722896471619606,0.023391254246234894
1772788839927848700,23.6268486328125,0.02108941227197647,-0.01107057649642229,0.006802898831665516
1772788839947880400,23.64688037109375,0.022136233747005463,-0.030290085822343826,-0.005363693926483393
1772788839967913700,23.666913818359376,0.01525720302015543,0.0058086346834897995,0.009887823835015297
1772788839987945500,23.686945556640627,0.014699355699121952,0.04997732490301132,0.017015915364027023
1772788840007977500,23.7069775390625,0.02213752642273903,0.028301920741796494,-0.0011968323960900307
1772788840028010500,23.727010498046877,0.01704159379005432,-0.0027809785678982735,-0.011079590767621994
1772788840048042500,23.74704248046875,0.009807363152503967,0.003155963495373726,-0.027599435299634933
1772788840068075800,23.76707568359375,0.014466132037341595,0.02795911394059658,-0.016025185585021973
1772788840088107500,23.787107421875,0.01945357769727707,0.007771708071231842,-0.0006279922090470791
1772788840108139500,23.807139404296876,0.010244190692901611,0.0057520195841789246,-0.004159413743764162
1772788840128172500,23.827172607421875,0.01584082841873169,0.04255278781056404,-0.0028648735024034977
1772788840148204500,23.84720458984375,0.03267795220017433,0.043073609471321106,0.0009473953396081924
1772788840168236500,23.867236572265625,0.03350219130516052,-0.00878002867102623,0.0025838729925453663
1772788840188269600,23.88726953125,0.031245756894350052,-0.02360890805721283,-0.024367883801460266
1772788840208301600,23.907301513671875,0.034183379262685776,0.015639597550034523,-0.03265795856714249
