time,seconds_elapsed,z,y,x
1772788873894099700,0.060099609375,-1.0640411376953125,-0.1087646484375,0.06744384765625
1772788873914131700,0.080131591796875,-0.9791259765625,-0.0956268310546875,0.096038818359375
1772788873934164500,0.10016455078125,-0.9793853759765625,-0.11199951171875,-0.0203857421875
1772788873954196700,0.12019677734375,-1.04608154296875,-0.112823486328125,-0.0426483154296875
1772788873974228700,0.140228759765625,-1.09326171875,-0.0438690185546875,0.026702880859375
1772788873994260700,0.1602607421875,-1.0033111572265625,-0.046478271484375,-0.024200439453125
1772788874014293000,0.18029296875,-1.0451812744140625,-0.0648193359375,-0.14581298828125
1772788874034325800,0.20032568359375,-1.0565185546875,-0.114990234375,-0.0460662841796875
1772788874054357800,0.220357666015625,-1.073394775390625,-0.0438232421875,0.070526123046875
1772788874074390800,0.240390869140625,-1.03826904296875,-0.1057281494140625,0.03533935546875
1772788874094422800,0.2604228515625,-0.9337005615234375,-0.1231689453125,-0.0054473876953125
1772788874114456000,0.2804560546875,-0.94183349609375,-0.1390533447265625,-0.0076141357421875
1772788874134487800,0.30048779296875,-0.936614990234375,-0.1149444580078125,0.1032867431640625
1772788874154520800,0.320520751953125,-0.9008331298828125,-0.1655120849609375,0.0514984130859375
1772788874174552800,0.340552734375,-0.922882080078125,-0.1748504638671875,0.0707550048828125
1772788874194585900,0.3605859375,-0.8983306884765625,-0.22491455078125,0.2039794921875
1772788874214617900,0.380617919921875,-0.9006195068359375,-0.208404541015625,0.13555908203125
1772788874234651000,0.40065087890625,-1.0045623779296875,-0.0972137451171875,0.0522613525390625
1772788874254683000,0.420682861328125,-1.2143402099609375,-0.0323028564453125,0.0364837646484375
1772788874274715000,0.44071484375,-1.240142822265625,0.180084228515625,0.0183258056640625
1772788874294748000,0.460747802734375,-1.22039794921875,0.250213623046875,0.039642333984375
1772788874314779600,0.480779541015625,-1.272979736328125,0.16412353515625,0.1970977783203125
1772788874334813000,0.50081298828125,-1.331878662109375,0.1470794677734375,0.1472930908203125
1772788874354845000,0.520844970703125,-1.285980224609375,0.1853485107421875,0.005706787109375
1772788874374878000,0.5408779296875,-1.1366119384765625,0.2935638427734375,0.13983154296875
1772788874394910000,0.560909912109375,-1.015533447265625,0.1448211669921875,0.283416748046875
1772788874414942700,0.580942626953125,-0.9860687255859375,0.04754638671875,0.3492431640625
1772788874434975000,0.60097509765625,-0.8779296875,0.0262451171875,0.2514495849609375
1772788874455007700,0.6210078125,-0.8079376220703125,0.0033721923828125,0.18426513671875
1772788874475040000,0.6410400390625,-0.7690887451171875,0.0047454833984375,0.14215087890625
1772788874495072000,0.661072021484375,-0.7235565185546875,-0.0416259765625,0.191619873046875
1772788874515104800,0.681104736328125,-0.8338470458984375,-0.0970916748046875,0.0671539306640625
1772788874535137000,0.701136962890625,-0.7802734375,-0.0462493896484375,0.1330718994140625
1772788874555169800,0.721169677734375,-0.838836669921875,-0.0925750732421875,0.0656890869140625
1772788874575201800,0.741201904296875,-0.8197784423828125,-0.0861053466796875,0.090911865234375
1772788874595234800,0.76123486328125,-0.9511260986328125,-0.007110595703125,0.1025390625
1772788874615266800,0.781266845703125,-0.9615020751953125,0.054534912109375,0.1039886474609375
1772788874635299800,0.8012998046875,-0.978424072265625,0.078704833984375,0.07623291015625
1772788874655331800,0.821331787109375,-0.9582977294921875,0.043914794921875,0.0513458251953125
1772788874675364600,0.841364501953125,-1.00860595703125,0.0613861083984375,0.05828857421875
1772788874695396900,0.86139697265625,-0.9737396240234375,0.1017608642578125,0.0609893798828125
1772788874715430000,0.881429931640625,-0.9934844970703125,0.141082763671875,0.03857421875
1772788874735462000,0.9014619140625,-1.00390625,0.1460723876953125,-0.017425537109375
1772788874755495000,0.921494873046875,-1.0584869384765625,0.178009033203125,-0.01751708984375
1772788874775526700,0.941526611328125,-1.0693817138671875,0.1699676513671875,-0.00457763671875
1772788874795559000,0.961558837890625,-1.0704345703125,0.1403961181640625,-0.0336761474609375
1772788874815592000,0.981592041015625,-1.03680419921875,0.1454010009765625,-0.071044921875
1772788874835623700,1.001623779296875,-0.958160400390625,0.185150146484375,-0.1420440673828125
1772788874855657000,1.021656982421875,-0.9488372802734375,0.18865966796875,-0.177398681640625
1772788874875688700,1.041688720703125,-0.98394775390625,0.1126251220703125,-0.2025909423828125
1772788874895722000,1.061721923828125,-0.9978485107421875,0.098358154296875,-0.1320037841796875
1772788874915753700,1.081753662109375,-1.0096435546875,0.05145263671875,-0.0903167724609375
1772788874935787000,1.101787109375,-0.98150634765625,0.0685882568359375,-0.0030364990234375
1772788874955819000,1.121819091796875,-0.974639892578125,0.0299224853515625,0.01824951171875
1772788874975852500,1.1418525390625,-1.0003814697265625,0.0326690673828125,0.035247802734375
1772788874995884500,1.161884521484375,-1.021026611328125,0.0759429931640625,-0.0129241943359375
1772788875015916500,1.18191650390625,-0.97503662109375,0.0738983154296875,-0.0119171142578125
1772788875035949600,1.201949462890625,-0.9525604248046875,0.111663818359375,0.00677490234375
1772788875055981600,1.221981689453125,-0.934478759765625,0.1605072021484375,-0.0219268798828125
1772788875076014600,1.2420146484375,-0.9808502197265625,0.195953369140625,-0.068115234375
1772788875096046300,1.26204638671875,-1.01544189453125,0.16180419921875,-0.111602783203125
1772788875116079600,1.28207958984375,-1.002655029296875,0.1175079345703125,-0.1125640869140625
1772788875136111600,1.302111572265625,-0.9477996826171875,0.1236572265625,-0.0814361572265625
1772788875156144600,1.32214453125,-0.9584503173828125,0.0810699462890625,-0.10943603515625
1772788875176176600,1.3421767578125,-0.912445068359375,0.01873779296875,-0.0741729736328125
1772788875196209400,1.36220947265625,-0.9149169921875,-0.04681396484375,-0.1439056396484375
1772788875216241700,1.38224169921875,-0.8985748291015625,-0.026702880859375,-0.1479949951171875
1772788875236274400,1.4022744140625,-0.940582275390625,-0.075927734375,-0.0622711181640625
1772788875256306400,1.422306396484375,-0.9625396728515625,-0.0889892578125,0.008026123046875
1772788875276338700,1.442338623046875,-0.9690704345703125,-0.101470947265625,-0.0445556640625
1772788875296371500,1.462371337890625,-0.920562744140625,-0.086273193359375,-0.154449462890625
1772788875316403700,1.48240380859375,-0.8649444580078125,-0.0977935791015625,-0.197967529296875
1772788875336436500,1.5024365234375,-0.785858154296875,-0.1102142333984375,-0.1060791015625
1772788875356468500,1.522468505859375,-0.8475799560546875,-0.1266632080078125,-0.0247802734375
1772788875376501500,1.54250146484375,-0.94384765625,-0.0680389404296875,-0.0579681396484375
1772788875396533500,1.562533447265625,-0.908905029296875,-0.0349578857421875,0.0866546630859375
1772788875416566500,1.58256640625,-0.9331512451171875,-0.019989013671875,0.1267242431640625
1772788875436598500,1.6025986328125,-1.006103515625,0.010650634765625,0.0946502685546875
1772788875456631300,1.62263134765625,-1.1717071533203125,-0.0278778076171875,-0.0196685791015625
1772788875476663600,1.64266357421875,-1.1446685791015625,-0.0095672607421875,0.076812744140625
1772788875496695600,1.662695556640625,-1.2646942138671875,0.1573333740234375,0.0959320068359375
1772788875516728300,1.682728271484375,-1.206298828125,0.192962646484375,0.03662109375
1772788875536760600,1.702760498046875,-1.076263427734375,0.1172637939453125,0.06329345703125
1772788875556793300,1.72279345703125,-1.130035400390625,0.043487548828125,0.092132568359375
1772788875576825600,1.74282568359375,-1.0084381103515625,0.00189208984375,0.0433807373046875
1772788875596858600,1.762858642578125,-0.9477996826171875,0.0431671142578125,-0.004547119140625
1772788875616890400,1.782890380859375,-0.964019775390625,0.068115234375,-0.0757293701171875
1772788875636923600,1.802923583984375,-0.998321533203125,0.0571136474609375,-0.0803375244140625
1772788875656955400,1.822955322265625,-1.0114288330078125,-0.0283203125,-0.079986572265625
1772788875676988700,1.84298876953125,-0.971282958984375,-0.081268310546875,-0.0101776123046875
1772788875697020400,1.8630205078125,-0.9398956298828125,-0.111328125,-0.047821044921875
1772788875717053400,1.883053466796875,-0.8945770263671875,-0.09222412109375,-0.0345611572265625
1772788875737085700,1.903085693359375,-0.94537353515625,-0.055389404296875,-0.053955078125
1772788875757117400,1.923117431640625,-1.004791259765625,-0.00836181640625,-0.04388427734375
1772788875777150700,1.943150634765625,-0.9550628662109375,0.0151824951171875,-0.1176300048828125
1772788875797182500,1.963182373046875,-0.984039306640625,-0.0602264404296875,-0.1339263916015625
1772788875817215500,1.983215576171875,-0.993194580078125,-0.121002197265625,-0.108551025390625
1772788875837247500,2.00324755859375,-1.021392822265625,-0.0443267822265625,-0.0668487548828125
1772788875857280500,2.023280517578125,-0.9688568115234375,-0.034912109375,-0.05120849609375
1772788875877312500,2.0433125,-0.9418792724609375,0.0174407958984375,-0.0243988037109375
1772788875897345500,2.063345458984375,-0.9677886962890625,-0.0918426513671875,-0.06842041015625
1772788875917377500,2.08337744140625,-0.9954833984375,-0.1140899658203125,-0.10772705078125
1772788875937410600,2.10341064453125,-0.9774322509765625,-0.0853729248046875,-0.03961181640625
1772788875957442600,2.123442626953125,-0.96240234375,-0.0850677490234375,-0.0800018310546875
1772788875977474800,2.143474853515625,-1.0345458984375,-0.0845794677734375,-0.102081298828125
1772788875997507600,2.163507568359375,-1.041778564453125,-0.0117950439453125,-0.0951080322265625
1772788876017539800,2.183539794921875,-1.088165283203125,-0.04815673828125,-0.0913543701171875
1772788876037572600,2.203572509765625,-0.9864501953125,-0.026824951171875,-0.1159515380859375
1772788876057604600,2.2236044921875,-1.039947509765625,-0.0098724365234375,-0.172515869140625
1772788876077637600,2.2436376953125,-1.02386474609375,-0.0154571533203125,-0.147613525390625
1772788876097669600,2.263669677734375,-0.98895263671875,-0.0894775390625,-0.023101806640625
1772788876117702700,2.28370263671875,-1.052520751953125,-0.087921142578125,-0.018310546875
1772788876137734700,2.303734619140625,-1.073486328125,-0.044769287109375,-0.07611083984375
1772788876157767400,2.323767333984375,-1.0076751708984375,-0.0767669677734375,-0.1221771240234375
1772788876177799700,2.343799560546875,-1.003936767578125,-0.0991973876953125,-0.1791839599609375
1772788876197832700,2.363832763671875,-0.9019927978515625,-0.1270599365234375,-0.1361083984375
1772788876217864700,2.38386474609375,-0.8557586669921875,-0.108551025390625,-0.0237274169921875
1772788876237896700,2.403896728515625,-0.9847412109375,-0.095184326171875,-0.1247406005859375
1772788876257929500,2.423929443359375,-1.112823486328125,-0.086181640625,-0.18560791015625
1772788876277961700,2.443961669921875,-1.0916595458984375,-0.1107025146484375,-0.127166748046875
1772788876297994500,2.463994384765625,-0.99658203125,-0.11041259765625,-0.0664215087890625
1772788876318026500,2.484026611328125,-0.927490234375,-0.122039794921875,-0.0457763671875
1772788876338059800,2.504059814453125,-1.002838134765625,-0.1257476806640625,-0.0716400146484375
1772788876358091500,2.524091552734375,-1.0716705322265625,-0.1200408935546875,-0.093353271484375
1772788876378124800,2.544124755859375,-0.9930572509765625,-0.1410064697265625,-0.0835723876953125
1772788876398156500,2.564156494140625,-0.8521270751953125,-0.1944122314453125,-0.093475341796875
1772788876418189600,2.584189453125,-0.824188232421875,-0.189544677734375,-0.1892852783203125
1772788876438221600,2.6042216796875,-0.8637237548828125,-0.1986846923828125,-0.17388916015625
1772788876458253600,2.624253662109375,-0.944549560546875,-0.1689605712890625,-0.23394775390625
1772788876478286800,2.644286865234375,-1.03057861328125,-0.1244964599609375,-0.1322174072265625
1772788876498318600,2.664318603515625,-0.9729766845703125,-0.1197052001953125,-0.0746612548828125
1772788876518351600,2.6843515625,-0.9510955810546875,-0.1570892333984375,-0.0515594482421875
1772788876538383600,2.704383544921875,-0.986297607421875,-0.1807861328125,-0.1789703369140625
1772788876558416600,2.724416748046875,-1.01507568359375,-0.1176910400390625,-0.2898712158203125
1772788876578448600,2.74444873046875,-0.936920166015625,-0.184967041015625,-0.285552978515625
1772788876598481700,2.764481689453125,-0.906982421875,-0.1816864013671875,-0.2807464599609375
1772788876618513700,2.784513671875,-0.9568634033203125,-0.1593170166015625,-0.32086181640625
1772788876638546700,2.804546630859375,-0.9885406494140625,-0.1438446044921875,-0.30877685546875
1772788876658578700,2.82457861328125,-0.9982147216796875,-0.15374755859375,-0.2764129638671875
1772788876678611700,2.84461181640625,-0.9605865478515625,-0.1946563720703125,-0.1940765380859375
1772788876698643700,2.864643798828125,-0.9936370849609375,-0.184478759765625,-0.177215576171875
1772788876718675700,2.88467578125,-1.001617431640625,-0.13580322265625,-0.1787872314453125
1772788876738708700,2.904708740234375,-0.9629669189453125,-0.171722412109375,-0.162567138671875
1772788876758740700,2.92474072265625,-0.9130401611328125,-0.1854400634765625,-0.13885498046875
1772788876778773500,2.9447734375,-0.9943695068359375,-0.1627655029296875,-0.199859619140625
1772788876798805800,2.9648056640625,-0.920684814453125,-0.16143798828125,-0.227264404296875
1772788876818838500,2.984838623046875,-1.0062255859375,-0.1117095947265625,-0.173370361328125
1772788876838870500,3.00487060546875,-0.9919281005859375,-0.1607208251953125,-0.1139068603515625
1772788876858903600,3.024903564453125,-1.0013885498046875,-0.13787841796875,-0.1199798583984375
1772788876878935600,3.044935546875,-0.9973602294921875,-0.17889404296875,-0.1290740966796875
1772788876898968600,3.064968505859375,-0.9782867431640625,-0.1789093017578125,-0.130401611328125
1772788876919000600,3.08500048828125,-1.0308380126953125,-0.1302490234375,-0.058868408203125
1772788876939033900,3.105033935546875,-1.064117431640625,-0.13128662109375,-0.0907440185546875
1772788876959065600,3.125065673828125,-0.9816741943359375,-0.2113800048828125,-0.0882720947265625
1772788876979096600,3.1450966796875,-0.925384521484375,-0.2068328857421875,-0.1196441650390625
1772788876999129600,3.165129638671875,-0.94793701171875,-0.204193115234375,-0.1488800048828125
1772788877019161600,3.18516162109375,-0.9658660888671875,-0.1993255615234375,-0.1362152099609375
1772788877039194600,3.205194580078125,-0.927947998046875,-0.2062530517578125,-0.173553466796875
1772788877059226600,3.2252265625,-0.9152374267578125,-0.2084503173828125,-0.1530609130859375
1772788877079259600,3.245259765625,-0.903350830078125,-0.202362060546875,-0.1592254638671875
1772788877099291600,3.265291748046875,-0.9241790771484375,-0.21453857421875,-0.14471435546875
1772788877119324700,3.28532470703125,-0.9485626220703125,-0.19580078125,-0.089263916015625
1772788877139356700,3.305356689453125,-0.9631805419921875,-0.20703125,-0.0560760498046875
1772788877159389700,3.3253896484375,-0.949981689453125,-0.22320556640625,-0.0510101318359375
1772788877179421700,3.345421630859375,-0.9529571533203125,-0.2176055908203125,-0.0497589111328125
1772788877199453700,3.36545361328125,-1.0276641845703125,-0.191619873046875,-0.017822265625
1772788877219486700,3.38548681640625,-1.0659637451171875,-0.1545867919921875,-0.02032470703125
1772788877239518700,3.405518798828125,-1.0166168212890625,-0.149932861328125,-0.055908203125
1772788877259551500,3.425551513671875,-0.9595794677734375,-0.1559295654296875,-0.0976409912109375
1772788877279583700,3.445583740234375,-0.993988037109375,-0.175750732421875,-0.068115234375
1772788877299616500,3.465616455078125,-1.044952392578125,-0.130157470703125,-0.10076904296875
1772788877319648800,3.485648681640625,-0.9806671142578125,-0.1603546142578125,-0.1573028564453125
1772788877339681500,3.505681640625,-0.9347686767578125,-0.2178192138671875,-0.2089080810546875
1772788877359713500,3.525713623046875,-0.9855499267578125,-0.196441650390625,-0.190704345703125
1772788877379746600,3.54574658203125,-0.9825286865234375,-0.1833648681640625,-0.2021484375
1772788877399778600,3.565778564453125,-0.93951416015625,-0.2158355712890625,-0.18634033203125
1772788877419811800,3.585811767578125,-0.8602752685546875,-0.2604217529296875,-0.188140869140625
1772788877439843600,3.605843505859375,-0.8695220947265625,-0.2412109375,-0.170013427734375
1772788877459876600,3.625876708984375,-0.8948516845703125,-0.225555419921875,-0.16192626953125
1772788877479908600,3.64590869140625,-0.9262542724609375,-0.2265625,-0.148345947265625
1772788877499940600,3.665940673828125,-1.0210113525390625,-0.180267333984375,-0.107269287109375
1772788877519973600,3.6859736328125,-1.0212860107421875,-0.1688232421875,-0.071868896484375
1772788877540005600,3.706005615234375,-1.025177001953125,-0.182586669921875,-0.07403564453125
1772788877560038700,3.72603857421875,-1.037841796875,-0.1837921142578125,-0.0359954833984375
1772788877580070700,3.746070556640625,-1.1025848388671875,-0.143096923828125,-0.0494232177734375
1772788877600103700,3.766103759765625,-1.04803466796875,-0.156951904296875,-0.079193115234375
1772788877620135400,3.786135498046875,-0.9434814453125,-0.230010986328125,-0.1082000732421875
1772788877640168700,3.806168701171875,-0.9081268310546875,-0.2089385986328125,-0.119598388671875
1772788877660200700,3.82620068359375,-0.9033050537109375,-0.2223052978515625,-0.18927001953125
1772788877680233700,3.846233642578125,-0.9034423828125,-0.215972900390625,-0.17303466796875
1772788877700265700,3.866265625,-0.9269256591796875,-0.192108154296875,-0.122283935546875
1772788877720297500,3.88629736328125,-0.9428558349609375,-0.1936187744140625,-0.111297607421875
1772788877740330800,3.906330810546875,-0.965972900390625,-0.194183349609375,-0.1116180419921875
1772788877760362800,3.92636279296875,-0.9847564697265625,-0.1829681396484375,-0.1204071044921875
1772788877780395800,3.946395751953125,-1.034149169921875,-0.1572265625,-0.1026611328125
1772788877800427800,3.966427734375,-1.043670654296875,-0.1495208740234375,-0.096160888671875
1772788877820460500,3.98646044921875,-1.027130126953125,-0.1506195068359375,-0.1132354736328125
1772788877840489700,4.00648974609375,-1.00439453125,-0.1519927978515625,-0.120758056640625
1772788877860522800,4.026522705078125,-1.02667236328125,-0.1277618408203125,-0.1219024658203125
1772788877880554800,4.0465546875,-1.0087432861328125,-0.141143798828125,-0.1208038330078125
1772788877900587500,4.06658740234375,-0.967559814453125,-0.167572021484375,-0.1224517822265625
1772788877920619800,4.086619873046875,-0.9499359130859375,-0.174102783203125,-0.13018798828125
1772788877940652500,4.106652587890625,-0.9420318603515625,-0.17584228515625,-0.1563262939453125
1772788877960684500,4.1266845703125,-0.9301605224609375,-0.1778564453125,-0.158447265625
1772788877980717000,4.146717041015625,-0.957366943359375,-0.1704559326171875,-0.1485443115234375
1772788878000750000,4.16675,-0.9686431884765625,-0.165802001953125,-0.1407012939453125
1772788878020782300,4.1867822265625,-0.9736328125,-0.1818084716796875,-0.137847900390625
1772788878040815000,4.206815185546875,-0.9876861572265625,-0.1889801025390625,-0.1400146484375
1772788878060847000,4.22684716796875,-1.0157318115234375,-0.17022705078125,-0.1366424560546875
1772788878080880000,4.246880126953125,-1.0207672119140625,-0.153045654296875,-0.137603759765625
1772788878100912000,4.266912109375,-1.0220947265625,-0.15240478515625,-0.14581298828125
1772788878120945200,4.286945068359375,-0.9914093017578125,-0.1709136962890625,-0.1457061767578125
1772788878140977200,4.30697705078125,-0.961456298828125,-0.19976806640625,-0.1448822021484375
1772788878161010000,4.327010009765625,-0.9700775146484375,-0.197967529296875,-0.1480865478515625
1772788878181042200,4.347042236328125,-0.954010009765625,-0.2073822021484375,-0.1492767333984375
1772788878201075200,4.3670751953125,-0.92889404296875,-0.2137603759765625,-0.1536407470703125
1772788878221107200,4.387107177734375,-0.931060791015625,-0.2113800048828125,-0.1445465087890625
1772788878241139200,4.40713916015625,-0.961181640625,-0.189971923828125,-0.1514434814453125
1772788878261173200,4.42717333984375,-0.964935302734375,-0.1956939697265625,-0.155487060546875
1772788878281205200,4.447205322265625,-0.961456298828125,-0.2050323486328125,-0.15301513671875
1772788878301238000,4.467238037109375,-0.967987060546875,-0.2061614990234375,-0.1418609619140625
1772788878321270300,4.487270263671875,-0.975189208984375,-0.206329345703125,-0.13812255859375
1772788878341303000,4.507302978515625,-0.9808502197265625,-0.197662353515625,-0.1442413330078125
1772788878361335000,4.5273349609375,-0.9699249267578125,-0.1967926025390625,-0.1399078369140625
1772788878381368000,4.5473681640625,-0.97235107421875,-0.2011871337890625,-0.1293792724609375
1772788878401400000,4.567400146484375,-0.9727325439453125,-0.207763671875,-0.1343231201171875
1772788878421433000,4.58743310546875,-0.943878173828125,-0.21710205078125,-0.148895263671875
1772788878441465000,4.607465087890625,-0.9315338134765625,-0.20068359375,-0.161834716796875
1772788878461498400,4.627498291015625,-0.9690704345703125,-0.2063140869140625,-0.1751251220703125
1772788878481530000,4.647530029296875,-0.9639129638671875,-0.18292236328125,-0.168670654296875
1772788878501563100,4.667563232421875,-0.97381591796875,-0.1835174560546875,-0.157379150390625
1772788878521595100,4.68759521484375,-0.979095458984375,-0.185821533203125,-0.1493377685546875
1772788878541628200,4.707628173828125,-1.0015411376953125,-0.174224853515625,-0.149444580078125
1772788878561660200,4.72766015625,-0.98089599609375,-0.189300537109375,-0.1351470947265625
1772788878581692200,4.747692138671875,-0.9957733154296875,-0.173797607421875,-0.135894775390625
1772788878601725200,4.76772509765625,-0.9965667724609375,-0.179840087890625,-0.1426849365234375
1772788878621757000,4.7877568359375,-0.97900390625,-0.1917572021484375,-0.1422576904296875
1772788878641790200,4.807790283203125,-0.9723358154296875,-0.186279296875,-0.1480255126953125
1772788878661822200,4.827822265625,-0.9552764892578125,-0.19757080078125,-0.138580322265625
1772788878681855200,4.847855224609375,-0.957122802734375,-0.196929931640625,-0.157501220703125
1772788878701887200,4.86788720703125,-0.949737548828125,-0.20086669921875,-0.1738739013671875
1772788878721920300,4.887920166015625,-0.9404449462890625,-0.199798583984375,-0.1771240234375
1772788878741952300,4.9079521484375,-0.9429473876953125,-0.1960601806640625,-0.1739044189453125
1772788878761985000,4.927985107421875,-0.9573822021484375,-0.1823577880859375,-0.1673126220703125
1772788878782017300,4.948017333984375,-0.9719085693359375,-0.1856842041015625,-0.14813232421875
1772788878802050000,4.968050048828125,-0.9750518798828125,-0.1897735595703125,-0.14453125
1772788878822082000,4.98808203125,-0.9694671630859375,-0.198333740234375,-0.1461181640625
1772788878842115000,5.008114990234375,-0.9713287353515625,-0.186279296875,-0.147613525390625
1772788878862147000,5.02814697265625,-0.970184326171875,-0.1544036865234375,-0.13482666015625
1772788878882179300,5.048179443359375,-0.9904022216796875,-0.2080230712890625,-0.1121368408203125
1772788878902212000,5.068212158203125,-0.96588134765625,-0.166717529296875,-0.1252288818359375
1772788878922244000,5.088244140625,-0.9920806884765625,-0.1940155029296875,-0.087646484375
1772788878942277000,5.108277099609375,-0.97314453125,-0.1588897705078125,-0.147918701171875
1772788878962309000,5.12830908203125,-0.9647216796875,-0.1669769287109375,-0.170379638671875
1772788878982342000,5.148341796875,-0.947021484375,-0.1512451171875,-0.1500396728515625
1772788879002374000,5.168373779296875,-0.9834136962890625,-0.1735382080078125,-0.107513427734375
1772788879022407000,5.188406982421875,-0.9450531005859375,-0.191558837890625,-0.1052398681640625
1772788879042439000,5.20843896484375,-0.9277801513671875,-0.1811981201171875,-0.1212310791015625
1772788879062472000,5.228471923828125,-0.935272216796875,-0.1650543212890625,-0.1038360595703125
1772788879082503700,5.248503662109375,-1.0157012939453125,-0.1102447509765625,-0.09228515625
1772788879102537000,5.268536865234375,-1.0170745849609375,-0.1160430908203125,-0.072418212890625
1772788879122569000,5.28856884765625,-1.0046539306640625,-0.158477783203125,-0.08197021484375
1772788879142602000,5.30860205078125,-1.014678955078125,-0.1251678466796875,-0.084014892578125
1772788879162634000,5.328634033203125,-1.035491943359375,-0.092010498046875,-0.10357666015625
1772788879182665700,5.348665771484375,-1.046234130859375,-0.089019775390625,-0.087982177734375
1772788879202699000,5.368698974609375,-1.0318450927734375,-0.09246826171875,-0.0695953369140625
1772788879222730800,5.388730712890625,-1.0161590576171875,-0.1095428466796875,-0.0803985595703125
1772788879242764000,5.408763916015625,-1.0043792724609375,-0.1192626953125,-0.0892181396484375
1772788879262796000,5.428796142578125,-0.992889404296875,-0.13525390625,-0.07891845703125
1772788879282828800,5.448828857421875,-0.9832611083984375,-0.1278839111328125,-0.1082305908203125
1772788879302861000,5.468861083984375,-0.9512176513671875,-0.13653564453125,-0.1308441162109375
1772788879322893800,5.488893798828125,-0.9575042724609375,-0.104217529296875,-0.1221771240234375
1772788879342925800,5.50892578125,-0.972564697265625,-0.1089324951171875,-0.1351470947265625
1772788879362958800,5.528958740234375,-0.976470947265625,-0.0930023193359375,-0.1123809814453125
1772788879382990800,5.548990966796875,-0.98583984375,-0.107391357421875,-0.09759521484375
1772788879403024000,5.56902392578125,-0.9725494384765625,-0.1215362548828125,-0.0684356689453125
1772788879423056000,5.589055908203125,-0.972900390625,-0.1275787353515625,-0.0627288818359375
1772788879443089000,5.6090888671875,-0.9793548583984375,-0.1229095458984375,-0.06097412109375
1772788879463121000,5.629120849609375,-1.0159149169921875,-0.0909881591796875,-0.05218505859375
1772788879483153000,5.64915283203125,-1.0142822265625,-0.0735626220703125,-0.0712890625
1772788879503186000,5.66918603515625,-0.9996490478515625,-0.10137939453125,-0.0667266845703125
1772788879523218000,5.689218017578125,-0.9834136962890625,-0.110931396484375,-0.0812225341796875
1772788879543250700,5.709250732421875,-0.9920196533203125,-0.1149139404296875,-0.0837860107421875
1772788879563283000,5.729282958984375,-0.993408203125,-0.1342010498046875,-0.0696868896484375
1772788879583316000,5.74931591796875,-1.0048828125,-0.124267578125,-0.06231689453125
1772788879603347700,5.76934765625,-0.9731903076171875,-0.1338348388671875,0.0209197998046875
1772788879623381000,5.789381103515625,-0.9683990478515625,-0.1450958251953125,-0.1526641845703125
1772788879643412700,5.809412841796875,-0.995635986328125,-0.1156158447265625,-0.1533660888671875
1772788879663446000,5.829446044921875,-0.993377685546875,-0.0912628173828125,-0.1606903076171875
1772788879683477800,5.849477783203125,-0.9877471923828125,-0.1130523681640625,-0.1936798095703125
1772788879703511000,5.869510986328125,-0.95489501953125,-0.209930419921875,-0.1463775634765625
1772788879723543000,5.88954296875,-0.9367523193359375,-0.203460693359375,-0.1325225830078125
1772788879743575800,5.909575927734375,-0.978485107421875,-0.145721435546875,-0.2519683837890625
1772788879763608000,5.929608154296875,-0.9650421142578125,-0.1099700927734375,-0.2728424072265625
1772788879783639800,5.949639892578125,-0.8233795166015625,-0.1625823974609375,-0.2253875732421875
1772788879803672800,5.9696728515625,-0.853851318359375,-0.1697998046875,-0.2235260009765625
1772788879823704800,5.989704833984375,-0.8845367431640625,-0.189697265625,-0.1807403564453125
1772788879843737900,6.00973779296875,-0.8840789794921875,-0.22711181640625,-0.1590423583984375
1772788879863770000,6.02977001953125,-0.8743743896484375,-0.249786376953125,-0.083221435546875
1772788879883803000,6.049802978515625,-0.9317169189453125,-0.26434326171875,-0.014251708984375
1772788879903835000,6.0698349609375,-0.9929656982421875,-0.247772216796875,0.0011749267578125
1772788879923868000,6.089867919921875,-0.9855804443359375,-0.301177978515625,0.0926513671875
1772788879943900000,6.10989990234375,-0.963287353515625,-0.275787353515625,0.0931243896484375
1772788879963933000,6.129932861328125,-0.92510986328125,-0.2429351806640625,0.1746826171875
1772788879983965700,6.149965576171875,-0.9166412353515625,-0.2847747802734375,0.18072509765625
1772788880003998500,6.16999853515625,-0.9120941162109375,-0.2596282958984375,0.2157135009765625
1772788880024030700,6.19003076171875,-0.90948486328125,-0.229248046875,0.2382965087890625
1772788880044063500,6.2100634765625,-0.89617919921875,-0.2147216796875,0.2248077392578125
1772788880064095500,6.230095458984375,-0.89501953125,-0.24114990234375,0.2008056640625
1772788880084128500,6.25012841796875,-0.81756591796875,-0.21514892578125,0.214752197265625
1772788880104160500,6.270160400390625,-0.7898712158203125,-0.110260009765625,0.198150634765625
1772788880124192800,6.29019287109375,-0.7890625,-0.0725250244140625,0.1348114013671875
1772788880144225500,6.3102255859375,-0.7530364990234375,-0.0752716064453125,0.1462554931640625
1772788880164257500,6.330257568359375,-0.732330322265625,-0.0967254638671875,0.2295074462890625
1772788880184290600,6.35029052734375,-0.7437591552734375,-0.0370330810546875,0.290924072265625
1772788880204322600,6.370322509765625,-0.7403564453125,-0.001312255859375,0.2579498291015625
1772788880224355600,6.39035546875,-0.7111358642578125,-0.0536956787109375,0.2523345947265625
1772788880244387600,6.4103876953125,-0.652099609375,-0.0283660888671875,0.3496246337890625
1772788880264420600,6.430420654296875,-0.68902587890625,0.040740966796875,0.4171295166015625
1772788880284452600,6.45045263671875,-0.7401885986328125,0.02191162109375,0.4503631591796875
1772788880304485600,6.470485595703125,-0.725677490234375,0.0048675537109375,0.52301025390625
1772788880324517400,6.490517333984375,-0.6907501220703125,-0.0013580322265625,0.6534423828125
1772788880344550700,6.510550537109375,-0.672454833984375,0.0428619384765625,0.697052001953125
1772788880364582700,6.530582763671875,-0.6471099853515625,-0.036834716796875,0.7198486328125
1772788880384615700,6.55061572265625,-0.59417724609375,-0.027679443359375,0.7783203125
1772788880404647700,6.570647705078125,-0.6002349853515625,0.0688018798828125,0.8484344482421875
1772788880424679400,6.590679443359375,-0.58203125,0.060455322265625,0.8139190673828125
1772788880444712700,6.610712646484375,-0.564422607421875,0.06396484375,0.7219696044921875
1772788880464744400,6.630744384765625,-0.502471923828125,0.071868896484375,0.7133331298828125
1772788880484777700,6.65077783203125,-0.44183349609375,0.097564697265625,0.8456573486328125
1772788880504809700,6.670809814453125,-0.3958587646484375,0.1319122314453125,0.868804931640625
1772788880524842500,6.690842529296875,-0.3210601806640625,0.127166748046875,0.9461212158203125
1772788880544874800,6.710874755859375,-0.3075714111328125,0.134429931640625,1.052337646484375
1772788880564907500,6.730907470703125,-0.2679901123046875,0.200897216796875,1.0786895751953125
1772788880584939800,6.750939697265625,-0.1721954345703125,0.1805267333984375,1.0185546875
1772788880604972500,6.77097265625,-0.0469818115234375,0.2261962890625,0.945098876953125
1772788880625004500,6.791004638671875,-0.0129547119140625,0.2589111328125,1.01702880859375
1772788880645037600,6.81103759765625,-0.029998779296875,0.3147430419921875,1.0372161865234375
1772788880665069600,6.831069580078125,-0.024017333984375,0.3870391845703125,0.998687744140625
1772788880685102600,6.8511025390625,-0.030517578125,0.44390869140625,0.9701385498046875
1772788880705134600,6.871134521484375,-0.044708251953125,0.5077972412109375,0.9447784423828125
1772788880725167600,6.891167724609375,-0.0239410400390625,0.5233306884765625,0.93280029296875
1772788880745199600,6.91119970703125,0.02520751953125,0.5479278564453125,1.04852294921875
1772788880765231600,6.931231689453125,0.06610107421875,0.5897979736328125,1.1794281005859375
1772788880785264400,6.951264404296875,0.103515625,0.5974578857421875,1.205108642578125
1772788880805296600,6.971296630859375,0.1258087158203125,0.5880126953125,1.1251678466796875
1772788880825329700,6.99132958984375,0.1492919921875,0.573486328125,1.02166748046875
1772788880845361700,7.011361572265625,0.157623291015625,0.59893798828125,0.942657470703125
1772788880865394700,7.031394775390625,0.1631622314453125,0.646453857421875,0.861358642578125
1772788880885426400,7.051426513671875,0.189727783203125,0.695098876953125,0.7960205078125
1772788880905459700,7.071459716796875,0.227081298828125,0.7196197509765625,0.745635986328125
1772788880925491500,7.091491455078125,0.250579833984375,0.752197265625,0.725738525390625
1772788880945524700,7.111524658203125,0.241943359375,0.7772216796875,0.7313385009765625
1772788880965556700,7.131556640625,0.2232666015625,0.812347412109375,0.7174835205078125
1772788880985589500,7.151589599609375,0.2239837646484375,0.8531494140625,0.7150726318359375
1772788881005621500,7.17162158203125,0.26690673828125,0.8740692138671875,0.7227935791015625
1772788881025654500,7.191654541015625,0.2943115234375,0.8704376220703125,0.6767578125
1772788881045686500,7.2116865234375,0.3523712158203125,0.87890625,0.6399383544921875
1772788881065719300,7.23171923828125,0.3385467529296875,0.8742218017578125,0.623687744140625
1772788881085751600,7.25175146484375,0.34130859375,0.86956787109375,0.6392822265625
1772788881105783600,7.271783447265625,0.3158416748046875,0.8523712158203125,0.6183319091796875
1772788881125816600,7.291816650390625,0.3173828125,0.8562774658203125,0.583770751953125
1772788881145848600,7.3118486328125,0.3453826904296875,0.8512725830078125,0.530731201171875
1772788881165881300,7.33188134765625,0.3661651611328125,0.8705596923828125,0.4938201904296875
1772788881185913600,7.35191357421875,0.3452301025390625,0.859344482421875,0.4639739990234375
1772788881205946400,7.3719462890625,0.3456573486328125,0.852935791015625,0.4408721923828125
1772788881225978400,7.391978271484375,0.334228515625,0.848114013671875,0.434326171875
1772788881246011400,7.412011474609375,0.329803466796875,0.8536529541015625,0.429931640625
1772788881266043400,7.43204345703125,0.3243560791015625,0.8615875244140625,0.44219970703125
1772788881286076700,7.45207666015625,0.3408355712890625,0.857574462890625,0.4552459716796875
1772788881306108400,7.4721083984375,0.3384552001953125,0.8549041748046875,0.4305419921875
1772788881326141400,7.492141357421875,0.3289642333984375,0.8509063720703125,0.4029541015625
1772788881346173400,7.51217333984375,0.3209228515625,0.8794708251953125,0.396759033203125
1772788881366206500,7.53220654296875,0.3225250244140625,0.898773193359375,0.3798065185546875
1772788881386238500,7.552238525390625,0.3125,0.910614013671875,0.3648529052734375
1772788881406271500,7.572271484375,0.3416595458984375,0.892852783203125,0.3586883544921875
1772788881426303500,7.592303466796875,0.35186767578125,0.8764801025390625,0.3498077392578125
1772788881446336500,7.61233642578125,0.3693084716796875,0.8678436279296875,0.350311279296875
1772788881466368500,7.632368408203125,0.341094970703125,0.8164520263671875,0.399017333984375
1772788881486400300,7.652400146484375,0.3980865478515625,0.8702850341796875,0.3515625
1772788881506433500,7.67243359375,0.4473724365234375,0.8734893798828125,0.302001953125
1772788881526465500,7.692465576171875,0.43768310546875,0.8973388671875,0.2626800537109375
1772788881546498600,7.71249853515625,0.4088134765625,0.9107818603515625,0.2842254638671875
1772788881566530600,7.732530517578125,0.382659912109375,0.8994293212890625,0.311798095703125
1772788881586563600,7.7525634765625,0.3820648193359375,0.8996124267578125,0.3454437255859375
1772788881606595600,7.772595703125,0.392791748046875,0.8813323974609375,0.3446807861328125
1772788881626628400,7.79262841796875,0.3943939208984375,0.8464202880859375,0.3515472412109375
1772788881646660600,7.81266064453125,0.3663177490234375,0.8377227783203125,0.335296630859375
1772788881666693400,7.832693359375,0.3942413330078125,0.8730010986328125,0.2936859130859375
1772788881686725400,7.852725341796875,0.3979339599609375,0.8806610107421875,0.25653076171875
1772788881706758400,7.87275830078125,0.3742218017578125,0.894500732421875,0.250885009765625
1772788881726790400,7.892790283203125,0.3453521728515625,0.9124298095703125,0.287353515625
1772788881746823400,7.912823486328125,0.3343505859375,0.886322021484375,0.3275909423828125
1772788881766855400,7.93285546875,0.32806396484375,0.8744659423828125,0.343994140625
1772788881786888400,7.952888427734375,0.3305511474609375,0.889923095703125,0.33331298828125
1772788881806920400,7.97292041015625,0.3826904296875,0.914276123046875,0.2880859375
1772788881826951400,7.992951416015625,0.41387939453125,0.886566162109375,0.3088226318359375
1772788881846984400,8.012984375,0.3899688720703125,0.8578338623046875,0.3657684326171875
1772788881867016400,8.033016357421875,0.3508148193359375,0.8430938720703125,0.4039154052734375
1772788881887049500,8.053049560546874,0.3215789794921875,0.8309783935546875,0.4133453369140625
1772788881907081500,8.07308154296875,0.3130645751953125,0.84423828125,0.40771484375
1772788881927114500,8.093114501953124,0.310302734375,0.84979248046875,0.3654632568359375
1772788881947146500,8.113146484375,0.3196868896484375,0.87274169921875,0.338470458984375
1772788881967179500,8.133179443359374,0.321319580078125,0.8963775634765625,0.32147216796875
1772788881987211000,8.1532109375,0.318023681640625,0.889556884765625,0.313812255859375
1772788882007244000,8.173244140625,0.3193206787109375,0.8708648681640625,0.3079681396484375
1772788882027276000,8.193276123046875,0.30535888671875,0.88226318359375,0.308319091796875
1772788882047308800,8.213308837890626,0.294708251953125,0.9049072265625,0.327178955078125
1772788882067341000,8.233341064453125,0.2963714599609375,0.9011383056640625,0.3386688232421875
1772788882087374000,8.2533740234375,0.2989654541015625,0.8880615234375,0.350799560546875
1772788882107405800,8.27340576171875,0.3067779541015625,0.8739166259765625,0.372467041015625
1772788882127439000,8.293439208984376,0.310455322265625,0.868927001953125,0.38348388671875
1772788882147470800,8.313470947265625,0.31695556640625,0.859466552734375,0.38482666015625
1772788882167503000,8.333503173828126,0.3235626220703125,0.8657989501953125,0.3810577392578125
1772788882187536100,8.3535361328125,0.3374481201171875,0.8566436767578125,0.3743438720703125
1772788882207568000,8.37356787109375,0.34814453125,0.8507537841796875,0.3662109375
1772788882227601200,8.39360107421875,0.336700439453125,0.855072021484375,0.3554840087890625
1772788882247634000,8.413634033203126,0.331939697265625,0.86383056640625,0.360748291015625
1772788882267667000,8.4336669921875,0.3249053955078125,0.8759765625,0.3648834228515625
1772788882287699000,8.453698974609376,0.3202056884765625,0.8735809326171875,0.366424560546875
1772788882307732200,8.473732177734375,0.3258514404296875,0.862030029296875,0.3691253662109375
1772788882327764000,8.493763916015626,0.3356475830078125,0.8567352294921875,0.372955322265625
1772788882347797000,8.513796875,0.3382720947265625,0.856597900390625,0.3791351318359375
1772788882367829000,8.5338291015625,0.3375396728515625,0.8552703857421875,0.387969970703125
1772788882387862000,8.553862060546875,0.3352508544921875,0.8621368408203125,0.39093017578125
1772788882407894000,8.57389404296875,0.332794189453125,0.8619384765625,0.3810882568359375
1772788882427927000,8.593927001953125,0.3314361572265625,0.875518798828125,0.3733367919921875
1772788882447959000,8.613958984375,0.3187103271484375,0.87957763671875,0.359954833984375
1772788882467992000,8.633991943359375,0.3170928955078125,0.8708648681640625,0.353118896484375
1772788882488024000,8.654024169921875,0.306182861328125,0.8832244873046875,0.3578033447265625
1772788882508057000,8.67405712890625,0.304840087890625,0.8693695068359375,0.35931396484375
1772788882528089000,8.694089111328125,0.318084716796875,0.8545074462890625,0.3679962158203125
1772788882548121900,8.714121826171874,0.3233795166015625,0.85101318359375,0.3725433349609375
1772788882568154000,8.734154052734375,0.3136749267578125,0.866424560546875,0.3733367919921875
1772788882588187000,8.754186767578124,0.3109283447265625,0.878204345703125,0.37713623046875
1772788882608219000,8.774218994140625,0.3050689697265625,0.8805389404296875,0.3740081787109375
1772788882628252000,8.794251953125,0.313385009765625,0.87261962890625,0.36517333984375
1772788882648284000,8.814283935546875,0.3217315673828125,0.870269775390625,0.3645782470703125
1772788882668317200,8.834317138671874,0.322784423828125,0.8746337890625,0.3656768798828125
1772788882688349000,8.854348876953125,0.3174896240234375,0.87628173828125,0.36358642578125
1772788882708381000,8.874380859375,0.3135986328125,0.8752593994140625,0.3612060546875
1772788882728414000,8.8944140625,0.3052825927734375,0.876434326171875,0.3609466552734375
1772788882748446000,8.914446044921876,0.3072662353515625,0.875701904296875,0.36737060546875
1772788882768479200,8.934479248046875,0.3155670166015625,0.8673095703125,0.3718414306640625
1772788882788511000,8.954510986328126,0.327545166015625,0.8600311279296875,0.3779144287109375
1772788882808544000,8.9745439453125,0.3287200927734375,0.860748291015625,0.3749847412109375
1772788882828576000,8.994575927734376,0.3270111083984375,0.8701934814453125,0.3723297119140625
1772788882848609000,9.014609130859375,0.3225860595703125,0.8665313720703125,0.3694610595703125
1772788882868641000,9.03464111328125,0.32122802734375,0.864990234375,0.3708038330078125
1772788882888674000,9.054674072265625,0.3210906982421875,0.867340087890625,0.3748016357421875
1772788882908706000,9.0747060546875,0.3245697021484375,0.8665771484375,0.3777008056640625
1772788882928739000,9.094739013671875,0.32666015625,0.863250732421875,0.37750244140625
1772788882948771000,9.11477099609375,0.3226165771484375,0.8670501708984375,0.372344970703125
1772788882968804000,9.13480419921875,0.323760986328125,0.8674163818359375,0.375
1772788882988836000,9.154836181640626,0.319305419921875,0.8672637939453125,0.3666229248046875
1772788883008869000,9.174869140625,0.323883056640625,0.867095947265625,0.3705596923828125
1772788883028901000,9.194901123046876,0.3311614990234375,0.8628387451171875,0.370880126953125
1772788883048934000,9.214933837890625,0.3242645263671875,0.866912841796875,0.3739013671875
1772788883068966100,9.234966064453126,0.3184051513671875,0.87158203125,0.3753204345703125
1772788883088999000,9.2549990234375,0.31793212890625,0.8707733154296875,0.3777008056640625
1772788883109031200,9.27503125,0.32135009765625,0.8635101318359375,0.3756256103515625
1772788883129063200,9.295063232421874,0.3300323486328125,0.8583984375,0.3767852783203125
1772788883149096000,9.315095947265625,0.3243255615234375,0.86846923828125,0.3773040771484375
1772788883169128200,9.335128173828124,0.318603515625,0.8675689697265625,0.3731689453125
1772788883189161000,9.355160888671875,0.324066162109375,0.861968994140625,0.3725433349609375
1772788883209193000,9.37519287109375,0.3246917724609375,0.86444091796875,0.3722076416015625
1772788883229226200,9.395226318359375,0.328094482421875,0.8616180419921875,0.3718414306640625
1772788883249258000,9.415258056640624,0.3291778564453125,0.861083984375,0.37396240234375
1772788883269291300,9.435291259765625,0.3178558349609375,0.8679351806640625,0.3742218017578125
1772788883289323000,9.455322998046874,0.319305419921875,0.866943359375,0.3756866455078125
1772788883309356300,9.475356201171875,0.3299407958984375,0.8621673583984375,0.377349853515625
1772788883329388000,9.495387939453124,0.336395263671875,0.8607330322265625,0.3732147216796875
1772788883349421000,9.515421142578125,0.33331298828125,0.8620452880859375,0.3728179931640625
1772788883369453300,9.535453369140624,0.3321533203125,0.8665924072265625,0.3752288818359375
1772788883389486000,9.555486083984375,0.3315887451171875,0.86236572265625,0.375
1772788883409518000,9.57551806640625,0.3307952880859375,0.8585968017578125,0.3740692138671875
1772788883429551000,9.595551025390625,0.32769775390625,0.8558807373046875,0.3742828369140625
1772788883449583000,9.6155830078125,0.3204193115234375,0.8644256591796875,0.38018798828125
1772788883469616000,9.6356162109375,0.3196868896484375,0.8623199462890625,0.379974365234375
1772788883489648000,9.655648193359376,0.32611083984375,0.8576202392578125,0.376373291015625
1772788883509681000,9.675680908203125,0.333526611328125,0.8520355224609375,0.3754425048828125
1772788883529713200,9.695713134765626,0.3417510986328125,0.848388671875,0.3761749267578125
1772788883549746000,9.715745849609375,0.341705322265625,0.849761962890625,0.37628173828125
1772788883569778200,9.735778076171876,0.3299102783203125,0.8566131591796875,0.3773956298828125
1772788883589811200,9.755811279296875,0.3255157470703125,0.85345458984375,0.380279541015625
1772788883609843000,9.775843017578126,0.321624755859375,0.8478546142578125,0.3860321044921875
1772788883629875200,9.795875244140625,0.315765380859375,0.8417510986328125,0.3926544189453125
1772788883649908000,9.815907958984376,0.3209381103515625,0.8403778076171875,0.3949127197265625
1772788883669940000,9.83593994140625,0.3252410888671875,0.849639892578125,0.3948822021484375
1772788883689973000,9.855972900390626,0.332275390625,0.858734130859375,0.3893890380859375
1772788883710005000,9.8760048828125,0.326812744140625,0.8656158447265625,0.3750762939453125
1772788883730038300,9.896038330078126,0.3226318359375,0.882171630859375,0.37060546875
1772788883750070000,9.916070068359375,0.3216705322265625,0.883880615234375,0.3683929443359375
1772788883770103300,9.936103271484376,0.3189239501953125,0.87945556640625,0.371337890625
1772788883790135000,9.956135009765624,0.3199310302734375,0.868621826171875,0.379852294921875
1772788883810168000,9.97616796875,0.3269195556640625,0.858978271484375,0.394683837890625
1772788883830200300,9.996200439453125,0.3306732177734375,0.8560791015625,0.4020843505859375
1772788883850233000,10.016233154296875,0.3379669189453125,0.8564910888671875,0.4085845947265625
1772788883870265000,10.03626513671875,0.3441925048828125,0.857879638671875,0.4084625244140625
1772788883890298000,10.056298095703125,0.3437042236328125,0.8649444580078125,0.403839111328125
1772788883910330000,10.076330078125,0.33966064453125,0.86962890625,0.3995819091796875
1772788883930363100,10.096363037109375,0.33502197265625,0.8727569580078125,0.399078369140625
1772788883950395100,10.11639501953125,0.3349151611328125,0.8708953857421875,0.39422607421875
1772788883970428000,10.136427978515625,0.3361968994140625,0.8699798583984375,0.39617919921875
1772788883990460000,10.1564599609375,0.3345794677734375,0.8683624267578125,0.3987579345703125
1772788884010493000,10.176492919921875,0.3307952880859375,0.8637847900390625,0.3934478759765625
1772788884030525000,10.19652490234375,0.3275604248046875,0.8735504150390625,0.3958892822265625
1772788884050558200,10.21655810546875,0.3312835693359375,0.869903564453125,0.3983917236328125
1772788884070590000,10.23658984375,0.3377685546875,0.8657379150390625,0.4036865234375
1772788884090622000,10.2566220703125,0.3399505615234375,0.8583526611328125,0.4043121337890625
1772788884110655000,10.276655029296874,0.3410491943359375,0.8594207763671875,0.4041748046875
1772788884130687000,10.29668701171875,0.338470458984375,0.856170654296875,0.4041595458984375
1772788884150720000,10.316719970703126,0.334625244140625,0.8576202392578125,0.407257080078125
1772788884170752000,10.336751953125,0.341644287109375,0.851593017578125,0.4102783203125
1772788884190785000,10.356784912109376,0.3427581787109375,0.8489990234375,0.413787841796875
1772788884210817000,10.376817138671875,0.349700927734375,0.840728759765625,0.406982421875
1772788884230850000,10.39685009765625,0.356475830078125,0.836578369140625,0.4027252197265625
1772788884250881800,10.4168818359375,0.3547515869140625,0.8416595458984375,0.3972015380859375
1772788884270915000,10.4369150390625,0.345367431640625,0.8496856689453125,0.3935699462890625
1772788884290947000,10.456947021484375,0.32421875,0.860626220703125,0.386566162109375
1772788884310980000,10.47697998046875,0.3109588623046875,0.859832763671875,0.3810577392578125
1772788884331012000,10.49701220703125,0.3089141845703125,0.8584747314453125,0.378265380859375
1772788884351045000,10.517045166015626,0.316162109375,0.8555450439453125,0.377044677734375
1772788884371077000,10.5370771484375,0.3167724609375,0.853302001953125,0.371368408203125
1772788884391110000,10.55710986328125,0.3181304931640625,0.8564453125,0.367340087890625
1772788884411142100,10.57714208984375,0.314178466796875,0.8632354736328125,0.363677978515625
1772788884431175000,10.5971748046875,0.314605712890625,0.8629608154296875,0.3625946044921875
1772788884451207000,10.61720703125,0.315826416015625,0.8600616455078125,0.3643341064453125
1772788884471240000,10.637239990234375,0.3188018798828125,0.852752685546875,0.3681640625
1772788884491272000,10.65727197265625,0.324249267578125,0.850433349609375,0.3696441650390625
1772788884511305200,10.67730517578125,0.320953369140625,0.85693359375,0.3716583251953125
1772788884531337000,10.6973369140625,0.3163909912109375,0.8609466552734375,0.3714447021484375
1772788884551370000,10.717369873046875,0.307525634765625,0.862701416015625,0.372467041015625
1772788884571402000,10.737402099609374,0.2995147705078125,0.8641815185546875,0.3719635009765625
1772788884591435000,10.75743505859375,0.2997894287109375,0.8617401123046875,0.36505126953125
1772788884611467000,10.777467041015624,0.29547119140625,0.8681793212890625,0.3552398681640625
1772788884631500000,10.7975,0.2967376708984375,0.870391845703125,0.34967041015625
1772788884651532000,10.817531982421874,0.29010009765625,0.8811187744140625,0.3436126708984375
1772788884671565000,10.83756494140625,0.29083251953125,0.8800201416015625,0.3457794189453125
1772788884691597000,10.85759716796875,0.2922210693359375,0.87750244140625,0.34869384765625
1772788884711630000,10.877630126953125,0.2858123779296875,0.877685546875,0.3528900146484375
1772788884731662000,10.897662109375,0.292724609375,0.871551513671875,0.3587646484375
1772788884751694000,10.917694091796875,0.294830322265625,0.867431640625,0.36187744140625
1772788884771727000,10.93772705078125,0.2993316650390625,0.861175537109375,0.363739013671875
1772788884791759000,10.957759033203125,0.30474853515625,0.867218017578125,0.368927001953125
1772788884811792100,10.977792236328124,0.2987823486328125,0.874664306640625,0.3692474365234375
1772788884831824100,10.99782421875,0.2972564697265625,0.87969970703125,0.365509033203125
1772788884851857000,11.01785693359375,0.2985382080078125,0.8792266845703125,0.361846923828125
1772788884871889200,11.03788916015625,0.3050994873046875,0.87469482421875,0.359466552734375
1772788884891922000,11.057921875,0.3138275146484375,0.873260498046875,0.358642578125
1772788884911954000,11.077953857421875,0.3200531005859375,0.8743438720703125,0.3639678955078125
1772788884931987000,11.097987060546876,0.320098876953125,0.875946044921875,0.3673858642578125
1772788884952019000,11.11801904296875,0.3166046142578125,0.8782196044921875,0.36846923828125
1772788884972052200,11.13805224609375,0.3164215087890625,0.876007080078125,0.3704071044921875
1772788884992084700,11.158084716796875,0.3204498291015625,0.8740692138671875,0.373199462890625
1772788885012117800,11.17811767578125,0.3170928955078125,0.873138427734375,0.3720550537109375
1772788885032149800,11.198149658203125,0.3199310302734375,0.867645263671875,0.37109375
1772788885052182800,11.218182861328126,0.3179168701171875,0.8678741455078125,0.3684234619140625
1772788885072214800,11.23821484375,0.3174591064453125,0.8687286376953125,0.366943359375
1772788885092247800,11.258247802734376,0.3089599609375,0.872894287109375,0.371673583984375
1772788885112279600,11.278279541015625,0.3046112060546875,0.87603759765625,0.37518310546875
1772788885132312800,11.298312744140626,0.300750732421875,0.8803253173828125,0.37615966796875
1772788885152344600,11.318344482421875,0.3027191162109375,0.87945556640625,0.37298583984375
1772788885172377900,11.3383779296875,0.3041839599609375,0.874267578125,0.3706512451171875
1772788885192409900,11.358409912109375,0.3050537109375,0.873291015625,0.3700103759765625
1772788885212443000,11.37844287109375,0.3071746826171875,0.86962890625,0.369720458984375
1772788885232475000,11.398474853515625,0.3087158203125,0.86932373046875,0.3681640625
1772788885252507600,11.418507568359376,0.3088226318359375,0.8677978515625,0.3666839599609375
1772788885272540000,11.438539794921875,0.310272216796875,0.867340087890625,0.370513916015625
1772788885292572700,11.45857275390625,0.3076324462890625,0.8699188232421875,0.3742218017578125
1772788885312604700,11.478604736328125,0.3088226318359375,0.8692626953125,0.377593994140625
1772788885332637700,11.4986376953125,0.307861328125,0.8723907470703125,0.377960205078125
1772788885352669700,11.518669677734374,0.306243896484375,0.87591552734375,0.3775482177734375
1772788885372702700,11.53870263671875,0.30596923828125,0.8806610107421875,0.3804473876953125
1772788885392734700,11.558734619140624,0.30560302734375,0.8853607177734375,0.38409423828125
1772788885412768000,11.57876806640625,0.3134307861328125,0.881103515625,0.3790435791015625
1772788885432799700,11.5987998046875,0.3148193359375,0.8738250732421875,0.3687896728515625
1772788885452832800,11.618832763671875,0.3155517578125,0.871551513671875,0.366363525390625
1772788885472864800,11.63886474609375,0.3106689453125,0.873382568359375,0.36785888671875
1772788885492897800,11.658897705078125,0.303863525390625,0.8723602294921875,0.369659423828125
1772788885512929800,11.6789296875,0.304656982421875,0.8680877685546875,0.368682861328125
1772788885532962800,11.698962890625,0.3070068359375,0.86370849609375,0.368377685546875
1772788885552994800,11.718994873046874,0.307281494140625,0.8613433837890625,0.37408447265625
1772788885573027800,11.73902783203125,0.312652587890625,0.8595733642578125,0.3799591064453125
1772788885593059800,11.759059814453124,0.3110504150390625,0.8600921630859375,0.3845062255859375
1772788885613091600,11.779091552734375,0.311279296875,0.8626708984375,0.3871612548828125
1772788885633124900,11.799124755859374,0.3089141845703125,0.8661346435546875,0.387298583984375
1772788885653156900,11.819156982421875,0.312042236328125,0.8647613525390625,0.384185791015625
1772788885673190000,11.83918994140625,0.3127899169921875,0.8659515380859375,0.3771209716796875
1772788885693222000,11.859221923828125,0.3154296875,0.8669586181640625,0.372161865234375
1772788885713254700,11.879254638671876,0.3115081787109375,0.8669891357421875,0.3684539794921875
1772788885733287000,11.899286865234375,0.309356689453125,0.8708343505859375,0.36846923828125
1772788885753319700,11.919319580078126,0.3037567138671875,0.876617431640625,0.3663482666015625
1772788885773351700,11.9393515625,0.295745849609375,0.876861572265625,0.362091064453125
1772788885793384700,11.959384765625,0.289520263671875,0.8822784423828125,0.373199462890625
1772788885813416700,11.979416748046875,0.291748046875,0.87738037109375,0.3812408447265625
1772788885833449000,11.999448974609376,0.2978973388671875,0.87109375,0.384735107421875
1772788885853480700,12.019480712890624,0.3045806884765625,0.86920166015625,0.381683349609375
1772788885873513700,12.039513671875,0.3095703125,0.8656768798828125,0.3767242431640625
1772788885893546000,12.0595458984375,0.3065032958984375,0.8696136474609375,0.37799072265625
1772788885913578800,12.079578857421875,0.3042449951171875,0.8690948486328125,0.376373291015625
1772788885933610800,12.09961083984375,0.305450439453125,0.8680877685546875,0.377288818359375
1772788885953643800,12.119643798828125,0.3079681396484375,0.867279052734375,0.374847412109375
1772788885973675800,12.13967578125,0.30902099609375,0.8697052001953125,0.378173828125
1772788885993708300,12.159708251953125,0.3090972900390625,0.8677978515625,0.380645751953125
1772788886013740300,12.179740234375,0.314544677734375,0.8642120361328125,0.380462646484375
1772788886033773000,12.19977294921875,0.31585693359375,0.8631134033203125,0.3815765380859375
1772788886053805300,12.219805419921874,0.311767578125,0.8644866943359375,0.3781890869140625
1772788886073838300,12.23983837890625,0.310546875,0.865966796875,0.3826751708984375
1772788886093870000,12.2598701171875,0.3123321533203125,0.8670806884765625,0.3808135986328125
1772788886113903400,12.2799033203125,0.308441162109375,0.870574951171875,0.379150390625
1772788886133935000,12.29993505859375,0.309295654296875,0.8692169189453125,0.38043212890625
1772788886153968400,12.319968505859375,0.31005859375,0.8698883056640625,0.3815460205078125
1772788886174000400,12.34000048828125,0.3080596923828125,0.868255615234375,0.379425048828125
1772788886194033400,12.360033447265625,0.311370849609375,0.865875244140625,0.3779754638671875
1772788886214065400,12.3800654296875,0.3062744140625,0.8690338134765625,0.3760833740234375
1772788886234098200,12.40009814453125,0.3023681640625,0.86944580078125,0.3772735595703125
1772788886254131200,12.420131103515626,0.3036651611328125,0.8712615966796875,0.3791656494140625
1772788886274164200,12.440164306640625,0.3048553466796875,0.870452880859375,0.3820037841796875
1772788886294196500,12.460196533203124,0.308685302734375,0.870025634765625,0.3841552734375
1772788886314229200,12.480229248046875,0.311676025390625,0.8675384521484375,0.3841400146484375
1772788886334261200,12.50026123046875,0.31158447265625,0.86865234375,0.384674072265625
1772788886354294300,12.520294189453125,0.311370849609375,0.8683624267578125,0.38616943359375
1772788886374326300,12.540326171875,0.31121826171875,0.8682861328125,0.38482666015625
1772788886394359300,12.560359375,0.3163909912109375,0.8675079345703125,0.38018798828125
1772788886414391300,12.580391357421876,0.3032073974609375,0.8731842041015625,0.3782501220703125
1772788886434424000,12.600424072265625,0.3057708740234375,0.87078857421875,0.3777618408203125
1772788886454456300,12.620456298828126,0.309417724609375,0.866912841796875,0.3776397705078125
1772788886474489000,12.640489013671875,0.30987548828125,0.869537353515625,0.3782806396484375
1772788886494521300,12.660521240234376,0.3049468994140625,0.8712158203125,0.378448486328125
1772788886514554400,12.680554443359375,0.304595947265625,0.868011474609375,0.3836669921875
1772788886534586000,12.700586181640626,0.3087615966796875,0.8640289306640625,0.38568115234375
1772788886554619400,12.720619384765625,0.3107757568359375,0.864471435546875,0.3867645263671875
1772788886574651100,12.740651123046876,0.308319091796875,0.8672027587890625,0.3869171142578125
1772788886594684400,12.760684326171875,0.30810546875,0.8654327392578125,0.384185791015625
1772788886614716400,12.78071630859375,0.3083648681640625,0.86663818359375,0.382232666015625
1772788886634749200,12.800749267578125,0.3083648681640625,0.8688812255859375,0.3796539306640625
1772788886654781400,12.820781494140626,0.3063812255859375,0.8695526123046875,0.379486083984375
1772788886674814200,12.840814208984375,0.308837890625,0.8705902099609375,0.378387451171875
1772788886694846200,12.86084619140625,0.307159423828125,0.87091064453125,0.377197265625
1772788886714879200,12.880879150390625,0.305023193359375,0.87030029296875,0.3811798095703125
1772788886734911200,12.9009111328125,0.302093505859375,0.86920166015625,0.383880615234375
1772788886754944300,12.9209443359375,0.3033447265625,0.867095947265625,0.3833160400390625
1772788886774976300,12.940976318359375,0.3030242919921875,0.8695831298828125,0.386199951171875
1772788886795009300,12.96100927734375,0.3091583251953125,0.86407470703125,0.385467529296875
1772788886815041300,12.981041259765625,0.3062286376953125,0.86956787109375,0.382080078125
1772788886835074300,13.00107421875,0.3069305419921875,0.8677215576171875,0.379364013671875
1772788886855106300,13.021106201171875,0.30792236328125,0.867218017578125,0.3802490234375
1772788886875139300,13.041139404296874,0.3074188232421875,0.8664093017578125,0.3831024169921875
1772788886895171000,13.061171142578125,0.3037109375,0.867950439453125,0.3831787109375
1772788886915204400,13.081204345703124,0.30126953125,0.8691253662109375,0.3808441162109375
1772788886935236000,13.101236083984375,0.30499267578125,0.8653411865234375,0.3798980712890625
1772788886955269400,13.121269287109374,0.309722900390625,0.863739013671875,0.3807830810546875
1772788886975301400,13.14130126953125,0.3094635009765625,0.86602783203125,0.3828125
1772788886995334700,13.161334716796874,0.30438232421875,0.8696441650390625,0.3848724365234375
1772788887015366700,13.18136669921875,0.30462646484375,0.87274169921875,0.3878021240234375
1772788887035399400,13.2013994140625,0.3046875,0.871673583984375,0.386383056640625
1772788887055431700,13.221431640625,0.30865478515625,0.86871337890625,0.38800048828125
1772788887075464400,13.24146435546875,0.3080291748046875,0.8651885986328125,0.3867950439453125
1772788887095496400,13.261496337890625,0.30615234375,0.86322021484375,0.3829498291015625
1772788887115529500,13.281529541015624,0.3050994873046875,0.8676910400390625,0.3807525634765625
1772788887135561500,13.3015615234375,0.3050537109375,0.868743896484375,0.3770294189453125
1772788887155594500,13.321594482421874,0.3028106689453125,0.8717041015625,0.378387451171875
1772788887175626500,13.34162646484375,0.2983856201171875,0.8712921142578125,0.380401611328125
1772788887195659500,13.361659423828126,0.2983551025390625,0.867156982421875,0.3836212158203125
1772788887215691500,13.38169140625,0.299163818359375,0.8658599853515625,0.38726806640625
1772788887235724500,13.401724609375,0.2995452880859375,0.8664398193359375,0.3889312744140625
1772788887255756500,13.421756591796875,0.3003387451171875,0.864166259765625,0.388336181640625
1772788887275789600,13.44178955078125,0.2981109619140625,0.865966796875,0.386260986328125
1772788887295821300,13.4618212890625,0.29974365234375,0.8674774169921875,0.3841705322265625
1772788887315854600,13.4818544921875,0.3024139404296875,0.869903564453125,0.382720947265625
1772788887335886600,13.501886474609375,0.30108642578125,0.87158203125,0.3802337646484375
1772788887355919600,13.521919677734376,0.2977142333984375,0.8732147216796875,0.384429931640625
1772788887375951600,13.54195166015625,0.2982940673828125,0.8746490478515625,0.3861541748046875
1772788887395984400,13.561984375,0.29754638671875,0.8717041015625,0.3860931396484375
1772788887416016600,13.5820166015625,0.3030548095703125,0.866790771484375,0.3851776123046875
1772788887436049400,13.60204931640625,0.3109893798828125,0.8654632568359375,0.3834075927734375
1772788887456081700,13.62208154296875,0.3000335693359375,0.86578369140625,0.3891143798828125
1772788887476114400,13.642114501953126,0.3038482666015625,0.867401123046875,0.387298583984375
1772788887496146400,13.662146484375,0.30023193359375,0.864288330078125,0.3881683349609375
1772788887516179500,13.682179443359376,0.3019561767578125,0.8636932373046875,0.3919219970703125
1772788887536211500,13.70221142578125,0.3046417236328125,0.8628387451171875,0.3917083740234375
1772788887556243500,13.722243408203125,0.3051910400390625,0.8603363037109375,0.3913116455078125
1772788887576276500,13.7422763671875,0.302947998046875,0.8633575439453125,0.390289306640625
1772788887596308500,13.76230859375,0.2977294921875,0.8670196533203125,0.3853912353515625
1772788887616341500,13.782341552734374,0.2998199462890625,0.86383056640625,0.3839569091796875
1772788887636373500,13.80237353515625,0.30670166015625,0.8600921630859375,0.387176513671875
1772788887656406500,13.822406494140624,0.312896728515625,0.8611297607421875,0.3884429931640625
1772788887676438500,13.8424384765625,0.3103179931640625,0.8655853271484375,0.392120361328125
1772788887696471600,13.862471435546874,0.3005828857421875,0.8719329833984375,0.3945465087890625
1772788887716503600,13.882503662109375,0.2980194091796875,0.87237548828125,0.39312744140625
1772788887736536600,13.90253662109375,0.2976837158203125,0.8682861328125,0.3898773193359375
1772788887756568300,13.922568359375,0.298126220703125,0.865997314453125,0.3885498046875
1772788887776601600,13.9426015625,0.301300048828125,0.8647613525390625,0.3878173828125
1772788887796633600,13.962633544921875,0.30352783203125,0.86737060546875,0.3874664306640625
1772788887816666600,13.98266650390625,0.3000030517578125,0.87078857421875,0.387298583984375
1772788887836698600,14.00269873046875,0.2961273193359375,0.8690338134765625,0.3887939453125
1772788887856731400,14.0227314453125,0.290985107421875,0.87054443359375,0.3923797607421875
1772788887876763600,14.042763671875,0.2957305908203125,0.8658294677734375,0.3950958251953125
1772788887896796400,14.06279638671875,0.3017120361328125,0.8615875244140625,0.3949127197265625
1772788887916828700,14.08282861328125,0.3048248291015625,0.86163330078125,0.3940582275390625
1772788887936861400,14.102861328125,0.2977294921875,0.868438720703125,0.3945465087890625
1772788887956893400,14.1228935546875,0.2983551025390625,0.869049072265625,0.392578125
1772788887976926500,14.142926513671876,0.301605224609375,0.8673858642578125,0.3903656005859375
1772788887996958500,14.16295849609375,0.3006134033203125,0.8691864013671875,0.3884124755859375
1772788888016991500,14.182991455078126,0.3010711669921875,0.867523193359375,0.3910980224609375
1772788888037023500,14.2030234375,0.30035400390625,0.865936279296875,0.3925933837890625
1772788888057056500,14.223056396484376,0.3029327392578125,0.8653411865234375,0.39166259765625
1772788888077088500,14.243088623046875,0.3035430908203125,0.864898681640625,0.3917236328125
1772788888097121500,14.26312158203125,0.299041748046875,0.866424560546875,0.3942108154296875
1772788888117153300,14.2831533203125,0.3021087646484375,0.865020751953125,0.3967132568359375
1772788888137186600,14.3031865234375,0.2997283935546875,0.8645782470703125,0.3939666748046875
1772788888157218600,14.323218505859375,0.3016510009765625,0.8653106689453125,0.39385986328125
1772788888177251600,14.34325146484375,0.2988739013671875,0.869110107421875,0.39654541015625
1772788888197283600,14.36328369140625,0.2942657470703125,0.87213134765625,0.39398193359375
1772788888217316400,14.38331640625,0.2947235107421875,0.867156982421875,0.390045166015625
1772788888237348600,14.4033486328125,0.2989044189453125,0.8629608154296875,0.3878936767578125
1772788888257381400,14.42338134765625,0.300384521484375,0.860443115234375,0.3871917724609375
1772788888277414700,14.44341455078125,0.2974395751953125,0.8612823486328125,0.38873291015625
1772788888297446400,14.4634462890625,0.2939300537109375,0.8683929443359375,0.3923187255859375
1772788888317478400,14.483478515625,0.29290771484375,0.8689117431640625,0.3928680419921875
1772788888337511400,14.503511474609375,0.290252685546875,0.8737640380859375,0.3950042724609375
1772788888357544400,14.52354443359375,0.290802001953125,0.870819091796875,0.3917388916015625
1772788888377576700,14.54357666015625,0.2943267822265625,0.8662109375,0.392547607421875
1772788888397608400,14.5636083984375,0.29559326171875,0.864715576171875,0.3916778564453125
1772788888417641500,14.583641357421875,0.289703369140625,0.8699951171875,0.390411376953125
1772788888437674500,14.603674560546875,0.29168701171875,0.870025634765625,0.3885345458984375
1772788888457706500,14.62370654296875,0.2920989990234375,0.8685760498046875,0.3895263671875
1772788888477738500,14.643738525390624,0.293304443359375,0.8733062744140625,0.38861083984375
1772788888497771500,14.663771484375,0.287261962890625,0.874298095703125,0.3896636962890625
1772788888517804300,14.68380419921875,0.2917938232421875,0.866546630859375,0.39215087890625
1772788888537836500,14.70383642578125,0.297393798828125,0.8650665283203125,0.3952484130859375
1772788888557869300,14.723869384765624,0.2989044189453125,0.866119384765625,0.3956756591796875
1772788888577901300,14.7439013671875,0.2988433837890625,0.8679351806640625,0.3948822021484375
1772788888597934600,14.7639345703125,0.301025390625,0.864593505859375,0.39361572265625
1772788888617966300,14.78396630859375,0.3023529052734375,0.8648681640625,0.39208984375
1772788888637999600,14.80399951171875,0.303131103515625,0.8647308349609375,0.391448974609375
1772788888658031400,14.82403125,0.302459716796875,0.867218017578125,0.3907928466796875
1772788888678064600,14.844064697265624,0.3009796142578125,0.865264892578125,0.3928985595703125
1772788888698096600,14.8640966796875,0.302337646484375,0.862945556640625,0.39544677734375
1772788888718129400,14.88412939453125,0.3037261962890625,0.859619140625,0.394256591796875
1772788888738161700,14.90416162109375,0.30657958984375,0.86181640625,0.3923187255859375
1772788888758194400,14.9241943359375,0.3065948486328125,0.8618011474609375,0.39544677734375
1772788888778226400,14.944226318359375,0.30596923828125,0.863922119140625,0.395660400390625
1772788888798259500,14.964259521484376,0.30126953125,0.8651885986328125,0.3901824951171875
1772788888818291500,14.98429150390625,0.299163818359375,0.8682098388671875,0.39215087890625
1772788888838324500,15.004324462890626,0.298187255859375,0.8673095703125,0.3927001953125
1772788888858356500,15.0243564453125,0.3003387451171875,0.863555908203125,0.3927459716796875
1772788888878389200,15.04438916015625,0.30224609375,0.8616485595703125,0.3897247314453125
1772788888898421500,15.06442138671875,0.3004302978515625,0.8623046875,0.38909912109375
1772788888918454500,15.08445458984375,0.3025054931640625,0.8622283935546875,0.390106201171875
1772788888938486500,15.104486572265625,0.3060760498046875,0.8603057861328125,0.3943939208984375
1772788888958519600,15.12451953125,0.310089111328125,0.860260009765625,0.3969573974609375
1772788888978551300,15.14455126953125,0.299591064453125,0.8704376220703125,0.3958587646484375
1772788888998584300,15.164584228515626,0.2955322265625,0.87384033203125,0.394012451171875
1772788889018616300,15.1846162109375,0.2957305908203125,0.867645263671875,0.395111083984375
1772788889038649300,15.2046494140625,0.305999755859375,0.8631744384765625,0.395263671875
1772788889058681300,15.224681396484375,0.30804443359375,0.8603515625,0.39239501953125
1772788889078714000,15.244714111328125,0.3076019287109375,0.862030029296875,0.3916015625
1772788889098746400,15.264746337890625,0.3021392822265625,0.8671875,0.3913726806640625
1772788889118779100,15.284779052734375,0.3014373779296875,0.8690948486328125,0.391326904296875
1772788889138811100,15.30481103515625,0.3015594482421875,0.8672637939453125,0.3917236328125
1772788889158844200,15.32484423828125,0.30560302734375,0.8648834228515625,0.3940582275390625
1772788889178876200,15.344876220703124,0.3085784912109375,0.8606414794921875,0.3923492431640625
1772788889198909200,15.3649091796875,0.3121795654296875,0.85760498046875,0.394256591796875
1772788889218941200,15.384941162109374,0.3116302490234375,0.85919189453125,0.395599365234375
1772788889238974200,15.40497412109375,0.3066253662109375,0.8628997802734375,0.394073486328125
1772788889259006200,15.425006103515624,0.3068389892578125,0.8649139404296875,0.394622802734375
1772788889279039200,15.445039306640625,0.3060760498046875,0.8622894287109375,0.3915557861328125
1772788889299071200,15.4650712890625,0.3085174560546875,0.8610992431640625,0.3903961181640625
1772788889319104300,15.485104248046875,0.3058013916015625,0.8634796142578125,0.392669677734375
1772788889339136000,15.505135986328124,0.300445556640625,0.8670501708984375,0.395904541015625
1772788889359169300,15.525169189453125,0.29791259765625,0.8666534423828125,0.3950347900390625
1772788889379201300,15.545201171875,0.3011474609375,0.8632049560546875,0.3922271728515625
1772788889399234300,15.565234375,0.3002166748046875,0.863861083984375,0.391815185546875
1772788889419266300,15.585266357421874,0.30059814453125,0.8672943115234375,0.3909912109375
1772788889439299300,15.60529931640625,0.3036346435546875,0.867218017578125,0.3887786865234375
1772788889459331300,15.625331298828126,0.3040618896484375,0.8668060302734375,0.388092041015625
1772788889479364000,15.645364013671875,0.3071441650390625,0.8656005859375,0.388763427734375
1772788889499396400,15.665396240234376,0.3064117431640625,0.86480712890625,0.39300537109375
1772788889519429000,15.68542919921875,0.309722900390625,0.8615264892578125,0.3936309814453125
1772788889539461000,15.705461181640626,0.3145904541015625,0.8586273193359375,0.3917236328125
1772788889559494100,15.725494140625,0.316497802734375,0.856903076171875,0.3919830322265625
1772788889579526100,15.745526123046876,0.315155029296875,0.8577423095703125,0.3942108154296875
1772788889599559400,15.765559326171875,0.3125762939453125,0.8640594482421875,0.395660400390625
1772788889619591200,15.785591064453126,0.3127288818359375,0.8661651611328125,0.3944244384765625
1772788889639624200,15.805624267578125,0.3099517822265625,0.8667449951171875,0.3941802978515625
1772788889659656200,15.82565625,0.3121795654296875,0.8621826171875,0.3979949951171875
1772788889679689200,15.845689208984375,0.315704345703125,0.8584442138671875,0.3977508544921875
1772788889699721200,15.86572119140625,0.3138580322265625,0.8614959716796875,0.3952484130859375
1772788889719754200,15.885754150390625,0.3108978271484375,0.8583831787109375,0.3935089111328125
1772788889739786200,15.9057861328125,0.3052825927734375,0.8629608154296875,0.3927001953125
1772788889759819300,15.9258193359375,0.3018646240234375,0.8644866943359375,0.3890838623046875
1772788889779851300,15.945851318359376,0.299530029296875,0.8669586181640625,0.3874664306640625
1772788889799884300,15.96588427734375,0.3007659912109375,0.865081787109375,0.38690185546875
1772788889819916300,15.985916259765625,0.300872802734375,0.8655548095703125,0.3877716064453125
1772788889839948300,16.0059482421875,0.3034210205078125,0.8644561767578125,0.390045166015625
1772788889859980300,16.025980224609373,0.3039703369140625,0.8626251220703125,0.393035888671875
1772788889880013300,16.046013427734376,0.30657958984375,0.860931396484375,0.3937225341796875
1772788889900045000,16.066045166015623,0.3018646240234375,0.8660430908203125,0.3934478759765625
1772788889920078300,16.086078369140626,0.30548095703125,0.863433837890625,0.3917694091796875
1772788889940110000,16.106110107421873,0.3118133544921875,0.862213134765625,0.3889923095703125
1772788889960143400,16.126143310546876,0.3094024658203125,0.8664093017578125,0.388946533203125
1772788889980175400,16.14617529296875,0.3090667724609375,0.864990234375,0.3912353515625
1772788890000207600,16.16620751953125,0.3102569580078125,0.8627777099609375,0.392913818359375
1772788890020240000,16.186239990234377,0.315338134765625,0.8572998046875,0.3940582275390625
1772788890040272600,16.206272705078124,0.3138885498046875,0.85931396484375,0.3935699462890625
1772788890060304600,16.2263046875,0.31304931640625,0.8580780029296875,0.3957366943359375
1772788890080337700,16.246337646484374,0.3096923828125,0.8574676513671875,0.395721435546875
1772788890100370700,16.26637060546875,0.308807373046875,0.8588409423828125,0.394134521484375
1772788890120402700,16.286402587890624,0.3093719482421875,0.863739013671875,0.39276123046875
1772788890140435700,16.306435791015623,0.3104248046875,0.8654632568359375,0.3936920166015625
1772788890160467700,16.3264677734375,0.3101043701171875,0.8626861572265625,0.39373779296875
1772788890180500700,16.346500732421877,0.308349609375,0.8625640869140625,0.3904571533203125
1772788890200532700,16.36653271484375,0.307586669921875,0.863128662109375,0.38909912109375
1772788890220565800,16.386565673828127,0.311065673828125,0.8605804443359375,0.38720703125
1772788890240597800,16.40659765625,0.3135528564453125,0.8604736328125,0.3897857666015625
1772788890260631800,16.4266318359375,0.3099212646484375,0.86474609375,0.3902435302734375
1772788890280663800,16.446663818359376,0.308868408203125,0.864105224609375,0.3927154541015625
1772788890300696600,16.466696533203127,0.3063507080078125,0.863616943359375,0.3939361572265625
1772788890320728800,16.486728759765626,0.30853271484375,0.862213134765625,0.393218994140625
1772788890340761600,16.50676171875,0.3077850341796875,0.8629150390625,0.39501953125
1772788890360793900,16.5267939453125,0.3070068359375,0.860565185546875,0.3958892822265625
1772788890380826600,16.54682666015625,0.3052825927734375,0.8626861572265625,0.3939971923828125
1772788890400858600,16.566858642578126,0.3070526123046875,0.8640899658203125,0.38922119140625
1772788890420891600,16.5868916015625,0.3093719482421875,0.8639678955078125,0.3879547119140625
1772788890440923600,16.606923583984376,0.3108978271484375,0.8615875244140625,0.388153076171875
1772788890460957000,16.62695703125,0.312591552734375,0.8603515625,0.3897705078125
1772788890480988700,16.64698876953125,0.3104095458984375,0.8619384765625,0.394378662109375
1772788890501021700,16.667021728515625,0.3103790283203125,0.8610992431640625,0.396759033203125
1772788890521053700,16.6870537109375,0.3116455078125,0.8569793701171875,0.3973388671875
1772788890541086700,16.707086669921875,0.3112945556640625,0.8574371337890625,0.395965576171875
1772788890561118700,16.72711865234375,0.31134033203125,0.8587188720703125,0.39263916015625
1772788890581151700,16.74715185546875,0.3116302490234375,0.860443115234375,0.3923797607421875
1772788890601183700,16.767183837890624,0.3121185302734375,0.8615875244140625,0.3911590576171875
1772788890621216800,16.787216796875,0.3110198974609375,0.8621368408203125,0.3919219970703125
1772788890641248800,16.807248779296874,0.309051513671875,0.860504150390625,0.3906402587890625
1772788890661281800,16.82728173828125,0.3087921142578125,0.861328125,0.391754150390625
1772788890681313800,16.847313720703124,0.308349609375,0.8622589111328125,0.3932952880859375
1772788890701346600,16.8673466796875,0.309326171875,0.861175537109375,0.3932647705078125
1772788890721378800,16.88737890625,0.3082122802734375,0.861541748046875,0.3921356201171875
1772788890741411600,16.90741162109375,0.307037353515625,0.861358642578125,0.3908538818359375
1772788890761443600,16.927443603515623,0.30224609375,0.867645263671875,0.3933868408203125
1772788890781476900,16.947476806640626,0.302276611328125,0.8646697998046875,0.3993072509765625
1772788890801509600,16.967509521484374,0.3060455322265625,0.863555908203125,0.3926544189453125
1772788890821542000,16.9875419921875,0.3058319091796875,0.8670654296875,0.388153076171875
1772788890841574700,17.00757470703125,0.3051605224609375,0.8659210205078125,0.3874359130859375
1772788890861607000,17.02760693359375,0.30523681640625,0.860870361328125,0.39031982421875
1772788890881639700,17.0476396484375,0.306915283203125,0.8606414794921875,0.39178466796875
1772788890901671700,17.067671630859376,0.303009033203125,0.8641357421875,0.392120361328125
1772788890921704700,17.08770458984375,0.303009033203125,0.8667755126953125,0.3953857421875
1772788890941736700,17.10773681640625,0.3098907470703125,0.8606109619140625,0.3945770263671875
1772788890961769700,17.127769775390625,0.31585693359375,0.86322021484375,0.398681640625
1772788890981802500,17.147802490234376,0.30731201171875,0.86053466796875,0.39556884765625
1772788891001835500,17.16783544921875,0.3047027587890625,0.861907958984375,0.39581298828125
1772788891021867500,17.187867431640626,0.298797607421875,0.8669281005859375,0.3934173583984375
1772788891041900300,17.207900390625,0.299041748046875,0.8685455322265625,0.39068603515625
1772788891061932500,17.2279326171875,0.302764892578125,0.8652801513671875,0.389892578125
1772788891081965600,17.247965576171875,0.3075408935546875,0.8632965087890625,0.3905181884765625
1772788891101997300,17.267997314453126,0.3069610595703125,0.86334228515625,0.3937835693359375
1772788891122030600,17.288030517578125,0.302398681640625,0.8636322021484375,0.3987884521484375
1772788891142062300,17.308062255859376,0.302001953125,0.8617706298828125,0.3975372314453125
1772788891162095600,17.328095703125,0.30718994140625,0.8604278564453125,0.39715576171875
1772788891182127400,17.34812744140625,0.310516357421875,0.859405517578125,0.3962554931640625
1772788891202160400,17.368160400390625,0.3091278076171875,0.8602294921875,0.3970184326171875
1772788891222192600,17.388192626953124,0.3051605224609375,0.8626861572265625,0.395843505859375
1772788891242225400,17.408225341796875,0.303619384765625,0.863494873046875,0.3950042724609375
1772788891262257700,17.428257568359374,0.3030548095703125,0.862701416015625,0.39581298828125
1772788891282290400,17.44829052734375,0.3065948486328125,0.8599700927734375,0.395965576171875
1772788891302322400,17.468322509765624,0.3031005859375,0.8624267578125,0.3974761962890625
1772788891322355500,17.48835546875,0.3061981201171875,0.86199951171875,0.3981781005859375
1772788891342387500,17.508387451171874,0.304840087890625,0.862060546875,0.3965911865234375
1772788891362420500,17.52842041015625,0.3036651611328125,0.86138916015625,0.3968048095703125
1772788891382452500,17.548452392578124,0.2984771728515625,0.867279052734375,0.399261474609375
1772788891402485200,17.5684853515625,0.2977142333984375,0.8642120361328125,0.3995819091796875
1772788891422517500,17.588517578125,0.302093505859375,0.862060546875,0.397857666015625
1772788891442550500,17.608550537109377,0.30303955078125,0.8607330322265625,0.391571044921875
1772788891462582500,17.62858251953125,0.304534912109375,0.860809326171875,0.3910369873046875
1772788891482615600,17.648615478515627,0.304595947265625,0.8611907958984375,0.3932037353515625
1772788891502648600,17.668648681640626,0.299346923828125,0.86602783203125,0.3987274169921875
1772788891522680600,17.6886806640625,0.3028717041015625,0.86279296875,0.4013214111328125
1772788891542713300,17.70871337890625,0.3060302734375,0.8587646484375,0.4033355712890625
1772788891562745600,17.72874560546875,0.3112030029296875,0.8562774658203125,0.4019775390625
1772788891582778400,17.7487783203125,0.3092193603515625,0.860076904296875,0.4014739990234375
1772788891602810400,17.768810302734376,0.30120849609375,0.8646240234375,0.4004669189453125
1772788891622843400,17.788843505859376,0.3014068603515625,0.864166259765625,0.3992919921875
1772788891642875400,17.80887548828125,0.3084716796875,0.8621368408203125,0.3958740234375
1772788891662908700,17.82890869140625,0.3097076416015625,0.8619232177734375,0.395416259765625
1772788891682940400,17.8489404296875,0.308807373046875,0.8609466552734375,0.39630126953125
1772788891702973400,17.868973388671876,0.3051300048828125,0.86126708984375,0.39697265625
1772788891723005400,17.88900537109375,0.3050689697265625,0.860107421875,0.398956298828125
1772788891743038500,17.90903857421875,0.3055877685546875,0.8592529296875,0.39959716796875
1772788891763070500,17.929070556640625,0.3061676025390625,0.8594512939453125,0.4017333984375
1772788891783103500,17.949103515625,0.3067169189453125,0.8586578369140625,0.4030914306640625
1772788891803135500,17.969135498046874,0.3039093017578125,0.8603057861328125,0.4024658203125
1772788891823168500,17.98916845703125,0.306671142578125,0.858001708984375,0.4007568359375
1772788891843200500,18.009200439453124,0.3070831298828125,0.861236572265625,0.399658203125
1772788891863233500,18.029233642578124,0.3060302734375,0.861724853515625,0.3970184326171875
1772788891883265500,18.049265625,0.30316162109375,0.86175537109375,0.3985748291015625
1772788891903298300,18.06929833984375,0.30377197265625,0.8615875244140625,0.400787353515625
1772788891923330600,18.08933056640625,0.30328369140625,0.861297607421875,0.3982696533203125
1772788891943363300,18.10936328125,0.303924560546875,0.86175537109375,0.399658203125
1772788891963395600,18.1293955078125,0.306182861328125,0.861419677734375,0.398101806640625
1772788891983428400,18.149428466796873,0.3056488037109375,0.860748291015625,0.39630126953125
1772788892003460000,18.169460205078124,0.3074188232421875,0.859405517578125,0.399383544921875
1772788892023493400,18.189493408203123,0.3083953857421875,0.8597564697265625,0.4022979736328125
1772788892043525000,18.209525146484374,0.305511474609375,0.862060546875,0.4017486572265625
1772788892063558400,18.229558349609373,0.3055572509765625,0.8601837158203125,0.3997344970703125
1772788892083590100,18.249590087890624,0.3079833984375,0.8578033447265625,0.397857666015625
1772788892103623200,18.269623046875,0.3111572265625,0.857452392578125,0.39813232421875
1772788892123655400,18.289655517578126,0.3123016357421875,0.8570404052734375,0.3978271484375
1772788892143688200,18.309688232421873,0.3107147216796875,0.86175537109375,0.400634765625
1772788892163721200,18.32972119140625,0.30865478515625,0.863311767578125,0.401214599609375
1772788892183753200,18.349753173828127,0.3117218017578125,0.8602294921875,0.4008636474609375
1772788892203786500,18.369786376953126,0.314544677734375,0.856781005859375,0.399322509765625
1772788892223818200,18.389818359375,0.3144073486328125,0.85931396484375,0.3983612060546875
1772788892243851300,18.409851318359376,0.30828857421875,0.8612060546875,0.39794921875
1772788892263883300,18.42988330078125,0.3056640625,0.861297607421875,0.3968658447265625
1772788892283916300,18.449916259765626,0.304351806640625,0.8640899658203125,0.3975372314453125
1772788892303948300,18.4699482421875,0.30560302734375,0.8628387451171875,0.3961029052734375
1772788892323981300,18.489981201171876,0.3076019287109375,0.8587646484375,0.3979949951171875
1772788892344013300,18.510013427734375,0.307159423828125,0.857818603515625,0.3989105224609375
1772788892364046300,18.53004638671875,0.307464599609375,0.857269287109375,0.4003143310546875
1772788892384078300,18.550078369140625,0.307861328125,0.8609771728515625,0.4009857177734375
1772788892404111400,18.570111328125,0.3081817626953125,0.861663818359375,0.3990631103515625
1772788892424143400,18.590143310546875,0.3099365234375,0.8585662841796875,0.39825439453125
1772788892444176100,18.610176025390626,0.3132476806640625,0.8566741943359375,0.3972625732421875
1772788892464208400,18.63020849609375,0.313690185546875,0.85772705078125,0.396331787109375
1772788892484241200,18.6502412109375,0.3129730224609375,0.860504150390625,0.395721435546875
1772788892504273200,18.670273193359375,0.3112640380859375,0.8608856201171875,0.3986358642578125
1772788892524306200,18.69030615234375,0.3086700439453125,0.859161376953125,0.400787353515625
1772788892544338200,18.710338134765625,0.3130035400390625,0.8541412353515625,0.4016265869140625
1772788892564371500,18.730371337890624,0.31683349609375,0.85321044921875,0.399627685546875
1772788892584403200,18.7504033203125,0.3170928955078125,0.856964111328125,0.400543212890625
1772788892604436200,18.770436279296874,0.3140411376953125,0.85809326171875,0.400054931640625
1772788892624468200,18.79046826171875,0.310760498046875,0.8583526611328125,0.397430419921875
1772788892644501200,18.810501220703124,0.3109283447265625,0.85870361328125,0.3982086181640625
1772788892664533500,18.830533447265626,0.31182861328125,0.863800048828125,0.39849853515625
1772788892684566300,18.850566162109374,0.3095703125,0.8646697998046875,0.397491455078125
1772788892704598300,18.870598388671876,0.3115081787109375,0.861114501953125,0.3977813720703125
1772788892724631300,18.89063134765625,0.3134002685546875,0.85931396484375,0.39361572265625
1772788892744664300,18.910664306640626,0.313385009765625,0.858642578125,0.3902587890625
1772788892764696300,18.9306962890625,0.3129425048828125,0.8610382080078125,0.3906097412109375
1772788892784729300,18.950729248046876,0.310516357421875,0.8647918701171875,0.3922576904296875
1772788892804761000,18.970760986328123,0.3123321533203125,0.863677978515625,0.3929290771484375
1772788892824794400,18.99079443359375,0.316986083984375,0.8622283935546875,0.3970794677734375
1772788892844826000,19.010826171875,0.314178466796875,0.8611907958984375,0.39898681640625
1772788892864859400,19.030859375,0.309814453125,0.8607940673828125,0.4000701904296875
1772788892884891400,19.050891357421875,0.3072052001953125,0.85784912109375,0.3997039794921875
1772788892904924200,19.070924072265626,0.3097686767578125,0.855316162109375,0.3973388671875
1772788892924956400,19.090956298828125,0.31243896484375,0.8578643798828125,0.3949127197265625
1772788892944989200,19.1109892578125,0.311920166015625,0.8626861572265625,0.3924102783203125
1772788892965021400,19.131021484375,0.3109283447265625,0.86285400390625,0.39202880859375
1772788892985054000,19.151053955078126,0.3092803955078125,0.8633880615234375,0.3921051025390625
1772788893005086000,19.1710859375,0.31378173828125,0.8582000732421875,0.3959197998046875
1772788893025119000,19.191118896484376,0.318023681640625,0.8554840087890625,0.3985595703125
1772788893045151000,19.21115087890625,0.3217620849609375,0.8549652099609375,0.3992919921875
1772788893065184000,19.23118408203125,0.3201446533203125,0.8555908203125,0.39849853515625
1772788893085216000,19.251216064453125,0.3178253173828125,0.8564300537109375,0.396148681640625
1772788893105249000,19.2712490234375,0.31634521484375,0.857635498046875,0.3952484130859375
1772788893125281000,19.291281005859375,0.314666748046875,0.86126708984375,0.395172119140625
1772788893145314000,19.31131396484375,0.31353759765625,0.8596038818359375,0.395843505859375
1772788893165345800,19.331345703125,0.314483642578125,0.8554840087890625,0.3977508544921875
1772788893185379000,19.351379150390624,0.3155364990234375,0.854156494140625,0.39935302734375
1772788893205411800,19.371411865234375,0.3166961669921875,0.8553619384765625,0.3955841064453125
1772788893225444000,19.391444091796874,0.3130645751953125,0.858154296875,0.396240234375
1772788893245476900,19.411476806640625,0.3108978271484375,0.8583221435546875,0.3946990966796875
1772788893265508900,19.4315087890625,0.309844970703125,0.85968017578125,0.3929443359375
1772788893285542000,19.4515419921875,0.31304931640625,0.8586578369140625,0.394866943359375
1772788893305574000,19.471573974609374,0.3133392333984375,0.8628082275390625,0.3978271484375
1772788893325607200,19.491607177734377,0.313201904296875,0.85894775390625,0.3993988037109375
1772788893345639000,19.511638916015624,0.3134002685546875,0.857086181640625,0.3985595703125
1772788893365672000,19.531671875,0.316162109375,0.8563995361328125,0.3948974609375
1772788893385704000,19.551703857421874,0.316131591796875,0.8570709228515625,0.3946685791015625
1772788893405737000,19.571737060546877,0.311798095703125,0.860198974609375,0.3943023681640625
1772788893425769200,19.591769287109376,0.3089752197265625,0.86297607421875,0.3946533203125
1772788893445802000,19.611802001953127,0.307220458984375,0.8638763427734375,0.3942413330078125
1772788893465834000,19.631833984375,0.313873291015625,0.860137939453125,0.3921661376953125
1772788893485867000,19.651866943359376,0.3168792724609375,0.8580474853515625,0.393035888671875
1772788893505899000,19.67189892578125,0.3124542236328125,0.8601531982421875,0.3975372314453125
1772788893525932000,19.69193212890625,0.307708740234375,0.8596038818359375,0.399810791015625
1772788893545964000,19.711964111328125,0.305572509765625,0.8614654541015625,0.39715576171875
1772788893565996800,19.731996826171876,0.3115386962890625,0.860595703125,0.3927459716796875
1772788893586029000,19.752029052734375,0.315582275390625,0.8635711669921875,0.390289306640625
1772788893606061800,19.772061767578126,0.3131866455078125,0.8618927001953125,0.3911895751953125
1772788893626093800,19.79209375,0.310882568359375,0.861602783203125,0.392913818359375
1772788893646127000,19.812127197265625,0.3078155517578125,0.862640380859375,0.3957977294921875
1772788893666159900,19.832159912109375,0.30767822265625,0.859222412109375,0.399200439453125
1772788893686192000,19.852192138671874,0.309661865234375,0.857269287109375,0.39935302734375
1772788893706225000,19.872224853515625,0.3138427734375,0.8541412353515625,0.398040771484375
1772788893726257200,19.892257080078124,0.3155059814453125,0.8538360595703125,0.3953399658203125
1772788893746290000,19.9122900390625,0.312957763671875,0.8586578369140625,0.3935699462890625
1772788893766322000,19.932322021484374,0.3096160888671875,0.8599395751953125,0.3940582275390625
1772788893786355000,19.95235498046875,0.309814453125,0.8576812744140625,0.3961334228515625
1772788893806387000,19.972386962890624,0.3101654052734375,0.8564300537109375,0.3977508544921875
1772788893826419000,19.9924189453125,0.3081817626953125,0.85333251953125,0.399139404296875
1772788893846451000,20.012450927734374,0.307281494140625,0.85150146484375,0.4050140380859375
1772788893866484000,20.03248388671875,0.309173583984375,0.84857177734375,0.4037322998046875
1772788893886516000,20.052515869140624,0.3075714111328125,0.8486785888671875,0.400970458984375
1772788893906549000,20.072549072265623,0.3093414306640625,0.85064697265625,0.39971923828125
1772788893926581000,20.0925810546875,0.3125762939453125,0.8512725830078125,0.4054412841796875
1772788893946614000,20.112614013671877,0.3191986083984375,0.8483123779296875,0.4074859619140625
1772788893966646000,20.13264599609375,0.33050537109375,0.84381103515625,0.40576171875
1772788893986678800,20.1526787109375,0.33135986328125,0.8448638916015625,0.4050750732421875
1772788894006710800,20.172710693359374,0.32720947265625,0.8457489013671875,0.4059906005859375
1772788894026743600,20.19274365234375,0.3212432861328125,0.8519439697265625,0.4010467529296875
1772788894046775800,20.21277587890625,0.317657470703125,0.8603515625,0.398712158203125
1772788894066808600,20.23280859375,0.3148345947265625,0.86248779296875,0.395599365234375
1772788894086840600,20.252840576171874,0.311492919921875,0.8648834228515625,0.39813232421875
1772788894106873900,20.272873779296877,0.312103271484375,0.865478515625,0.398681640625
1772788894126906600,20.29290673828125,0.3085784912109375,0.8650970458984375,0.399749755859375
1772788894146939000,20.31293896484375,0.3014984130859375,0.8685150146484375,0.402557373046875
1772788894166971600,20.3329716796875,0.2908477783203125,0.869354248046875,0.40411376953125
1772788894187003600,20.353003662109376,0.2881317138671875,0.874298095703125,0.4057159423828125
1772788894207036700,20.37303662109375,0.293792724609375,0.8720245361328125,0.4048004150390625
1772788894227068700,20.393068603515626,0.295013427734375,0.87109375,0.3992462158203125
1772788894247103700,20.413103759765626,0.29498291015625,0.8671875,0.389007568359375
1772788894267135700,20.4331357421875,0.2989501953125,0.8695831298828125,0.386322021484375
1772788894287168800,20.453168701171876,0.2959442138671875,0.870574951171875,0.392181396484375
1772788894307200800,20.47320068359375,0.2953643798828125,0.8675689697265625,0.397064208984375
1772788894327233800,20.49323388671875,0.2953948974609375,0.8614349365234375,0.4042816162109375
1772788894347265800,20.513265869140625,0.2982330322265625,0.8563385009765625,0.408294677734375
1772788894367298800,20.533298828125,0.3011627197265625,0.854644775390625,0.409088134765625
1772788894387330800,20.553330810546875,0.3028106689453125,0.856597900390625,0.41033935546875
1772788894407363600,20.573363525390626,0.2982635498046875,0.86041259765625,0.40936279296875
1772788894427395800,20.593395751953125,0.298065185546875,0.8595428466796875,0.4058685302734375
1772788894447428600,20.6134287109375,0.297698974609375,0.85894775390625,0.403167724609375
1772788894467462000,20.6334619140625,0.3050384521484375,0.8574981689453125,0.403839111328125
1772788894487493600,20.65349365234375,0.3059539794921875,0.8572845458984375,0.4005584716796875
1772788894507526700,20.673526611328125,0.301300048828125,0.85675048828125,0.401641845703125
1772788894527559000,20.693558837890624,0.29736328125,0.8595733642578125,0.407012939453125
1772788894547591700,20.713591796875,0.2932891845703125,0.8626708984375,0.412750244140625
1772788894567623700,20.733623779296874,0.29217529296875,0.859771728515625,0.4119415283203125
1772788894587656700,20.75365673828125,0.2938995361328125,0.85931396484375,0.4092559814453125
1772788894607688700,20.773688720703124,0.297882080078125,0.8569793701171875,0.406097412109375
1772788894627721700,20.7937216796875,0.299957275390625,0.8560943603515625,0.4043426513671875
1772788894647753700,20.813753662109374,0.300323486328125,0.8574371337890625,0.4039764404296875
1772788894667786800,20.833786865234377,0.30267333984375,0.858489990234375,0.404388427734375
1772788894687818800,20.85381884765625,0.3031768798828125,0.860107421875,0.4072723388671875
1772788894707851800,20.873851806640626,0.3043975830078125,0.859222412109375,0.4095001220703125
1772788894727883800,20.8938837890625,0.3072052001953125,0.8550262451171875,0.4101715087890625
1772788894747916800,20.913916748046876,0.30615234375,0.8556365966796875,0.4107513427734375
1772788894767948500,20.933948486328124,0.3026885986328125,0.855712890625,0.4109954833984375
1772788894787981800,20.95398193359375,0.3017120361328125,0.8563690185546875,0.41131591796875
1772788894808014600,20.9740146484375,0.302764892578125,0.858001708984375,0.41070556640625
1772788894828046800,20.994046875,0.3008880615234375,0.8599700927734375,0.4099273681640625
1772788894848079600,21.01407958984375,0.300323486328125,0.859710693359375,0.4099884033203125
1772788894868111600,21.034111572265626,0.2995452880859375,0.8592376708984375,0.40997314453125
1772788894888144600,21.05414453125,0.2991485595703125,0.8611602783203125,0.411651611328125
1772788894908176600,21.0741767578125,0.2979278564453125,0.8603973388671875,0.4101715087890625
1772788894928209700,21.094209716796875,0.2994537353515625,0.8625030517578125,0.4098358154296875
1772788894948241700,21.11424169921875,0.3028564453125,0.8683624267578125,0.4134521484375
1772788894968275000,21.13427490234375,0.3112335205078125,0.880828857421875,0.41607666015625
1772788894988306400,21.154306396484376,0.3193511962890625,0.887359619140625,0.4115753173828125
1772788895008339700,21.174339599609375,0.323944091796875,0.8847503662109375,0.4058837890625
1772788895028371500,21.194371337890626,0.3170928955078125,0.87860107421875,0.406402587890625
1772788895048404700,21.21440478515625,0.295684814453125,0.8610992431640625,0.3992462158203125
1772788895068436700,21.234436767578124,0.26617431640625,0.84039306640625,0.3919219970703125
1772788895088469500,21.254469482421875,0.2574920654296875,0.8316802978515625,0.392578125
1772788895108501800,21.274501708984374,0.2632293701171875,0.838165283203125,0.3943939208984375
1772788895128534500,21.294534423828125,0.261993408203125,0.8570404052734375,0.396636962890625
1772788895148566500,21.31456640625,0.2596588134765625,0.8812255859375,0.4055633544921875
1772788895168599600,21.334599609375,0.2671051025390625,0.883514404296875,0.4181976318359375
1772788895188632600,21.354632568359374,0.2950439453125,0.8773345947265625,0.4336090087890625
1772788895208664600,21.37466455078125,0.3349151611328125,0.8707427978515625,0.4475860595703125
1772788895228697600,21.394697509765624,0.380401611328125,0.8708038330078125,0.4569244384765625
1772788895248729600,21.4147294921875,0.4021453857421875,0.8524169921875,0.448760986328125
1772788895268762600,21.4347626953125,0.41632080078125,0.8440704345703125,0.439300537109375
1772788895288794600,21.454794677734377,0.409576416015625,0.840179443359375,0.42724609375
1772788895308827600,21.47482763671875,0.3781280517578125,0.8400115966796875,0.40667724609375
1772788895328859600,21.494859619140627,0.33758544921875,0.8545379638671875,0.395263671875
1772788895348892700,21.514892578125,0.3151092529296875,0.8786773681640625,0.396087646484375
1772788895368924700,21.534924560546877,0.2991180419921875,0.881378173828125,0.39111328125
1772788895388957400,21.55495751953125,0.32025146484375,0.8758392333984375,0.365997314453125
1772788895408989700,21.57498974609375,0.324981689453125,0.862701416015625,0.362762451171875
1772788895429022500,21.5950224609375,0.3190460205078125,0.830322265625,0.3691558837890625
1772788895449054700,21.6150546875,0.322540283203125,0.81256103515625,0.377471923828125
1772788895469087500,21.63508740234375,0.3381805419921875,0.804046630859375,0.3913116455078125
1772788895489119500,21.655119384765626,0.3484649658203125,0.8125762939453125,0.404205322265625
1772788895509152800,21.67515283203125,0.34259033203125,0.85626220703125,0.4197998046875
1772788895529185500,21.695185546875,0.33050537109375,0.9034423828125,0.4161224365234375
1772788895549217800,21.7152177734375,0.335205078125,0.909149169921875,0.4198760986328125
1772788895569250600,21.73525048828125,0.3875885009765625,0.8645782470703125,0.3969268798828125
1772788895589282600,21.755282470703126,0.4101409912109375,0.8349609375,0.38800048828125
1772788895609315600,21.775315673828125,0.4117584228515625,0.820709228515625,0.3752288818359375
1772788895629347600,21.79534765625,0.394622802734375,0.8188629150390625,0.3650360107421875
1772788895649380600,21.815380615234375,0.38323974609375,0.8404541015625,0.356231689453125
1772788895669412600,21.83541259765625,0.3610992431640625,0.859527587890625,0.33184814453125
1772788895689445400,21.8554453125,0.357208251953125,0.8762969970703125,0.3203277587890625
1772788895709477600,21.8754775390625,0.350494384765625,0.87030029296875,0.3234710693359375
1772788895729510700,21.8955107421875,0.338897705078125,0.8600921630859375,0.329376220703125
1772788895749542700,21.915542724609374,0.31884765625,0.8576202392578125,0.3398895263671875
1772788895769575700,21.93557568359375,0.2954864501953125,0.8563690185546875,0.3492431640625
1772788895789607400,21.955607421875,0.283172607421875,0.86181640625,0.355987548828125
1772788895809640700,21.975640625,0.2887420654296875,0.8629913330078125,0.352691650390625
1772788895829672400,21.99567236328125,0.302001953125,0.8652191162109375,0.3454437255859375
1772788895849705700,22.015705810546876,0.3165130615234375,0.8737640380859375,0.330718994140625
1772788895869737700,22.03573779296875,0.320648193359375,0.8787384033203125,0.31195068359375
1772788895889770500,22.0557705078125,0.3195648193359375,0.88360595703125,0.308563232421875
1772788895909803500,22.075803466796874,0.31903076171875,0.8854522705078125,0.30731201171875
1772788895929835500,22.09583544921875,0.3166351318359375,0.8915557861328125,0.303436279296875
1772788895949868800,22.115868896484375,0.3163299560546875,0.8971405029296875,0.2996063232421875
1772788895969900500,22.135900634765626,0.31060791015625,0.904052734375,0.2990875244140625
1772788895989934300,22.155934326171874,0.29864501953125,0.90838623046875,0.3013916015625
1772788896009966600,22.175966552734376,0.2848663330078125,0.9065093994140625,0.31158447265625
1772788896029999600,22.19599951171875,0.2745208740234375,0.89794921875,0.3190765380859375
1772788896050031400,22.21603125,0.2739105224609375,0.8961639404296875,0.3228607177734375
1772788896070064600,22.236064697265626,0.2792205810546875,0.8947296142578125,0.321319580078125
1772788896090096400,22.256096435546876,0.2882232666015625,0.888153076171875,0.315673828125
1772788896110129700,22.276129638671875,0.2999114990234375,0.88623046875,0.3141632080078125
1772788896130161400,22.296161376953126,0.3123321533203125,0.8876495361328125,0.31646728515625
1772788896150194400,22.3161943359375,0.3246307373046875,0.887603759765625,0.317626953125
1772788896170226700,22.336226806640624,0.341827392578125,0.8824462890625,0.3204803466796875
1772788896190259500,22.356259521484375,0.3536529541015625,0.878021240234375,0.3227081298828125
1772788896210291700,22.376291748046874,0.36090087890625,0.8779296875,0.3275604248046875
1772788896230324500,22.396324462890625,0.3576202392578125,0.8789215087890625,0.33428955078125
1772788896250357500,22.416357421875,0.355499267578125,0.8760986328125,0.3386383056640625
1772788896270389500,22.436389404296875,0.357025146484375,0.870391845703125,0.3321533203125
1772788896290422500,22.456422607421874,0.3555450439453125,0.8704071044921875,0.3313140869140625
1772788896310454500,22.47645458984375,0.353973388671875,0.867034912109375,0.331207275390625
1772788896330487600,22.496487548828124,0.3471221923828125,0.868743896484375,0.3260498046875
1772788896350519300,22.516519287109375,0.33673095703125,0.87548828125,0.3173828125
1772788896370552600,22.536552490234374,0.3225250244140625,0.880096435546875,0.317138671875
1772788896390584600,22.55658447265625,0.3111572265625,0.8801727294921875,0.31146240234375
1772788896410617600,22.57661767578125,0.300811767578125,0.8777618408203125,0.31256103515625
1772788896430649600,22.596649658203123,0.2968902587890625,0.8720550537109375,0.315521240234375
1772788896450682400,22.616682373046874,0.294586181640625,0.8703765869140625,0.3205413818359375
1772788896470714600,22.636714599609373,0.2959442138671875,0.8711700439453125,0.3255767822265625
1772788896490747400,22.656747314453124,0.3022613525390625,0.8706512451171875,0.3277740478515625
1772788896510779600,22.676779541015627,0.3114776611328125,0.8722686767578125,0.3306427001953125
1772788896530812400,22.6968125,0.3163604736328125,0.8785552978515625,0.331634521484375
1772788896550845700,22.716845703125,0.3183135986328125,0.88482666015625,0.3251495361328125
1772788896570877400,22.73687744140625,0.3261566162109375,0.884033203125,0.3185882568359375
1772788896590910500,22.756910400390623,0.32489013671875,0.8831329345703125,0.317657470703125
1772788896610942700,22.776942626953126,0.331787109375,0.8818817138671875,0.323272705078125
1772788896630975500,22.7969755859375,0.3297882080078125,0.8829498291015625,0.3275299072265625
1772788896651007500,22.817007568359376,0.3191070556640625,0.887176513671875,0.327362060546875
1772788896671040500,22.83704052734375,0.3067474365234375,0.8856658935546875,0.330535888671875
1772788896691072500,22.857072509765626,0.2973175048828125,0.8778533935546875,0.335235595703125
1772788896711105500,22.87710546875,0.291778564453125,0.8723907470703125,0.3397674560546875
1772788896731137500,22.897137451171876,0.2877960205078125,0.871124267578125,0.3429412841796875
1772788896751170600,22.917170654296875,0.2892608642578125,0.869140625,0.34814453125
1772788896771202600,22.93720263671875,0.2914581298828125,0.865478515625,0.3526458740234375
1772788896791235300,22.9572353515625,0.2977142333984375,0.8642578125,0.3560638427734375
1772788896811267600,22.977267578125,0.300811767578125,0.865447998046875,0.3534698486328125
1772788896831300600,22.997300537109375,0.3031158447265625,0.87322998046875,0.353973388671875
1772788896851332400,23.017332275390626,0.306793212890625,0.879302978515625,0.3553619384765625
1772788896871365600,23.03736572265625,0.30853271484375,0.8820037841796875,0.357940673828125
1772788896891398400,23.0573984375,0.309906005859375,0.8820953369140625,0.362274169921875
1772788896911430700,23.0774306640625,0.3080902099609375,0.8834381103515625,0.374420166015625
1772788896931463400,23.09746337890625,0.3102264404296875,0.8805389404296875,0.382171630859375
1772788896951495400,23.117495361328125,0.30419921875,0.879547119140625,0.382568359375
1772788896971528400,23.137528564453124,0.2912445068359375,0.8772430419921875,0.3817596435546875
1772788896991560000,23.157559814453126,0.2750701904296875,0.8874969482421875,0.386749267578125
1772788897011593200,23.17759326171875,0.2679901123046875,0.88336181640625,0.3897552490234375
1772788897031625000,23.197625,0.2603912353515625,0.8892822265625,0.3916473388671875
1772788897051658000,23.217657958984375,0.255706787109375,0.883880615234375,0.3827056884765625
1772788897071690000,23.23768994140625,0.247650146484375,0.879425048828125,0.3784027099609375
1772788897091723000,23.257722900390625,0.2437591552734375,0.869903564453125,0.374176025390625
1772788897111755000,23.277755126953124,0.2384490966796875,0.868194580078125,0.376068115234375
1772788897131788000,23.2977880859375,0.235382080078125,0.86834716796875,0.3821563720703125
1772788897151820000,23.317820068359374,0.2404327392578125,0.8701019287109375,0.388427734375
1772788897171853000,23.33785302734375,0.2397918701171875,0.880828857421875,0.396881103515625
1772788897191885000,23.357885009765624,0.2460479736328125,0.886199951171875,0.4031524658203125
1772788897211918000,23.37791796875,0.2544403076171875,0.881927490234375,0.415771484375
1772788897231951000,23.397951171875,0.262115478515625,0.8836822509765625,0.4240264892578125
1772788897251982800,23.41798291015625,0.26837158203125,0.8809661865234375,0.4277801513671875
1772788897272016100,23.43801611328125,0.2675323486328125,0.8733062744140625,0.429046630859375
1772788897292048000,23.4580478515625,0.268218994140625,0.8609771728515625,0.427093505859375
1772788897312081200,23.4780810546875,0.2767333984375,0.8524017333984375,0.417205810546875
1772788897332113200,23.498113037109373,0.275238037109375,0.8537139892578125,0.4005889892578125
1772788897352146000,23.51814599609375,0.267364501953125,0.852874755859375,0.392974853515625
1772788897372178200,23.53817822265625,0.2640838623046875,0.8547821044921875,0.400146484375
1772788897392211000,23.5582109375,0.2524566650390625,0.8554229736328125,0.4081878662109375
1772788897412243200,23.5782431640625,0.2479095458984375,0.85540771484375,0.426513671875
1772788897432276000,23.59827587890625,0.24951171875,0.85931396484375,0.442047119140625
1772788897452308000,23.618307861328127,0.2483978271484375,0.84722900390625,0.4485015869140625
1772788897472341000,23.638341064453126,0.261322021484375,0.8353729248046875,0.4592437744140625
1772788897492373000,23.658373046875,0.2487335205078125,0.829437255859375,0.4774169921875
1772788897512406000,23.678406005859376,0.235137939453125,0.8466339111328125,0.4919281005859375
1772788897532439000,23.69843896484375,0.24383544921875,0.8551025390625,0.4963531494140625
1772788897552471000,23.718470947265626,0.240570068359375,0.85845947265625,0.4767913818359375
1772788897572504000,23.738504150390625,0.2588958740234375,0.876495361328125,0.453033447265625
1772788897592536000,23.7585361328125,0.2958984375,0.893585205078125,0.4251251220703125
1772788897612569000,23.778569091796875,0.3359375,0.8914794921875,0.39532470703125
1772788897632601000,23.79860107421875,0.3545379638671875,0.8785400390625,0.3769683837890625
1772788897652633900,23.8186337890625,0.3561248779296875,0.8860626220703125,0.3806915283203125
1772788897672666000,23.838666015625,0.340118408203125,0.88134765625,0.3876495361328125
1772788897692699000,23.858698974609375,0.3205108642578125,0.8607940673828125,0.396270751953125
1772788897712731100,23.878731201171874,0.295989990234375,0.82354736328125,0.41522216796875
1772788897732764000,23.898763916015625,0.272857666015625,0.784515380859375,0.444091796875
1772788897752796000,23.9187958984375,0.25970458984375,0.764923095703125,0.4803314208984375
1772788897772829000,23.938828857421875,0.264862060546875,0.77984619140625,0.5142822265625
1772788897792861000,23.95886083984375,0.3083953857421875,0.78118896484375,0.5336151123046875
1772788897812894200,23.978894287109377,0.3045501708984375,0.82342529296875,0.5330047607421875
1772788897832927000,23.998927001953124,0.295745849609375,0.835235595703125,0.5160980224609375
1772788897852959000,24.018958984375,0.3130950927734375,0.8411102294921875,0.484771728515625
1772788897872992000,24.038991943359374,0.3415069580078125,0.84918212890625,0.4477386474609375
1772788897893024000,24.05902392578125,0.382415771484375,0.86395263671875,0.4067230224609375
1772788897913057000,24.07905712890625,0.397979736328125,0.8681793212890625,0.40191650390625
1772788897933089000,24.099089111328126,0.41302490234375,0.85357666015625,0.41363525390625
1772788897953121800,24.119121826171874,0.4114532470703125,0.838287353515625,0.43658447265625
1772788897973154000,24.139154052734376,0.3961334228515625,0.8295745849609375,0.457916259765625
1772788897993187000,24.15918701171875,0.3799591064453125,0.8180084228515625,0.4678802490234375
1772788898013218800,24.17921875,0.3705902099609375,0.7998199462890625,0.468109130859375
1772788898033251800,24.199251953125,0.368560791015625,0.7830810546875,0.4785003662109375
1772788898053283800,24.219283935546876,0.36285400390625,0.7755279541015625,0.4888153076171875
1772788898073316900,24.23931689453125,0.345916748046875,0.77978515625,0.4934539794921875
1772788898093348900,24.259348876953126,0.32373046875,0.79425048828125,0.4968109130859375
1772788898113382000,24.2793818359375,0.3075714111328125,0.795623779296875,0.5059356689453125
1772788898133414700,24.29941455078125,0.3054351806640625,0.7926025390625,0.5054931640625
1772788898153447000,24.319447021484375,0.3211517333984375,0.792724609375,0.4963531494140625
1772788898173479700,24.339479736328126,0.3546142578125,0.7921600341796875,0.4786224365234375
1772788898193512000,24.359511962890625,0.38909912109375,0.7940673828125,0.46038818359375
1772788898213545000,24.379544921875,0.4113616943359375,0.8014678955078125,0.4474334716796875
1772788898233576700,24.39957666015625,0.4099273681640625,0.7974090576171875,0.4379730224609375
1772788898253610000,24.41960986328125,0.400177001953125,0.7927703857421875,0.4375
1772788898273641700,24.439641845703125,0.3916778564453125,0.7980499267578125,0.4521331787109375
1772788898293675000,24.459675048828124,0.3848724365234375,0.798370361328125,0.4723358154296875
1772788898313706800,24.479706787109375,0.3839263916015625,0.7987518310546875,0.4826507568359375
1772788898333739800,24.49973974609375,0.384429931640625,0.796112060546875,0.4954681396484375
1772788898353772000,24.51977197265625,0.3873138427734375,0.788970947265625,0.5037994384765625
1772788898373804800,24.5398046875,0.3877105712890625,0.7797393798828125,0.5080718994140625
1772788898393837800,24.559837890625,0.3823394775390625,0.7740631103515625,0.50732421875
1772788898413869800,24.579869873046874,0.3771514892578125,0.7731170654296875,0.499908447265625
1772788898433902800,24.59990283203125,0.372833251953125,0.7739105224609375,0.4936370849609375
1772788898453934800,24.619934814453124,0.368011474609375,0.7790679931640625,0.485382080078125
1772788898473967900,24.6399677734375,0.370941162109375,0.7819671630859375,0.47747802734375
1772788898493999900,24.659999755859374,0.3811187744140625,0.7873992919921875,0.469024658203125
1772788898514033000,24.680032958984373,0.3911895751953125,0.7936248779296875,0.4638214111328125
1772788898534065000,24.70006494140625,0.3955841064453125,0.798248291015625,0.458953857421875
1772788898554098000,24.720097900390623,0.3932952880859375,0.800750732421875,0.458648681640625
1772788898574130000,24.7401298828125,0.380035400390625,0.80548095703125,0.4589385986328125
1772788898594163000,24.760162841796873,0.36578369140625,0.811767578125,0.46630859375
1772788898614195000,24.78019482421875,0.3602294921875,0.806732177734375,0.469635009765625
1772788898634227700,24.800227783203123,0.36236572265625,0.803009033203125,0.4688262939453125
1772788898654260000,24.820260009765626,0.3626251220703125,0.8019256591796875,0.46807861328125
1772788898674292700,24.840292724609377,0.3643035888671875,0.7995452880859375,0.4647674560546875
1772788898694326000,24.860325927734376,0.3615875244140625,0.80255126953125,0.465606689453125
1772788898714357800,24.880357666015627,0.3564453125,0.8021087646484375,0.4623870849609375
1772788898734390800,24.900390869140626,0.3487396240234375,0.805450439453125,0.463104248046875
1772788898754422800,24.9204228515625,0.3480377197265625,0.8058319091796875,0.465728759765625
1772788898774455800,24.940455810546876,0.3526458740234375,0.8036346435546875,0.4699249267578125
1772788898794488000,24.960488037109375,0.366455078125,0.7955474853515625,0.4707489013671875
1772788898814520800,24.980520751953126,0.3712615966796875,0.7959136962890625,0.4714813232421875
1772788898834552800,25.000552734375,0.3714752197265625,0.800445556640625,0.4694671630859375
1772788898854585900,25.0205859375,0.369384765625,0.79986572265625,0.4641265869140625
1772788898874617900,25.040617919921875,0.3732452392578125,0.7985382080078125,0.4652099609375
1772788898894651000,25.06065087890625,0.3716888427734375,0.7959442138671875,0.466888427734375
1772788898914683000,25.080682861328125,0.37176513671875,0.7970123291015625,0.466156005859375
1772788898934715600,25.100715576171876,0.3691864013671875,0.7937774658203125,0.4677886962890625
1772788898954749000,25.1207490234375,0.37060546875,0.791961669921875,0.4709930419921875
1772788898974780700,25.14078076171875,0.369537353515625,0.793243408203125,0.473114013671875
1772788898994814700,25.160814697265625,0.36029052734375,0.7978057861328125,0.471710205078125
1772788899014846700,25.1808466796875,0.35443115234375,0.7977294921875,0.471221923828125
1772788899034879700,25.200879638671875,0.3553009033203125,0.798583984375,0.4723358154296875
1772788899054911500,25.220911376953126,0.3570098876953125,0.8052825927734375,0.4688720703125
1772788899074944800,25.24094482421875,0.3616485595703125,0.8067779541015625,0.4639739990234375
1772788899094976800,25.260976806640624,0.3685150146484375,0.802886962890625,0.4629974365234375
1772788899115009800,25.281009765625,0.372406005859375,0.8000946044921875,0.464447021484375
1772788899135041800,25.301041748046874,0.3683929443359375,0.8007354736328125,0.4650726318359375
1772788899155074800,25.32107470703125,0.36395263671875,0.80419921875,0.469482421875
1772788899175106800,25.34110693359375,0.36016845703125,0.805816650390625,0.47283935546875
1772788899195139600,25.3611396484375,0.36407470703125,0.8006134033203125,0.4759368896484375
1772788899215171800,25.381171875,0.36651611328125,0.79693603515625,0.475433349609375
1772788899235204600,25.40120458984375,0.3706512451171875,0.79412841796875,0.471710205078125
1772788899255238000,25.42123779296875,0.36962890625,0.7944793701171875,0.4727783203125
1772788899275269600,25.44126953125,0.3710174560546875,0.7962188720703125,0.4742584228515625
1772788899295302700,25.461302734375,0.37005615234375,0.7944488525390625,0.474029541015625
1772788899315335000,25.4813349609375,0.3677215576171875,0.792266845703125,0.477020263671875
1772788899335367700,25.50136767578125,0.3687744140625,0.794464111328125,0.4826507568359375
1772788899355399700,25.521399658203126,0.3715362548828125,0.79547119140625,0.4843292236328125
1772788899375432700,25.5414326171875,0.3713531494140625,0.793548583984375,0.4821929931640625
1772788899395464700,25.561464599609376,0.366729736328125,0.79107666015625,0.4817352294921875
1772788899415497700,25.581497802734376,0.35797119140625,0.7986602783203125,0.4725494384765625
1772788899435529700,25.60152978515625,0.357177734375,0.799560546875,0.4749298095703125
1772788899455562800,25.621562744140626,0.3592071533203125,0.7980804443359375,0.4788360595703125
1772788899475595800,25.641595703125,0.366790771484375,0.795501708984375,0.48004150390625
1772788899495627500,25.66162744140625,0.3712921142578125,0.7950286865234375,0.479217529296875
1772788899515660800,25.681660888671875,0.3738250732421875,0.79376220703125,0.4802703857421875
1772788899535692800,25.70169287109375,0.3669586181640625,0.7973785400390625,0.4832611083984375
1772788899555725800,25.721725830078125,0.35894775390625,0.797271728515625,0.483734130859375
1772788899575757800,25.7417578125,0.359649658203125,0.7934417724609375,0.4831695556640625
1772788899595790600,25.76179052734375,0.363311767578125,0.79052734375,0.478546142578125
1772788899615822800,25.78182275390625,0.36358642578125,0.7933349609375,0.4748077392578125
1772788899635855600,25.801855712890625,0.3596038818359375,0.79779052734375,0.4764404296875
1772788899655888000,25.821887939453124,0.3597412109375,0.7985382080078125,0.47772216796875
1772788899675920600,25.841920654296874,0.358978271484375,0.7993011474609375,0.477386474609375
1772788899695952600,25.86195263671875,0.3514404296875,0.8028106689453125,0.478759765625
1772788899715985700,25.881985595703124,0.350921630859375,0.804107666015625,0.4803314208984375
1772788899736018700,25.902018798828124,0.3531341552734375,0.79998779296875,0.47418212890625
1772788899756051000,25.922051025390626,0.3642425537109375,0.8023529052734375,0.4693145751953125
1772788899776083700,25.942083740234374,0.3666229248046875,0.801483154296875,0.4711456298828125
1772788899796115700,25.96211572265625,0.361846923828125,0.803680419921875,0.4715728759765625
1772788899816148700,25.982148681640624,0.3560638427734375,0.8035430908203125,0.47412109375
1772788899836180700,26.0021806640625,0.352264404296875,0.802703857421875,0.478851318359375
1772788899856213800,26.0222138671875,0.3514251708984375,0.800811767578125,0.480255126953125
1772788899876245800,26.042245849609376,0.3537139892578125,0.8004913330078125,0.4756011962890625
1772788899896278500,26.062278564453123,0.3557281494140625,0.8004150390625,0.4756317138671875
