time,seconds_elapsed,z,y,x
1772717554738654700,0.07065478515625,0.24685393273830414,-2.959773302078247,-2.090520143508911
1772717554758687500,0.0906875,0.36829736828804016,-2.746227741241455,-2.579627513885498
1772717554778719700,0.1107197265625,0.24831931293010712,-2.88413405418396,-2.905914545059204
1772717554798751500,0.13075146484375,0.42612653970718384,-3.1174769401550293,-3.5874078273773193
1772717554818784500,0.150784423828125,1.0630521774291992,-3.5503430366516113,-4.334309101104736
1772717554838816800,0.170816650390625,2.0049939155578613,-4.052846431732178,-4.59007453918457
1772717554858849500,0.190849609375,2.977329730987549,-3.1254687309265137,-4.395939350128174
1772717554878881500,0.210881591796875,2.4896578788757324,-1.0165823698043823,-3.1993653774261475
1772717554898913500,0.23091357421875,1.4111520051956177,1.5063444375991821,-2.103952646255493
1772717554918946600,0.250946533203125,1.0174264907836914,3.4290263652801514,-0.7766863703727722
1772717554938978600,0.270978515625,1.4881260395050049,5.055084228515625,0.6223167777061462
1772717554959010600,0.291010498046875,2.3346903324127197,6.463764190673828,2.46162486076355
1772717554979043600,0.311043701171875,3.1743757724761963,8.282976150512695,4.232181072235107
1772717554999075600,0.33107568359375,2.5052433013916016,3.5888195037841797,3.321340322494507
1772717555019107600,0.351107666015625,0.6671432256698608,1.0958631038665771,2.6765780448913574
1772717555039140400,0.371140380859375,-0.4094477593898773,-0.6845560669898987,2.41103196144104
1772717555059172600,0.391172607421875,-0.5316310524940491,-0.722795844078064,1.7754476070404053
1772717555079204600,0.41120458984375,-0.08842218667268753,1.3704946041107178,1.492295503616333
1772717555099237400,0.4312373046875,0.15163233876228333,0.7974061965942383,2.0383780002593994
1772717555119269600,0.45126953125,-0.7153148055076599,-0.7494953274726868,3.2830610275268555
1772717555139302400,0.471302490234375,-1.3436243534088135,-0.7571894526481628,3.8991007804870605
1772717555159334700,0.491334716796875,-1.3849049806594849,-0.1060299426317215,4.008147716522217
1772717555179366700,0.51136669921875,-1.5510022640228271,0.28628772497177124,4.071921348571777
1772717555199399400,0.5313994140625,-1.5642722845077515,-0.11936318874359131,3.9836618900299072
1772717555219431700,0.551431640625,-1.4020428657531738,-1.0619720220565796,3.5221424102783203
1772717555239463700,0.571463623046875,-1.1738487482070923,-1.7028921842575073,2.8984644412994385
1772717555259496400,0.591496337890625,-0.8244969248771667,-1.1672605276107788,2.390887975692749
1772717555279528700,0.61152880859375,0.31006646156311035,0.2545517385005951,1.3603028059005737
1772717555299560400,0.631560546875,1.3686082363128662,1.2609823942184448,0.45404744148254395
1772717555319593700,0.65159375,1.4155123233795166,2.255012035369873,0.38996806740760803
1772717555339625500,0.67162548828125,1.1641947031021118,1.8114396333694458,0.7402223944664001
1772717555359657500,0.691657470703125,0.7392611503601074,0.4239000678062439,0.8646215796470642
1772717555379690800,0.711690673828125,0.5253875851631165,-0.6195188760757446,0.6014231443405151
1772717555399722500,0.731722412109375,0.4237571358680725,-0.9828821420669556,0.507211446762085
1772717555419754500,0.75175439453125,0.41982656717300415,-0.97634357213974,0.5174672603607178
1772717555439787500,0.77178759765625,0.40248095989227295,-0.6916688084602356,0.6885032057762146
1772717555459819500,0.791819580078125,0.4684915244579315,0.29071447253227234,0.9182882905006409
1772717555479852500,0.8118525390625,0.5520585179328918,0.22712311148643494,0.6776250004768372
1772717555499884500,0.831884521484375,0.5597398281097412,-0.4467948377132416,0.3572101294994354
1772717555519916500,0.85191650390625,0.5006496906280518,-1.0977575778961182,0.06436705589294434
1772717555539949600,0.871949462890625,0.40354907512664795,-1.5867902040481567,-0.22227166593074799
1772717555559981600,0.891981689453125,0.29415997862815857,-1.8419749736785889,-0.3615831434726715
1772717555580013600,0.912013671875,0.2191389501094818,-1.9606040716171265,-0.4361342787742615
1772717555600046600,0.932046630859375,0.19480624794960022,-1.486293077468872,-0.6825336217880249
1772717555620078600,0.95207861328125,-0.0840575322508812,-0.18555045127868652,-1.3722118139266968
1772717555640110600,0.972110595703125,-0.29604703187942505,0.9499037265777588,-2.0806760787963867
1772717555660143600,0.9921435546875,-0.33257225155830383,0.7846094965934753,-2.1795361042022705
1772717555680175600,1.012175537109375,-0.26903796195983887,-0.2576036751270294,-2.1866743564605713
1772717555700207400,1.032207275390625,-0.10299385339021683,0.023273516446352005,-2.552103042602539
1772717555720240600,1.05224072265625,0.21343551576137543,1.3681237697601318,-3.1715774536132812
1772717555740272600,1.072272705078125,0.3447418808937073,1.6181823015213013,-3.0920541286468506
1772717555760304400,1.092304443359375,0.01599167473614216,0.10441574454307556,-2.807964563369751
1772717555780337700,1.112337646484375,-0.12382212281227112,-1.5602072477340698,-2.479703426361084
1772717555800369400,1.132369384765625,0.07494407147169113,-0.0946895107626915,-2.9554059505462646
1772717555820402700,1.152402587890625,0.2891107499599457,0.720744252204895,-3.811816692352295
1772717555840434400,1.172434326171875,-0.004130798391997814,0.11770109832286835,-3.9403154850006104
1772717555860466400,1.192466552734375,-0.6136521100997925,0.10984976589679718,-3.384230136871338
1772717555880499700,1.212499755859375,-0.9683724641799927,0.6984134912490845,-2.5891525745391846
1772717555900531500,1.232531494140625,-0.7641420364379883,1.4714102745056152,-2.1780781745910645
1772717555920563500,1.2525634765625,-0.7192825078964233,1.942421555519104,-1.8868564367294312
1772717555940596500,1.272596435546875,-0.48008865118026733,0.8779905438423157,-1.845816969871521
1772717555960628500,1.29262841796875,-0.3621179163455963,-0.7167344689369202,-1.2121834754943848
1772717555980660500,1.312660400390625,-0.710038959980011,-1.0729209184646606,-0.371749609708786
1772717556000693500,1.332693603515625,-0.6595104932785034,-0.28097254037857056,0.614762544631958
1772717556020725500,1.3527255859375,-0.6542060375213623,0.27685484290122986,2.3945348262786865
1772717556040757800,1.3727578125,-0.7300046682357788,0.44071969389915466,3.642510414123535
1772717556060790500,1.39279052734375,-0.8856533765792847,0.12400348484516144,4.050545692443848
1772717556080822500,1.412822509765625,-1.0209975242614746,-0.15370306372642517,4.348621368408203
1772717556100854500,1.4328544921875,-1.1639811992645264,-0.02509797364473343,4.639560699462891
1772717556120887600,1.452887451171875,-1.021373987197876,0.13873058557510376,4.668570518493652
1772717556140919600,1.47291943359375,-0.7013078331947327,0.27081212401390076,4.579830646514893
1772717556160952600,1.49295263671875,-0.5480865836143494,0.29997432231903076,4.5002360343933105
1772717556180984600,1.512984619140625,-0.7205582857131958,0.47884663939476013,4.169004917144775
1772717556201016600,1.5330166015625,-0.6941708326339722,0.39695194363594055,3.666491746902466
1772717556221049600,1.553049560546875,-0.42345771193504333,0.21117611229419708,3.136390209197998
1772717556241081600,1.57308154296875,-0.07105664908885956,0.26241520047187805,2.373837471008301
1772717556261113600,1.593113525390625,0.18062667548656464,0.28890174627304077,1.5454968214035034
1772717556281146600,1.613146728515625,0.21513983607292175,0.08636573702096939,0.8696912527084351
1772717556301178400,1.633178466796875,0.384592205286026,-0.011436673812568188,0.2604716718196869
1772717556321210600,1.653210693359375,0.38911667466163635,0.23382578790187836,-0.3409481942653656
1772717556341243400,1.673243408203125,0.26983413100242615,0.20149697363376617,-0.8823842406272888
1772717556361275400,1.693275390625,0.15072184801101685,-0.2834419906139374,-1.3383638858795166
1772717556381307600,1.7133076171875,0.16736191511154175,-0.6344331502914429,-1.7527270317077637
1772717556401340400,1.73334033203125,0.35877662897109985,-0.38968175649642944,-2.1247854232788086
1772717556421372700,1.75337255859375,0.35119640827178955,0.4896836578845978,-2.0640830993652344
1772717556441404700,1.77340478515625,0.30062878131866455,0.7726835012435913,-1.8877240419387817
1772717556461437400,1.7934375,0.4445185661315918,0.3783508539199829,-1.8341752290725708
1772717556481469700,1.8134697265625,0.4426491856575012,-0.3399811089038849,-1.3696167469024658
1772717556501501400,1.83350146484375,0.4253373146057129,-1.4544857740402222,-0.5834730267524719
1772717556521534500,1.853534423828125,0.23182986676692963,-1.8533761501312256,0.27872756123542786
1772717556541566700,1.873566650390625,0.05475178733468056,-1.6703362464904785,0.8566840291023254
1772717556561598500,1.893598388671875,-0.15646050870418549,-1.5595675706863403,1.1039032936096191
1772717556581631700,1.9136318359375,-0.3251740038394928,-0.6557592749595642,1.0192936658859253
1772717556601663500,1.93366357421875,-0.3075945973396301,1.1145678758621216,0.5814546942710876
1772717556621695500,1.953695556640625,-0.28898149728775024,1.8894073963165283,0.5031323432922363
1772717556641728500,1.973728515625,-0.2589277923107147,2.0699710845947266,0.7315617799758911
1772717556661760500,1.993760498046875,-0.023774754256010056,2.3008155822753906,1.1028220653533936
1772717556681792500,2.01379248046875,0.501301646232605,2.1006274223327637,1.8576658964157104
1772717556701825500,2.033825439453125,0.9959074258804321,-0.2588615417480469,1.4649972915649414
1772717556721857500,2.053857421875,1.1285442113876343,0.26177048683166504,-0.14478270709514618
1772717556741889500,2.0738896484375,1.0691115856170654,0.6142789721488953,-1.5329718589782715
1772717556761922600,2.093922607421875,1.0497857332229614,-0.930955708026886,-2.489258050918579
1772717556781954600,2.11395458984375,0.746530294418335,-1.6167356967926025,-2.8581454753875732
1772717556801987600,2.133987548828125,0.7623347640037537,-1.650063157081604,-2.285712957382202
1772717556822019600,2.15401953125,0.582452654838562,0.3800897002220154,-2.351250171661377
1772717556842051600,2.174051513671875,0.6208231449127197,1.990846872329712,-2.673844814300537
1772717556862083300,2.194083251953125,0.6717247366905212,0.9678485989570618,-2.635111093521118
1772717556882116600,2.21411669921875,0.10341741144657135,-0.7846412062644958,-2.0850205421447754
1772717556902148600,2.234148681640625,-0.591221034526825,-0.9490969181060791,-1.5980148315429688
1772717556922181600,2.254181640625,-0.39573684334754944,2.1263608932495117,-1.9115071296691895
1772717556942213600,2.274213623046875,0.019016917794942856,3.94504714012146,-2.6469483375549316
1772717556962245400,2.294245361328125,-0.051798392087221146,2.6968843936920166,-3.1658337116241455
1772717556982278700,2.314278564453125,-0.8580268025398254,0.5018051266670227,-2.716705799102783
1772717557002310400,2.334310302734375,-1.3539973497390747,-0.05126000568270683,-1.764883279800415
1772717557022342400,2.35434228515625,-1.1781715154647827,1.3145265579223633,-1.497646450996399
1772717557042375700,2.374375732421875,-0.6552144885063171,2.1875224113464355,-1.9347885847091675
1772717557062407400,2.394407470703125,-0.4275102913379669,1.3048323392868042,-2.831794500350952
1772717557082439700,2.414439697265625,-0.5462008714675903,0.11449849605560303,-2.9957082271575928
1772717557102472400,2.434472412109375,-0.8025089502334595,-0.3041752576828003,-2.329496145248413
1772717557122504400,2.45450439453125,-0.7632959485054016,0.1398705393075943,-2.302192211151123
1772717557142536700,2.47453662109375,-0.29492154717445374,0.9125078320503235,-2.7808351516723633
1772717557162569500,2.494569580078125,-0.5791739225387573,0.8264036774635315,-1.9551548957824707
1772717557182601500,2.5146015625,-1.1764098405838013,0.4484744369983673,-0.9682764410972595
1772717557202633200,2.53463330078125,-1.3318850994110107,-0.2979172170162201,-0.26365232467651367
1772717557222666200,2.554666259765625,-0.9680821299552917,-0.8483380079269409,-0.11347375810146332
1772717557242698200,2.5746982421875,-0.9243543744087219,-0.7961575984954834,0.3676636517047882
1772717557262730200,2.594730224609375,-0.7467452883720398,-0.5559118986129761,1.1397264003753662
1772717557282763300,2.61476318359375,-0.6018886566162109,-0.6173964142799377,1.98984694480896
1772717557302795300,2.634795166015625,-0.6946590542793274,-0.9725241661071777,2.289935350418091
1772717557322827000,2.654826904296875,-0.8016679286956787,-1.0936999320983887,2.619245767593384
1772717557342860300,2.6748603515625,-0.7389739751815796,-0.9887831807136536,3.4280591011047363
1772717557362892000,2.69489208984375,-0.907651424407959,-0.8960332274436951,4.101855278015137
1772717557382924000,2.714924072265625,-1.0859742164611816,-1.0169066190719604,4.595170497894287
1772717557402957300,2.734957275390625,-1.004966139793396,-1.0909098386764526,4.810159206390381
1772717557422989000,2.754989013671875,-0.8985926508903503,-1.0945831537246704,4.7595624923706055
1772717557443021000,2.77502099609375,-0.7245075106620789,-0.9711601138114929,4.480101585388184
1772717557463054000,2.79505419921875,-0.5318615436553955,-0.8692657351493835,4.173986911773682
1772717557483086000,2.815086181640625,-0.37334010004997253,-0.8422040343284607,3.8557896614074707
1772717557503118300,2.835118408203125,-0.15319690108299255,-0.8079272508621216,3.52087140083313
1772717557523151000,2.855151123046875,0.2770267426967621,-0.3635791540145874,2.953368902206421
1772717557543183000,2.87518310546875,0.7122507691383362,-0.004531652666628361,2.1319191455841064
1772717557563216100,2.895216064453125,0.6355488300323486,-0.16940554976463318,1.5513744354248047
1772717557583248100,2.915248046875,0.40136030316352844,-0.2749176025390625,1.3737056255340576
1772717557603280100,2.935280029296875,0.24524594843387604,0.03873523324728012,1.467598795890808
1772717557623313200,2.955313232421875,0.3595747649669647,0.4199916422367096,1.4816433191299438
1772717557643345200,2.97534521484375,0.5760831236839294,0.46946999430656433,1.503699541091919
1772717557663377400,2.99537744140625,0.7751866579055786,0.42698612809181213,1.1439697742462158
1772717557683410200,3.01541015625,0.9027202725410461,0.25143736600875854,0.07440072298049927
1772717557703442200,3.035442138671875,1.0140568017959595,0.42885395884513855,-0.47933855652809143
1772717557723474200,3.05547412109375,0.9625817537307739,2.053215980529785,-0.5644319653511047
1772717557743507200,3.075507080078125,0.7536028623580933,3.414029121398926,-0.9764519929885864
1772717557763539200,3.095539306640625,0.7537462115287781,2.645307779312134,-1.5176182985305786
1772717557783571200,3.1155712890625,0.6362308859825134,0.7054367065429688,-1.652692198753357
1772717557803604200,3.135604248046875,0.26886501908302307,0.7254469990730286,-1.041431188583374
1772717557823636200,3.15563623046875,0.10639134049415588,1.8016730546951294,-0.5439018607139587
1772717557843668200,3.175668212890625,0.1800215244293213,1.8149930238723755,-0.5840926766395569
1772717557863701000,3.195700927734375,0.31903746724128723,1.6995348930358887,-0.8620955944061279
1772717557883733200,3.215733154296875,-0.11642909795045853,1.7518610954284668,-0.6396651864051819
1772717557903765200,3.23576513671875,-0.39608824253082275,1.4925615787506104,-0.020444998517632484
1772717557923798000,3.255798095703125,-0.4075905978679657,1.7542731761932373,0.4022212028503418
1772717557943830300,3.275830322265625,-0.23854918777942657,2.7991225719451904,0.5645469427108765
1772717557963862300,3.2958623046875,-0.12919659912586212,3.038696765899658,0.8757554292678833
1772717557983895000,3.31589501953125,0.12074271589517593,2.2259387969970703,0.8667714595794678
1772717558003927300,3.33592724609375,0.14719396829605103,1.7714080810546875,0.27606338262557983
1772717558023959000,3.355958984375,-0.21561084687709808,1.2329200506210327,0.08211024850606918
1772717558043992300,3.375992431640625,-0.6782262921333313,0.2640798091888428,0.1845729500055313
1772717558064024300,3.3960244140625,-1.199378252029419,0.03801505267620087,0.012913435697555542
1772717558084056000,3.41605615234375,-1.4768162965774536,0.23370125889778137,-0.18436051905155182
1772717558104089300,3.43608935546875,-1.77191960811615,-0.33646395802497864,-0.24086934328079224
1772717558124121000,3.45612109375,-2.212393283843994,-1.0745956897735596,-0.11923860013484955
1772717558144153000,3.476153076171875,-2.430842638015747,-1.7755517959594727,0.47156310081481934
1772717558164186000,3.49618603515625,-2.275036096572876,-1.1765292882919312,0.7175782918930054
1772717558184217600,3.516217529296875,-2.338230609893799,-0.7749292850494385,0.6805132031440735
1772717558204249600,3.53624951171875,-2.557204484939575,-1.6667548418045044,1.0090388059616089
1772717558224282600,3.55628271484375,-2.3478786945343018,-1.9432452917099,1.5184319019317627
1772717558244314600,3.576314697265625,-2.0441768169403076,-1.6145427227020264,2.410797119140625
1772717558264346600,3.5963466796875,-2.134413242340088,-2.005378007888794,3.281552314758301
1772717558284379600,3.616379638671875,-2.4129550457000732,-1.984793782234192,3.4834187030792236
1772717558304411600,3.63641162109375,-2.645367383956909,-1.1295132637023926,3.2958340644836426
1772717558324443600,3.656443603515625,-2.3320870399475098,-0.7649418115615845,3.3135440349578857
1772717558344476700,3.6764765625,-1.5228633880615234,-2.4208691120147705,2.692641496658325
1772717558364508700,3.6965087890625,-1.502138614654541,-3.2100555896759033,0.40122297406196594
1772717558384540700,3.716540771484375,-1.4729911088943481,-2.92946720123291,-1.7052650451660156
1772717558404573700,3.73657373046875,-1.3381381034851074,-2.0566110610961914,-2.623896837234497
1772717558424605700,3.756605712890625,-1.0242676734924316,-1.787596344947815,-3.217489719390869
1772717558444637700,3.7766376953125,-0.30507180094718933,-1.7801566123962402,-4.41023588180542
1772717558464670700,3.796670654296875,0.1811607927083969,-1.0541974306106567,-4.371734142303467
1772717558484702500,3.816702392578125,0.6363368034362793,-0.9838030934333801,-4.172030925750732
1772717558504735700,3.83673583984375,0.7033681273460388,-1.9262734651565552,-4.1642069816589355
1772717558524767700,3.856767822265625,-0.16874843835830688,-1.956312656402588,-4.0217366218566895
1772717558544799500,3.876799560546875,-0.6662944555282593,-1.332510232925415,-3.7429909706115723
1772717558564832800,3.896832763671875,-0.6694363951683044,-0.9810206294059753,-3.8963940143585205
1772717558584864500,3.916864501953125,-1.4273264408111572,0.021392110735177994,-3.9114644527435303
1772717558604896800,3.936896728515625,-2.051952838897705,1.6554536819458008,-3.7502641677856445
1772717558624929800,3.9569296875,-1.5817217826843262,1.4352937936782837,-3.736699104309082
1772717558644961500,3.97696142578125,-1.0604279041290283,0.005957555957138538,-3.791010618209839
1772717558664993800,3.996993896484375,-0.9474650025367737,-0.34502723813056946,-3.228917121887207
1772717558685024800,4.017024658203125,-1.0999133586883545,0.9743492603302002,-2.5812559127807617
1772717558705056800,4.037056884765625,-1.375968337059021,2.5700244903564453,-1.9022903442382812
1772717558725088500,4.057088623046875,-1.6792075634002686,3.4445865154266357,-1.2274912595748901
1772717558745121800,4.077121826171875,-1.6192892789840698,3.0195329189300537,-1.0636911392211914
1772717558765153500,4.097153564453125,-1.6231435537338257,2.3604729175567627,-1.2445573806762695
1772717558785185500,4.117185546875,-2.0072476863861084,2.562356948852539,-1.292109489440918
1772717558805218800,4.13721875,-2.3262720108032227,3.6095643043518066,-0.9056118726730347
1772717558825250600,4.15725048828125,-2.4891655445098877,4.847140789031982,-0.3094738721847534
1772717558845282800,4.17728271484375,-2.410407066345215,5.362269401550293,0.2421146184206009
1772717558865315600,4.197315673828125,-2.4406604766845703,5.103483200073242,0.43192917108535767
1772717558885347600,4.21734765625,-2.5132460594177246,4.78917932510376,0.44293925166130066
1772717558905379800,4.2373798828125,-2.330726146697998,4.33424711227417,0.43010568618774414
1772717558925412600,4.25741259765625,-1.8425692319869995,3.960031747817993,0.528021514415741
1772717558945444600,4.277444580078125,-1.4544594287872314,3.666144371032715,0.8150349259376526
1772717558965476900,4.297476806640625,-0.9929087162017822,2.906440496444702,0.8451889157295227
1772717558985509600,4.317509521484375,-0.542242705821991,1.493091106414795,0.6115133762359619
1772717559005541600,4.337541748046875,-0.3963082730770111,0.4033946990966797,0.6459242701530457
1772717559025573600,4.35757373046875,-0.35393476486206055,-0.29503676295280457,0.9720881581306458
1772717559045606700,4.377606689453125,-0.2084067016839981,-0.8957440853118896,1.7139208316802979
1772717559065638700,4.397638671875,-0.13274787366390228,-1.1753838062286377,2.7897450923919678
1772717559085670700,4.417670654296875,-0.13307136297225952,-0.8561173677444458,3.7104907035827637
1772717559105703700,4.43770361328125,-0.8238148093223572,-0.5332928895950317,4.098117828369141
1772717559125735700,4.457735595703125,-1.2965011596679688,-0.4580819308757782,4.0326995849609375
1772717559145767700,4.477767578125,-1.1126258373260498,-0.21075725555419922,3.72925066947937
1772717559165800400,4.497800537109375,-0.6022146344184875,0.48648837208747864,4.054465293884277
1772717559185832700,4.517832763671875,-0.26195815205574036,0.2568068504333496,4.9952802658081055
1772717559205865700,4.53786572265625,-0.675451397895813,-0.4561895430088043,5.589461326599121
1772717559225898500,4.5578984375,-0.8572718501091003,-0.9548347592353821,5.542751789093018
1772717559245930500,4.577930419921875,-0.46738603711128235,-1.3908777236938477,5.218320846557617
1772717559265962500,4.59796240234375,-0.23002611100673676,-1.6602365970611572,4.975646495819092
1772717559285995500,4.61799560546875,-0.4729095995426178,-1.4879887104034424,5.517230033874512
1772717559306027800,4.63802783203125,-0.5400057435035706,-1.4885356426239014,6.200433254241943
1772717559326059500,4.6580595703125,-0.5015601515769958,-1.9654886722564697,6.305572986602783
1772717559346092500,4.678092529296875,-0.6133751273155212,-2.135443687438965,5.950557708740234
1772717559366124500,4.69812451171875,-0.6166564226150513,-1.6328791379928589,5.439048767089844
1772717559386156500,4.718156494140625,-0.3000316321849823,-1.3202111721038818,5.095979690551758
1772717559406189600,4.738189453125,-0.06866355985403061,-1.3890162706375122,4.724278450012207
1772717559426221600,4.7582216796875,-0.014419016428291798,-1.2598299980163574,3.935173988342285
1772717559446253600,4.778253662109375,0.18418987095355988,-0.8922691941261292,2.8074893951416016
1772717559466286600,4.79828662109375,0.5466410517692566,-0.7417625188827515,1.6394085884094238
1772717559486318600,4.818318603515625,0.9293944239616394,-0.5889227986335754,0.5310056209564209
1772717559506350600,4.8383505859375,1.023335337638855,-0.34852033853530884,-0.29299673438072205
1772717559526383600,4.858383544921875,0.8813429474830627,-0.10142387449741364,-0.8284946084022522
1772717559546415600,4.87841552734375,0.720420241355896,0.2949206829071045,-1.253173589706421
1772717559566447600,4.898447509765625,0.5895589590072632,0.44091349840164185,-1.197186827659607
1772717559586480600,4.918480712890625,0.377593994140625,0.42181459069252014,-0.9501782655715942
1772717559606512600,4.9385126953125,0.0448109470307827,0.4983799457550049,-0.5119578838348389
1772717559626545700,4.958545654296875,-0.3096204400062561,0.5420523881912231,0.02152908965945244
1772717559646577700,4.97857763671875,-0.6575888991355896,0.47067686915397644,0.22991667687892914
1772717559666609400,4.998609375,-0.9349576830863953,0.2590152621269226,0.3108096122741699
1772717559686642700,5.018642578125,-1.042576551437378,-0.11688770353794098,0.25745928287506104
1772717559706674700,5.0386748046875,-1.1218682527542114,-0.2826395034790039,0.22403790056705475
1772717559726706400,5.05870654296875,-1.186293363571167,-0.210784912109375,0.10618478804826736
1772717559746738400,5.078738525390625,-1.1439210176467896,-0.1990516632795334,-0.05099392309784889
1772717559766771500,5.098771484375,-0.9410985708236694,-0.7252436876296997,-0.318103551864624
1772717559786803500,5.118803466796875,-0.6803722977638245,-0.5901733040809631,-0.7544687390327454
1772717559806836500,5.13883642578125,-0.657703697681427,-0.1433660089969635,-1.0239334106445312
1772717559826868500,5.158868408203125,-0.9729751348495483,-1.5441365242004395,-0.8305795192718506
1772717559846900500,5.178900390625,-1.3433544635772705,-3.274724006652832,-0.11133282631635666
1772717559866933500,5.19893359375,-1.800957202911377,-2.0550999641418457,-0.07686973363161087
1772717559886965500,5.218965576171875,-2.0254459381103516,-1.3933892250061035,-0.1913512796163559
1772717559906997500,5.23899755859375,-2.1705687046051025,-1.2764300107955933,0.1948295384645462
1772717559927030500,5.259030517578125,-2.5296905040740967,-0.5949198603630066,0.46170714497566223
1772717559947062500,5.2790625,-2.7944414615631104,-0.6594998240470886,0.048971790820360184
1772717559967094800,5.2990947265625,-2.966259717941284,-2.0458405017852783,-0.8775844573974609
1772717559987127600,5.31912744140625,-2.847653865814209,-2.454468250274658,-2.4525604248046875
1772717560007159600,5.33915966796875,-3.0047757625579834,-1.4880424737930298,-4.391387939453125
1772717560027191600,5.359191650390625,-3.2760093212127686,0.014929081313312054,-5.584454536437988
1772717560047224600,5.379224609375,-3.931295156478882,-0.12478037178516388,-4.850905895233154
1772717560067256600,5.399256591796875,-5.109805583953857,0.27122995257377625,-3.949165105819702
1772717560087288600,5.41928857421875,-5.948454856872559,0.4843708574771881,-4.675317287445068
1772717560107321600,5.439321533203125,-5.433863162994385,0.13163508474826813,-3.6439037322998047
1772717560127353600,5.459353515625,-5.992464065551758,-1.3619046211242676,-1.4457257986068726
1772717560147385600,5.479385498046875,-7.0197978019714355,-3.4438064098358154,-1.1706064939498901
1772717560167418400,5.49941845703125,-6.784842491149902,-2.8297815322875977,-0.3824823796749115
1772717560187450600,5.51945068359375,-5.839402675628662,-1.6237082481384277,1.60772705078125
1772717560207482600,5.539482666015625,-5.211722373962402,-1.3075381517410278,2.179551601409912
1772717560227515400,5.559515380859375,-4.407092571258545,-1.6653146743774414,2.7774417400360107
1772717560247547600,5.579547607421875,-3.3156485557556152,-2.243098735809326,3.497204065322876
1772717560267579600,5.59957958984375,-2.557756185531616,-2.1553101539611816,3.8383941650390625
1772717560287612400,5.6196123046875,-2.087050437927246,-1.7007867097854614,4.327288627624512
1772717560307644700,5.639644775390625,-1.9208027124404907,-0.7602739334106445,4.7743730545043945
1772717560327676400,5.659676513671875,-2.0002353191375732,0.2503241002559662,4.866020202636719
1772717560347709700,5.679709716796875,-1.8147563934326172,0.4953157603740692,4.655538558959961
1772717560367741700,5.69974169921875,-1.6200404167175293,0.49881893396377563,4.037877559661865
1772717560387773400,5.7197734375,-1.5096981525421143,0.08566205948591232,3.4992215633392334
1772717560407806700,5.739806640625,-1.4189003705978394,-0.11009138077497482,3.1077799797058105
1772717560427838500,5.75983837890625,-1.3304855823516846,-0.07035857439041138,2.697962522506714
1772717560447870500,5.779870361328125,-1.3254987001419067,-0.36861860752105713,2.341229200363159
1772717560467903500,5.799903564453125,-1.4359856843948364,-0.5336349010467529,2.07405161857605
1772717560487935500,5.819935546875,-1.5538418292999268,-0.9860054850578308,1.724586844444275
1772717560507967500,5.839967529296875,-1.5927603244781494,-1.4163862466812134,1.384992003440857
1772717560528000500,5.86000048828125,-1.559476613998413,-1.4496837854385376,1.2021797895431519
1772717560548032500,5.880032470703125,-1.5351026058197021,-1.224195122718811,1.0248717069625854
1772717560568064500,5.900064453125,-1.4831904172897339,-0.8574649691581726,0.792697012424469
1772717560588097500,5.92009765625,-1.44303560256958,-0.563718855381012,0.6110574007034302
1772717560608129500,5.940129638671875,-1.4046295881271362,-0.19744810461997986,0.39413982629776
1772717560628161800,5.960161865234375,-1.3146065473556519,0.7614733576774597,-0.1311279535293579
1772717560648194600,5.980194580078125,-1.2244534492492676,1.8044642210006714,-1.263891339302063
1772717560668226600,6.0002265625,-0.7378027439117432,-1.4158713817596436,-4.332481861114502
1772717560688258600,6.020258544921875,-0.4666403830051422,-4.2074503898620605,-6.048412799835205
1772717560708291600,6.04029150390625,-0.9845341444015503,-4.388809680938721,-9.15794849395752
1772717560728323600,6.060323486328125,-2.239661693572998,-3.1865034103393555,-6.511781692504883
1772717560748355600,6.08035546875,-2.747981548309326,-3.337125301361084,-4.001278400421143
1772717560768388600,6.100388671875,-2.228537082672119,-5.849903583526611,-2.73978328704834
1772717560788420400,6.12042041015625,-1.4262737035751343,-3.794311285018921,-5.175516128540039
1772717560808452600,6.14045263671875,-1.0970412492752075,-3.533953905105591,-6.328248023986816
1772717560828485400,6.1604853515625,-0.905534565448761,-1.0536932945251465,-4.7016682624816895
1772717560848517600,6.180517578125,-0.862758457660675,0.358839750289917,-2.3327507972717285
1772717560868549600,6.200549560546875,-1.1856889724731445,0.5312206745147705,-0.03580911457538605
1772717560888582400,6.22058251953125,-1.5215566158294678,0.9038048386573792,2.773972511291504
1772717560908614700,6.24061474609375,-1.5174715518951416,1.8496556282043457,4.512456893920898
1772717560928646700,6.260646728515625,-1.246772050857544,2.555176019668579,5.031705379486084
1772717560948679400,6.280679443359375,-0.9875331521034241,2.039161443710327,4.839409351348877
1772717560968711700,6.300711669921875,-0.66679847240448,0.7005506753921509,3.9577198028564453
1772717560988743400,6.320743408203125,-0.6477701663970947,0.5138949751853943,3.0586822032928467
1772717561008776700,6.340776611328125,-0.8056789636611938,1.4128608703613281,2.757982015609741
1772717561028808700,6.36080859375,-0.9071395397186279,2.010957717895508,3.0663063526153564
1772717561048840400,6.38084033203125,-0.7733410000801086,2.104196310043335,3.2094507217407227
1772717561068873700,6.400873779296875,-0.8163459300994873,1.6820390224456787,3.0453786849975586
1772717561088905500,6.420905517578125,-0.8764490485191345,1.1883454322814941,2.9295103549957275
1772717561108937500,6.4409375,-0.8620623350143433,1.0500181913375854,2.9222524166107178
1772717561128970500,6.460970458984375,-0.8234289884567261,1.007880449295044,2.941054582595825
1772717561149002500,6.48100244140625,-0.7871665358543396,0.9665545225143433,2.9587440490722656
1772717561169034500,6.501034423828125,-0.7525900602340698,0.9220579266548157,2.97420334815979
1772717561189067500,6.521067626953125,-0.7191982269287109,0.8804508447647095,2.98897385597229
1772717561209099500,6.541099609375,-0.6871895790100098,0.840915322303772,2.9962875843048096
1772717561229131500,6.561131591796875,-0.6613116264343262,0.8038672208786011,3.0057473182678223
1772717561249164500,6.58116455078125,-0.6317122578620911,0.7664405107498169,3.01499342918396
1772717561269196500,6.601196533203125,-0.6049862504005432,0.7250240445137024,3.0229289531707764
1772717561289228500,6.621228515625,-0.5771592855453491,0.6752616763114929,3.028538942337036
1772717561309261600,6.641261474609375,-0.5738713145256042,0.42386800050735474,2.887803554534912
1772717561329293600,6.66129345703125,-0.6848698258399963,-8.413789749145508,-4.3928022384643555
1772717561349325300,6.6813251953125,-0.25062769651412964,-9.976452827453613,-6.7224812507629395
1772717561369358600,6.701358642578125,-0.2509952187538147,-5.534671306610107,-11.110015869140625
1772717561389390600,6.721390625,-0.9684596061706543,1.2004897594451904,-10.853026390075684
1772717561409422300,6.74142236328125,-1.3876497745513916,-0.12367729097604752,-5.51680326461792
1772717561429455600,6.76145556640625,-1.8548870086669922,-2.359198808670044,-1.0617046356201172
1772717561449487400,6.7814873046875,-2.1403074264526367,-1.7899760007858276,0.6722857356071472
1772717561469519400,6.801519287109375,-1.977298617362976,-0.017010070383548737,-1.67361581325531
1772717561489552400,6.821552490234375,-1.2547682523727417,-3.25294828414917,-2.649364709854126
1772717561509584400,6.84158447265625,-0.23376153409481049,-3.3462467193603516,-3.2696406841278076
1772717561529616400,6.861616455078125,0.8148597478866577,-2.932624578475952,-3.3692517280578613
1772717561549649400,6.8816494140625,1.42544686794281,-2.1442861557006836,-3.4347169399261475
1772717561569681400,6.901681396484375,0.9564231038093567,-1.4025812149047852,-2.7215993404388428
1772717561589713700,6.921713623046875,-0.13782963156700134,0.14141803979873657,-2.6318559646606445
1772717561609746400,6.941746337890625,-0.9230011701583862,1.2183066606521606,-2.1571061611175537
1772717561629778400,6.9617783203125,-0.41446858644485474,0.7682565450668335,-1.1864172220230103
1772717561649810400,6.981810546875,0.02446923777461052,0.08876683562994003,0.16358111798763275
1772717561669843500,7.001843505859375,-0.32846659421920776,-0.10253985971212387,1.494279384613037
1772717561689875500,7.02187548828125,-0.8122114539146423,-0.5261715650558472,2.4633820056915283
1772717561709907500,7.041907470703125,-0.9976617097854614,-1.0242810249328613,2.7066855430603027
1772717561729940500,7.0619404296875,-0.950327455997467,-0.6812732815742493,2.4273886680603027
1772717561749972500,7.081972412109375,-0.6756330728530884,0.167017862200737,2.0530383586883545
1772717561770005500,7.102005615234375,-0.31712958216667175,1.4603618383407593,1.5459232330322266
1772717561790037500,7.12203759765625,-0.02885599434375763,1.793596863746643,1.4659299850463867
1772717561810069500,7.142069580078125,0.328058123588562,1.2025773525238037,1.6065086126327515
1772717561830102500,7.1621025390625,0.7136807441711426,1.80514657497406,1.489544153213501
1772717561850134300,7.18213427734375,0.8982247114181519,2.480248212814331,1.352898359298706
1772717561870166500,7.20216650390625,0.9484074115753174,2.2729239463806152,1.3457213640213013
1772717561890199300,7.22219921875,0.9844410419464111,2.277390241622925,1.296255350112915
1772717561910231300,7.242231201171875,1.0127015113830566,2.2911059856414795,1.2437440156936646
1772717561930263600,7.262263671875,1.0446571111679077,2.306081533432007,1.1918312311172485
1772717561950295600,7.282295654296875,1.0751898288726807,2.3090713024139404,1.1381921768188477
1772717561970328600,7.30232861328125,1.1152305603027344,2.4087448120117188,1.03480863571167
1772717561990360600,7.322360595703125,-1.771844744682312,-5.885977268218994,-3.0827295780181885
1772717562010393300,7.342393310546875,-4.718376636505127,-6.976694107055664,-5.139249801635742
1772717562030425600,7.362425537109375,-3.471025228500366,-2.6614155769348145,-3.6981329917907715
1772717562050457600,7.38245751953125,-2.3305306434631348,-2.4480178356170654,-2.054502010345459
1772717562070490400,7.402490478515625,-1.90480637550354,-2.4301278591156006,-0.6672775745391846
1772717562090522600,7.422522705078125,-1.4470447301864624,-3.9667117595672607,0.2318110316991806
1772717562110554400,7.442554443359375,-1.179197072982788,-4.814497947692871,1.3146190643310547
1772717562130586400,7.46258642578125,-0.4545555114746094,-2.655512571334839,0.026292096823453903
1772717562150619400,7.482619384765625,0.6848989725112915,-2.5294837951660156,-0.8502171039581299
1772717562170651400,7.5026513671875,1.3154332637786865,0.19783219695091248,-1.3626395463943481
1772717562190684700,7.5226845703125,1.1709421873092651,4.323744297027588,-2.0450844764709473
1772717562210716000,7.5427158203125,0.7265209555625916,4.835055351257324,-2.914314031600952
1772717562230748000,7.562747802734375,-0.4731048345565796,0.20704150199890137,-1.888024926185608
1772717562250781200,7.58278125,-1.268531084060669,-2.633965015411377,0.2921069264411926
1772717562270813000,7.60281298828125,-0.576056957244873,-2.0767881870269775,0.6531265377998352
1772717562290845200,7.62284521484375,-0.3507477939128876,0.4742543399333954,0.418965220451355
1772717562310878000,7.6428779296875,-0.3271665871143341,1.505629539489746,0.6393073201179504
1772717562330910000,7.662909912109375,-0.4795476496219635,0.25849926471710205,0.8572911620140076
1772717562350942200,7.682942138671875,-0.6336016058921814,-1.5085140466690063,1.1535978317260742
1772717562370975000,7.70297509765625,-0.4025627076625824,-1.5398532152175903,1.1089290380477905
1772717562391007000,7.723007080078125,0.15761902928352356,0.806138813495636,0.47691667079925537
1772717562411039200,7.743039306640625,0.2913101017475128,2.079596996307373,-0.036409784108400345
1772717562431072000,7.763072021484375,0.009047327563166618,1.1178025007247925,-0.16109856963157654
1772717562451104300,7.783104248046875,-0.3169735372066498,-0.06823877990245819,0.1712346076965332
1772717562471136000,7.803135986328125,-0.4100126028060913,-0.7833242416381836,0.3593132197856903
1772717562491169000,7.8231689453125,-0.39829930663108826,-0.9241630434989929,0.35791072249412537
1772717562511201000,7.843200927734375,-0.40071213245391846,-0.9258243441581726,0.3476882874965668
1772717562531233000,7.86323291015625,-0.4076749384403229,-0.9279678463935852,0.3398214876651764
1772717562551266000,7.88326611328125,-0.40769678354263306,-0.9259622693061829,0.33610397577285767
1772717562571298000,7.903298095703125,-0.41656583547592163,-0.9211702942848206,0.3323814272880554
1772717562591330000,7.923330078125,-0.41903990507125854,-0.9164250493049622,0.3235097825527191
1772717562611362800,7.94336279296875,-0.4241449236869812,-0.9158508777618408,0.31912845373153687
1772717562631395000,7.96339501953125,-0.423851877450943,-0.9077970385551453,0.3135756254196167
1772717562651427000,7.983427001953125,-0.42751023173332214,-0.9056769013404846,0.30468398332595825
1772717562671460000,8.003460205078126,-0.427677720785141,-0.9055595397949219,0.3050386309623718
1772717562691492000,8.0234921875,-0.4329143762588501,-0.9025726914405823,0.3006554841995239
1772717562711524000,8.043524169921875,-0.43344050645828247,-0.899809718132019,0.29179325699806213
1772717562731557000,8.06355712890625,-0.9180989265441895,18.179983139038086,-5.1501288414001465
1772717562751589000,8.083589111328125,-1.1091241836547852,-1.7587546110153198,-5.257175922393799
1772717562771620900,8.103620849609374,-0.18627171218395233,3.3324801921844482,1.3975037336349487
1772717562791654100,8.123654052734375,0.09777135401964188,-3.9008800983428955,3.1499154567718506
1772717562811686100,8.14368603515625,0.01619080640375614,0.8455440402030945,0.8833890557289124
1772717562831718000,8.1637177734375,1.108271837234497,1.2462811470031738,0.3615927994251251
1772717562851751200,8.183751220703124,0.8660658001899719,0.805640697479248,0.83402419090271
1772717562871783000,8.203782958984375,0.4910845458507538,0.08820656687021255,1.7064025402069092
1772717562891815000,8.22381494140625,0.457246869802475,0.2091011106967926,1.9572609663009644
1772717562911848200,8.24384814453125,0.5384959578514099,0.5744220614433289,1.1879130601882935
1772717562931880000,8.2638798828125,0.5866256356239319,0.9900750517845154,0.3145281672477722
1772717562951912200,8.283912109375,0.823645293712616,0.5927612781524658,0.3577995300292969
1772717562971945000,8.303945068359376,0.8924065232276917,-0.3903920650482178,0.6153282523155212
1772717562991977000,8.32397705078125,0.8926900625228882,-1.0407758951187134,0.6424577236175537
1772717563012009200,8.34400927734375,1.0105069875717163,-0.6503106951713562,0.54803067445755
1772717563032042000,8.3640419921875,1.0247628688812256,-0.5609471797943115,0.54758220911026
1772717563052074000,8.384073974609375,1.0224103927612305,-0.5452588200569153,0.5596159100532532
1772717563072106200,8.404106201171874,1.0175695419311523,-0.532424807548523,0.5734850168228149
1772717563092139000,8.424138916015625,1.0149625539779663,-0.5167545676231384,0.5860955119132996
1772717563112171000,8.4441708984375,1.0125223398208618,-0.5055146813392639,0.5952741503715515
1772717563132203000,8.464203125,1.0078204870224,-0.4931163489818573,0.609478235244751
1772717563152236000,8.484236083984374,1.0060940980911255,-0.48477059602737427,0.6185532808303833
1772717563172268000,8.50426806640625,1.0010528564453125,-0.47895947098731995,0.6273757815361023
1772717563192299800,8.5242998046875,0.9983117580413818,-0.4698464870452881,0.6373547911643982
1772717563212333000,8.5443330078125,0.9952003359794617,-0.4671905040740967,0.6429362297058105
1772717563232364800,8.56436474609375,0.994601309299469,-0.45668184757232666,0.6480929851531982
1772717563252396800,8.584396728515625,0.9897240996360779,-0.44026070833206177,0.641686201095581
1772717563272429800,8.604429931640626,0.4268260598182678,-1.0901987552642822,-11.613204002380371
1772717563292461800,8.6244619140625,-0.11845468729734421,0.6041862964630127,-3.818316698074341
1772717563312494000,8.644494140625,0.012928452342748642,3.58260440826416,2.586080312728882
1772717563332526800,8.66452685546875,0.37156420946121216,-0.23120330274105072,1.1729506254196167
1772717563352558800,8.684558837890625,0.2907368242740631,0.7193347215652466,0.451219767332077
1772717563372591000,8.704591064453124,0.280573308467865,-1.4985779523849487,0.07152973860502243
1772717563392623900,8.724623779296875,0.20421500504016876,-0.2795533537864685,0.24935945868492126
1772717563412655900,8.74465576171875,0.07508078962564468,0.37006476521492004,0.6016244888305664
1772717563432687900,8.76468798828125,-0.017774781212210655,0.1582462042570114,0.8233309984207153
1772717563452721000,8.784720947265624,-0.07174052298069,-0.40691494941711426,0.35377565026283264
1772717563472753000,8.8047529296875,-0.16897588968276978,-0.632992148399353,0.0062139299698174
1772717563492785000,8.824784912109376,-0.14888601005077362,-0.7327384352684021,-0.10452639311552048
1772717563512818000,8.84481787109375,-0.15214070677757263,-0.9222990870475769,0.12934421002864838
1772717563532850000,8.864849853515626,-0.08925801515579224,-0.790389895439148,0.5066090226173401
1772717563552882000,8.8848818359375,-0.06181061267852783,-0.4008810520172119,0.3484993278980255
1772717563572915000,8.9049150390625,-0.2436257302761078,-0.5470515489578247,-0.13349200785160065
1772717563592947000,8.924947021484375,-0.39755576848983765,-0.9522454738616943,-0.2063945233821869
1772717563612979000,8.94497900390625,-0.44300806522369385,-0.9048807621002197,-0.0379110649228096
1772717563633011700,8.96501171875,-0.34077295660972595,-0.745814323425293,0.07625756412744522
1772717563653044000,8.9850439453125,-0.24910661578178406,-0.6522441506385803,-0.0034628920257091522
1772717563673076000,9.005075927734374,-0.27907729148864746,-0.4666527509689331,-0.24010924994945526
1772717563693109000,9.02510888671875,-0.361519455909729,-0.32619762420654297,-0.3708081543445587
1772717563713141000,9.04514111328125,-0.41610151529312134,-0.4197852909564972,-0.20254060626029968
1772717563733173000,9.065173095703125,-0.4675637185573578,-0.5981160998344421,0.0067024147137999535
1772717563753206000,9.0852060546875,-0.4592750370502472,-0.4422038495540619,0.04410063102841377
1772717563773238000,9.105238037109375,-0.32640549540519714,-0.09355390071868896,-0.087674580514431
1772717563793269800,9.125269775390626,-0.2650053799152374,0.0715920478105545,-0.34500935673713684
1772717563813303000,9.145302978515625,-0.2729349732398987,0.21913626790046692,-0.45618242025375366
1772717563833335000,9.1653349609375,-0.2775847315788269,0.08486169576644897,-0.3721660077571869
1772717563853366800,9.18536669921875,-0.2944038510322571,-0.1504020243883133,-0.19685742259025574
1772717563873400000,9.205400146484376,-0.4547984302043915,-0.1913757175207138,-0.2710575759410858
1772717563893431800,9.225431884765625,-0.6664273142814636,-0.030763987451791763,-0.2157488614320755
1772717563913463800,9.2454638671875,-0.7544008493423462,0.057742711156606674,0.041332196444272995
1772717563933496800,9.265496826171875,-0.7432929277420044,-0.2207990288734436,-0.18015190958976746
1772717563953528800,9.28552880859375,-0.4807581901550293,-0.03272290527820587,-0.29220446944236755
1772717563973560800,9.305560791015624,-0.1834639608860016,0.7859318256378174,-0.043720830231904984
1772717563993593900,9.32559375,0.0757870078086853,1.1485379934310913,0.1271151602268219
1772717564013625900,9.3456259765625,0.08523299545049667,0.9825050830841064,0.16279415786266327
1772717564033658000,9.365658203125,0.08667611330747604,0.4490496814250946,0.10986841470003128
1772717564053691000,9.38569091796875,0.008840719237923622,-0.5575906038284302,-0.26833871006965637
1772717564073723000,9.405722900390625,-0.010787161998450756,-2.0625596046447754,-0.8293845057487488
1772717564093755000,9.4257548828125,-0.2944053113460541,0.1036580428481102,-2.405647039413452
1772717564113788000,9.445787841796875,-0.06473206728696823,-0.0609179325401783,-1.7487488985061646
1772717564133820000,9.46581982421875,0.19447338581085205,0.25806328654289246,-0.38129672408103943
1772717564153852000,9.485851806640625,0.10485225170850754,0.33042123913764954,-0.5830660462379456
1772717564173885000,9.505885009765626,-0.029468758031725883,0.1878262460231781,-0.4290675222873688
1772717564193917000,9.5259169921875,-0.20355136692523956,-0.22343051433563232,-0.2717898488044739
1772717564213949000,9.545948974609376,-0.3311944901943207,-0.482286661863327,-0.19964344799518585
1772717564233982200,9.565982177734375,-0.36559462547302246,-0.37308844923973083,0.1496070772409439
1772717564254014000,9.586013916015625,-0.2135203778743744,-0.1695675551891327,0.3713294565677643
1772717564274046000,9.6060458984375,-0.11261458694934845,-0.22903242707252502,0.302521675825119
1772717564294079000,9.626078857421875,-0.22111985087394714,-0.3600747883319855,0.08370308578014374
1772717564314111000,9.646111083984374,-0.4002613127231598,-0.28551775217056274,-0.02227150648832321
1772717564334143200,9.666143310546875,-0.35561954975128174,-0.09929383546113968,0.018325719982385635
1772717564354176000,9.686176025390624,-0.1829616129398346,0.22250349819660187,0.0319165475666523
1772717564374208000,9.7062080078125,-0.1294422149658203,0.2618378698825836,0.017072509974241257
1772717564394240300,9.726240234375,-0.2296072542667389,0.07812271267175674,0.2929755747318268
1772717564414273000,9.74627294921875,-0.39429497718811035,-0.3437585234642029,-0.03864671289920807
1772717564434305000,9.766304931640626,-0.40572792291641235,-0.3243030905723572,-0.32737377285957336
1772717564454337000,9.7863369140625,-0.2363176792860031,0.08650161325931549,-0.19083480536937714
1772717564474370000,9.8063701171875,-0.08657177537679672,0.2836601436138153,-0.025798823684453964
