time,seconds_elapsed,z,y,x
1772717616865780000,0.043780029296875,-0.8929443359375,-0.4400787353515625,-0.0104522705078125
1772717616885652700,0.06365283203125,-0.8889007568359375,-0.4443359375,-0.020294189453125
1772717616905525500,0.083525390625,-0.899932861328125,-0.4456787109375,-0.040191650390625
1772717616925397500,0.1033974609375,-0.9218292236328125,-0.434051513671875,-0.0287017822265625
1772717616945270300,0.123270263671875,-0.9175872802734375,-0.4091644287109375,-0.0991363525390625
1772717616965143600,0.1431435546875,-0.816558837890625,-0.34417724609375,-0.176055908203125
1772717616985015300,0.163015380859375,-0.8273162841796875,-0.240997314453125,-0.290863037109375
1772717617004888300,0.182888427734375,-0.8677978515625,-0.277252197265625,-0.2613067626953125
1772717617024761300,0.20276123046875,-0.870849609375,-0.3099822998046875,-0.177001953125
1772717617044633300,0.22263330078125,-0.8109588623046875,-0.3372955322265625,-0.069732666015625
1772717617064506400,0.24250634765625,-0.7679595947265625,-0.2910308837890625,-0.248291015625
1772717617084379400,0.26237939453125,-0.7569427490234375,-0.329620361328125,-0.094329833984375
1772717617104251400,0.28225146484375,-0.9842987060546875,-0.383697509765625,-0.2391357421875
1772717617124124400,0.30212451171875,-0.6969451904296875,-0.336456298828125,-0.279205322265625
1772717617143997400,0.32199755859375,-0.748931884765625,-0.332427978515625,-0.136932373046875
1772717617163869400,0.341869384765625,-0.83270263671875,-0.474700927734375,-0.0982666015625
1772717617183742200,0.3617421875,-0.9715728759765625,-0.553955078125,-0.16973876953125
1772717617203614200,0.3816142578125,-1.0918426513671875,-0.553863525390625,-0.0762176513671875
1772717617223487500,0.401487548828125,-1.1185760498046875,-0.319122314453125,0.05322265625
1772717617243360300,0.4213603515625,-1.0491790771484375,-0.2404937744140625,0.0042877197265625
1772717617263233500,0.441233642578125,-1.0962066650390625,-0.172607421875,-0.0623016357421875
1772717617283105300,0.461105224609375,-1.3031463623046875,-0.1316375732421875,-0.1790771484375
1772717617302978300,0.480978271484375,-1.3943023681640625,0.077392578125,-0.1588287353515625
1772717617322850600,0.5008505859375,-1.3515167236328125,0.124664306640625,-0.2955780029296875
1772717617342723300,0.520723388671875,-1.1453094482421875,-0.066162109375,-0.230194091796875
1772717617362596400,0.540596435546875,-0.8689422607421875,-0.25555419921875,-0.287811279296875
1772717617382468400,0.56046826171875,-0.684967041015625,-0.3758087158203125,-0.101776123046875
1772717617402341400,0.58034130859375,-0.5845489501953125,-0.484588623046875,-0.1947021484375
1772717617422214100,0.600214111328125,-0.4535675048828125,-0.490081787109375,-0.19281005859375
1772717617442086400,0.62008642578125,-0.4492034912109375,-0.6531982421875,-0.04150390625
1772717617461959400,0.63995947265625,-0.5603485107421875,-0.4771270751953125,-0.1940155029296875
1772717617481832200,0.659832275390625,-0.5323638916015625,-0.2355499267578125,-0.26593017578125
1772717617501704400,0.679704345703125,-0.517333984375,-0.19427490234375,-0.41778564453125
1772717617521577500,0.699577392578125,-0.4299468994140625,-0.1044158935546875,-0.217132568359375
1772717617541450200,0.7194501953125,-0.2306060791015625,-0.066619873046875,-0.2248077392578125
1772717617561322500,0.739322509765625,-0.2182464599609375,0.0450286865234375,-0.3196868896484375
1772717617581195300,0.7591953125,-0.1634368896484375,-0.02435302734375,-0.291412353515625
1772717617601068300,0.779068359375,0.0909576416015625,0.0488739013671875,-0.2680816650390625
1772717617620940500,0.7989404296875,0.1843414306640625,0.1754302978515625,-0.265472412109375
1772717617640813300,0.818813232421875,0.2783050537109375,0.27618408203125,-0.2796630859375
1772717617660686300,0.838686279296875,0.267364501953125,0.4243927001953125,-0.3998260498046875
1772717617680558300,0.858558349609375,0.134368896484375,0.5784149169921875,-0.7084197998046875
1772717617700431400,0.878431396484375,-0.0781402587890625,0.806976318359375,-0.96881103515625
1772717617720304000,0.89830419921875,-0.2233123779296875,0.91448974609375,-1.178314208984375
1772717617740176400,0.91817626953125,-0.348480224609375,0.94268798828125,-1.4029693603515625
1772717617760049400,0.93804931640625,-0.361083984375,1.0810089111328125,-1.6893310546875
1772717617779922200,0.957922119140625,-0.40545654296875,1.3333740234375,-1.8863067626953125
1772717617799794400,0.97779443359375,-0.4589385986328125,1.39013671875,-1.845977783203125
1772717617819667500,0.99766748046875,-0.5084381103515625,1.4037017822265625,-1.917572021484375
1772717617839540200,1.017540283203125,-0.686431884765625,1.2958831787109375,-2.09600830078125
1772717617859412500,1.03741259765625,-0.7638092041015625,1.06329345703125,-2.2350311279296875
1772717617879285200,1.05728515625,-0.67889404296875,0.8278045654296875,-2.150634765625
1772717617899159300,1.0771591796875,-0.5064544677734375,0.68353271484375,-1.95355224609375
1772717617919031000,1.097031005859375,-0.3208160400390625,0.650421142578125,-1.73748779296875
1772717617938904000,1.116904052734375,-0.2574462890625,0.617218017578125,-1.5347137451171875
1772717617958776000,1.136776123046875,-0.268768310546875,0.6283721923828125,-1.4024200439453125
1772717617978649000,1.156649169921875,-0.34320068359375,0.6238861083984375,-1.31024169921875
1772717617998522000,1.176522216796875,-0.3995513916015625,0.5339508056640625,-1.2403411865234375
1772717618018394000,1.19639404296875,-0.3756866455078125,0.4600982666015625,-1.16998291015625
1772717618038267100,1.21626708984375,-0.34722900390625,0.3656463623046875,-1.097076416015625
1772717618058140200,1.23614013671875,-0.3436431884765625,0.265045166015625,-1.04974365234375
1772717618078012000,1.256011962890625,-0.37738037109375,0.1768341064453125,-1.0721435546875
1772717618097885200,1.27588525390625,-0.42120361328125,0.10552978515625,-1.1504974365234375
1772717618117758000,1.295758056640625,-0.4150848388671875,0.0467681884765625,-1.1555023193359375
1772717618137630000,1.3156298828125,-0.4238433837890625,0.0285491943359375,-1.1115264892578125
1772717618157503200,1.335503173828125,-0.46270751953125,0.0704498291015625,-1.1052398681640625
1772717618177376000,1.3553759765625,-0.4460296630859375,0.1367950439453125,-1.128387451171875
1772717618197248000,1.375248046875,-0.3536224365234375,0.1943817138671875,-1.1209259033203125
1772717618217121000,1.39512109375,-0.2465667724609375,0.2483978271484375,-1.083404541015625
1772717618236994000,1.414994140625,-0.1923675537109375,0.3250885009765625,-1.0518646240234375
1772717618256866000,1.434865966796875,-0.211029052734375,0.4243316650390625,-1.051483154296875
1772717618276739000,1.454739013671875,-0.2605438232421875,0.498809814453125,-1.0579986572265625
1772717618296612000,1.474612060546875,-0.32574462890625,0.6025390625,-1.1871795654296875
1772717618316484000,1.494484130859375,-0.406982421875,0.72918701171875,-1.3906097412109375
1772717618336357000,1.514357177734375,-0.4403076171875,0.7946319580078125,-1.4308319091796875
1772717618356229000,1.53422900390625,-0.472137451171875,0.8021392822265625,-1.3719482421875
1772717618376102100,1.55410205078125,-0.4855804443359375,0.862945556640625,-1.4031982421875
1772717618395975200,1.57397509765625,-0.38592529296875,0.89300537109375,-1.4352874755859375
1772717618415847200,1.59384716796875,-0.306854248046875,0.8789215087890625,-1.389862060546875
1772717618435720200,1.61372021484375,-0.3685760498046875,0.91015625,-1.30206298828125
1772717618455593200,1.63359326171875,-0.414947509765625,0.9577789306640625,-1.213714599609375
1772717618475465000,1.65346484375,-0.388214111328125,0.98388671875,-1.166595458984375
1772717618495338200,1.673338134765625,-0.319488525390625,0.91217041015625,-1.0824127197265625
1772717618515211000,1.6932109375,-0.2114410400390625,0.8320159912109375,-1.0060882568359375
1772717618535083000,1.7130830078125,-0.13568115234375,0.8082427978515625,-0.9838714599609375
1772717618554956300,1.732956298828125,-0.1135711669921875,0.7700347900390625,-0.9036865234375
1772717618574829000,1.7528291015625,-0.098175048828125,0.68780517578125,-0.8234100341796875
1772717618594701000,1.772701171875,-0.1096038818359375,0.6159515380859375,-0.7696533203125
1772717618614574000,1.792573974609375,-0.0892791748046875,0.57537841796875,-0.7458343505859375
1772717618634447000,1.812447021484375,-0.0589141845703125,0.553466796875,-0.7427978515625
1772717618654319000,1.832319091796875,-0.0419158935546875,0.5042572021484375,-0.684173583984375
1772717618674192100,1.852192138671875,-0.0445404052734375,0.468597412109375,-0.610076904296875
1772717618694065200,1.872065185546875,-0.04766845703125,0.4693603515625,-0.568206787109375
1772717618713937200,1.891937255859375,-0.0585479736328125,0.4667510986328125,-0.5449371337890625
1772717618733810200,1.91181005859375,-0.046173095703125,0.4259490966796875,-0.56494140625
1772717618753683200,1.93168310546875,-0.00439453125,0.416229248046875,-0.6215972900390625
1772717618773555000,1.951554931640625,0.0507354736328125,0.432861328125,-0.653717041015625
1772717618793428200,1.97142822265625,0.0644989013671875,0.4260101318359375,-0.6834564208984375
1772717618813300200,1.99130029296875,0.05072021484375,0.392425537109375,-0.7180023193359375
1772717618833173000,2.011173095703125,0.0922698974609375,0.357940673828125,-0.727783203125
1772717618853046300,2.03104638671875,0.1292877197265625,0.3180084228515625,-0.7502288818359375
1772717618872918000,2.05091796875,0.1351470947265625,0.3305511474609375,-0.814727783203125
1772717618892791000,2.070791015625,0.08807373046875,0.3487701416015625,-0.8785552978515625
1772717618912663300,2.090663330078125,0.032684326171875,0.3543853759765625,-0.9451446533203125
1772717618932535300,2.110535400390625,-0.0066986083984375,0.366943359375,-1.04376220703125
1772717618952408300,2.130408203125,-0.042327880859375,0.387054443359375,-1.0963134765625
1772717618972281300,2.15028125,-0.0755767822265625,0.4083251953125,-1.1169586181640625
1772717618992153000,2.170153076171875,-0.11016845703125,0.42724609375,-1.1928863525390625
1772717619012026400,2.1900263671875,-0.1640777587890625,0.406768798828125,-1.292022705078125
1772717619031899100,2.209899169921875,-0.247772216796875,0.344085693359375,-1.4217987060546875
1772717619051771100,2.229771240234375,-0.3409423828125,0.2701416015625,-1.535888671875
1772717619071644400,2.24964453125,-0.333221435546875,0.224700927734375,-1.4407501220703125
1772717619091517200,2.26951708984375,-0.2531280517578125,0.145599365234375,-1.2379302978515625
1772717619111389200,2.28938916015625,-0.1291961669921875,0.073516845703125,-1.1694488525390625
1772717619131262200,2.30926220703125,-0.0396270751953125,0.04315185546875,-1.238800048828125
1772717619151135200,2.32913525390625,-0.0182952880859375,0.0295867919921875,-1.2696533203125
1772717619171007200,2.34900732421875,-0.031219482421875,0.01849365234375,-1.238037109375
1772717619190880300,2.36888037109375,-0.0181732177734375,-0.0020751953125,-1.188690185546875
1772717619210752300,2.388752197265625,-0.0184783935546875,-0.0477447509765625,-1.1741790771484375
1772717619230625300,2.408625244140625,-0.065460205078125,-0.087982177734375,-1.2099456787109375
1772717619250498300,2.428498291015625,-0.1063079833984375,-0.0851898193359375,-1.2234954833984375
1772717619270370300,2.448370361328125,-0.1226348876953125,-0.062164306640625,-1.154449462890625
1772717619290243000,2.4682431640625,-0.1269073486328125,-0.0900115966796875,-1.1390838623046875
1772717619310116400,2.488116455078125,-0.103729248046875,-0.0705718994140625,-1.1956634521484375
1772717619329988400,2.50798828125,-0.0979461669921875,-0.037322998046875,-1.1959228515625
1772717619349861000,2.527861083984375,-0.0633392333984375,0.01611328125,-1.2113189697265625
1772717619369734400,2.547734375,-0.016387939453125,0.0428466796875,-1.2433929443359375
1772717619389606100,2.567606201171875,0.0508270263671875,0.057342529296875,-1.247711181640625
1772717619409479200,2.587479248046875,0.072601318359375,0.054351806640625,-1.2693023681640625
1772717619429352200,2.607352294921875,0.037384033203125,0.069732666015625,-1.3140411376953125
1772717619449224200,2.62722412109375,-0.0210723876953125,0.1045379638671875,-1.3291473388671875
1772717619469097200,2.64709716796875,-0.04962158203125,0.157135009765625,-1.3490753173828125
1772717619488970200,2.66697021484375,-0.0536956787109375,0.1933135986328125,-1.3839569091796875
1772717619508842200,2.68684228515625,-0.06640625,0.2211151123046875,-1.4313812255859375
1772717619528715000,2.706715087890625,-0.0563507080078125,0.2673187255859375,-1.4220123291015625
1772717619548588300,2.72658837890625,-0.031036376953125,0.3023529052734375,-1.3541107177734375
1772717619568460300,2.746460205078125,-0.037750244140625,0.320159912109375,-1.3065948486328125
1772717619588333000,2.7663330078125,-0.069671630859375,0.31341552734375,-1.2917633056640625
1772717619608206300,2.786206298828125,-0.058807373046875,0.3169708251953125,-1.258209228515625
1772717619628078300,2.806078369140625,-0.0243377685546875,0.2905426025390625,-1.11834716796875
1772717619647951000,2.825951171875,0.0172271728515625,0.272796630859375,-0.9261016845703125
1772717619667823400,2.8458232421875,0.0197296142578125,0.26837158203125,-0.79595947265625
1772717619687696100,2.865696044921875,-0.022186279296875,0.2217254638671875,-0.74951171875
1772717619707569200,2.885569091796875,-0.0720977783203125,0.167877197265625,-0.8103485107421875
1772717619727441400,2.90544140625,-0.0565948486328125,0.1624298095703125,-0.8220672607421875
1772717619747314200,2.925314208984375,-0.0334014892578125,0.1492767333984375,-0.728057861328125
1772717619767187200,2.945187255859375,-0.0162200927734375,0.1458282470703125,-0.658203125
1772717619787059200,2.96505908203125,-0.0253448486328125,0.136138916015625,-0.67181396484375
1772717619806932200,2.98493212890625,-0.0257415771484375,0.132415771484375,-0.6953277587890625
1772717619826805000,3.004804931640625,0.018707275390625,0.134735107421875,-0.654022216796875
1772717619846677200,3.02467724609375,0.0535430908203125,0.125152587890625,-0.6157989501953125
1772717619866550300,3.04455029296875,0.0643463134765625,0.1148223876953125,-0.6355133056640625
1772717619886423000,3.064423095703125,0.0928802490234375,0.10150146484375,-0.6716461181640625
1772717619906296000,3.084296142578125,0.12408447265625,0.0962066650390625,-0.688568115234375
1772717619926168800,3.1041689453125,0.10968017578125,0.090484619140625,-0.7183837890625
1772717619946042000,3.1240419921875,0.102142333984375,0.1097564697265625,-0.7486572265625
1772717619965914000,3.1439140625,0.0933380126953125,0.1234283447265625,-0.761932373046875
1772717619985787000,3.163786865234375,0.0510711669921875,0.1337890625,-0.8103485107421875
1772717620005659000,3.183658935546875,0.01800537109375,0.147125244140625,-0.8665008544921875
1772717620025532000,3.203531982421875,-0.00189208984375,0.1583709716796875,-0.8975372314453125
1772717620045405000,3.223405029296875,-0.0293731689453125,0.17474365234375,-0.94476318359375
1772717620065277000,3.24327685546875,-0.0595703125,0.188507080078125,-1.0147705078125
1772717620085150000,3.26314990234375,-0.0640716552734375,0.19183349609375,-1.0655059814453125
1772717620105023000,3.28302294921875,-0.0593719482421875,0.1910247802734375,-1.097198486328125
1772717620124895000,3.30289501953125,-0.0880584716796875,0.1475372314453125,-1.1783294677734375
1772717620144768000,3.32276806640625,-0.132354736328125,0.134674072265625,-1.3277587890625
1772717620164641000,3.34264111328125,-0.18829345703125,0.10089111328125,-1.458099365234375
1772717620184512800,3.3625126953125,-0.223541259765625,0.09381103515625,-1.4586944580078125
1772717620204386000,3.382385986328125,-0.1981048583984375,0.0876007080078125,-1.2878875732421875
1772717620224258800,3.4022587890625,-0.18084716796875,0.100830078125,-1.1925048828125
1772717620244131000,3.422131103515625,-0.194488525390625,0.0986328125,-1.197296142578125
1772717620264004000,3.442004150390625,-0.19598388671875,0.0962982177734375,-1.246307373046875
1772717620283875800,3.461875732421875,-0.1956939697265625,0.0793609619140625,-1.2286224365234375
1772717620303749000,3.4817490234375,-0.192779541015625,0.0552215576171875,-1.1793060302734375
1772717620323622000,3.501621826171875,-0.1763458251953125,0.0211334228515625,-1.1570892333984375
1772717620343494000,3.521493896484375,-0.17547607421875,0.005096435546875,-1.145355224609375
1772717620363367200,3.5413671875,-0.204010009765625,-0.01953125,-1.124114990234375
1772717620383240000,3.561239990234375,-0.1980133056640625,-0.03564453125,-1.117095947265625
1772717620403112000,3.58111181640625,-0.18634033203125,-0.059478759765625,-1.154998779296875
1772717620422985000,3.60098486328125,-0.1695709228515625,-0.0860748291015625,-1.203033447265625
1772717620442858000,3.62085791015625,-0.1751861572265625,-0.0994873046875,-1.2190704345703125
1772717620462730000,3.64072998046875,-0.1682586669921875,-0.1024017333984375,-1.17974853515625
1772717620482603000,3.66060302734375,-0.1563568115234375,-0.107177734375,-1.130889892578125
1772717620502476000,3.68047607421875,-0.1635894775390625,-0.038909912109375,-1.136962890625
1772717620522348000,3.70034814453125,-0.1898040771484375,0.004638671875,-1.1435546875
1772717620542221000,3.720220947265625,-0.185150146484375,0.0256195068359375,-1.1234588623046875
1772717620562094000,3.740093994140625,-0.1660919189453125,0.0498046875,-1.0923309326171875
1772717620581965800,3.7599658203125,-0.15203857421875,0.08282470703125,-1.08099365234375
1772717620601839000,3.779839111328125,-0.162200927734375,0.114044189453125,-1.098541259765625
1772717620621712000,3.7997119140625,-0.1593017578125,0.1333160400390625,-1.1143035888671875
1772717620641583900,3.819583984375,-0.1414947509765625,0.132965087890625,-1.13604736328125
1772717620661457200,3.83945703125,-0.1298980712890625,0.13348388671875,-1.16058349609375
1772717620681329000,3.859328857421875,-0.121826171875,0.13055419921875,-1.190216064453125
1772717620701202000,3.879201904296875,-0.12786865234375,0.131988525390625,-1.2265625
1772717620721075000,3.899074951171875,-0.173370361328125,0.146759033203125,-1.2147369384765625
1772717620740947000,3.918947021484375,-0.188507080078125,0.1512451171875,-1.2243804931640625
1772717620760820000,3.938820068359375,-0.16168212890625,0.1595001220703125,-1.23529052734375
1772717620780693000,3.95869287109375,-0.1247711181640625,0.163604736328125,-1.2162017822265625
1772717620800565000,3.97856494140625,-0.0998992919921875,0.1686248779296875,-1.155792236328125
1772717620820438000,3.99843798828125,-0.0793609619140625,0.166534423828125,-1.108489990234375
1772717620840311000,4.01831103515625,-0.070037841796875,0.1763763427734375,-1.081817626953125
1772717620860183000,4.03818310546875,-0.0637359619140625,0.1817626953125,-1.0292816162109375
1772717620880055800,4.058055908203125,-0.0895843505859375,0.176361083984375,-0.969970703125
1772717620899929000,4.07792919921875,-0.1019134521484375,0.148101806640625,-0.921844482421875
1772717620919800800,4.09780078125,-0.100128173828125,0.14068603515625,-0.9135894775390625
1772717620939673900,4.117673828125,-0.1038970947265625,0.1367950439453125,-0.890594482421875
1772717620959545900,4.1375458984375,-0.124847412109375,0.137786865234375,-0.8437042236328125
1772717620979419000,4.1574189453125,-0.140472412109375,0.1396331787109375,-0.8079376220703125
1772717620999292000,4.1772919921875,-0.1445465087890625,0.14581298828125,-0.7916412353515625
1772717621019164000,4.197163818359375,-0.13330078125,0.1441802978515625,-0.7787933349609375
1772717621039036700,4.21703662109375,-0.1129608154296875,0.1376800537109375,-0.77801513671875
1772717621058910000,4.236909912109375,-0.095245361328125,0.1324005126953125,-0.783966064453125
1772717621078782000,4.256781982421875,-0.081634521484375,0.1211090087890625,-0.7902984619140625
1772717621098654700,4.27665478515625,-0.0556182861328125,0.11688232421875,-0.7938690185546875
1772717621118528000,4.296528076171875,-0.0237884521484375,0.10845947265625,-0.784149169921875
1772717621138399700,4.316399658203125,-0.021636962890625,0.099395751953125,-0.797637939453125
1772717621158272800,4.336272705078125,-0.0386810302734375,0.09356689453125,-0.82720947265625
1772717621178145800,4.356145751953125,-0.032867431640625,0.0862884521484375,-0.8323822021484375
1772717621198017800,4.376017822265625,-0.0277252197265625,0.08074951171875,-0.82159423828125
1772717621217890800,4.395890869140625,-0.0269012451171875,0.0815887451171875,-0.8309173583984375
1772717621237763800,4.415763916015625,-0.0185394287109375,0.07733154296875,-0.86407470703125
1772717621257635800,4.4356357421875,-0.000762939453125,0.071533203125,-0.89068603515625
1772717621277508600,4.455508544921875,0.00653076171875,0.06683349609375,-0.9106597900390625
1772717621297380900,4.475380859375,0.011077880859375,0.0669708251953125,-0.93072509765625
1772717621317254000,4.49525390625,-0.008697509765625,0.0627593994140625,-0.9560089111328125
1772717621337126700,4.515126708984375,-0.0480194091796875,0.0703277587890625,-0.9798431396484375
1772717621356999000,4.5349990234375,-0.076690673828125,0.078857421875,-0.981781005859375
1772717621376872000,4.554871826171875,-0.0941619873046875,0.0854644775390625,-0.9987945556640625
1772717621396744700,4.57474462890625,-0.0853729248046875,0.092620849609375,-1.036376953125
1772717621416617000,4.594616943359375,-0.0541839599609375,0.096832275390625,-1.05792236328125
1772717621436489700,4.61448974609375,-0.0560302734375,0.0926666259765625,-1.097198486328125
1772717621456363000,4.634363037109375,-0.071319580078125,0.0766143798828125,-1.1363677978515625
1772717621476235000,4.654235107421875,-0.0760955810546875,0.0533447265625,-1.2007904052734375
1772717621496107800,4.674107666015625,-0.0759735107421875,0.0409393310546875,-1.2417144775390625
1772717621515981000,4.69398095703125,-0.0662384033203125,0.0212554931640625,-1.2205657958984375
1772717621535852800,4.713852783203125,-0.0877685546875,0.0103759765625,-1.1751861572265625
1772717621555725800,4.733725830078125,-0.1266326904296875,0.0126190185546875,-1.1576080322265625
1772717621575597800,4.753597900390625,-0.16204833984375,0.0155792236328125,-1.169891357421875
1772717621595470800,4.773470947265625,-0.1634368896484375,0.0043487548828125,-1.160614013671875
1772717621615343900,4.79334375,-0.1543426513671875,-0.0053253173828125,-1.1493682861328125
1772717621635216000,4.8132158203125,-0.1191558837890625,0.0310516357421875,-1.104339599609375
1772717621655089000,4.8330888671875,-0.126708984375,0.05413818359375,-1.0166015625
1772717621674962000,4.8529619140625,-0.1489410400390625,0.08026123046875,-0.97283935546875
1772717621694833700,4.872833740234375,-0.17608642578125,0.068878173828125,-0.9784698486328125
1772717621714707000,4.89270703125,-0.1911773681640625,0.031005859375,-1.028289794921875
1772717621734579700,4.912579833984375,-0.1981048583984375,-0.01055908203125,-1.0770111083984375
1772717621754451700,4.93245166015625,-0.208831787109375,-0.0655670166015625,-1.15838623046875
1772717621774325000,4.952324951171875,-0.1875152587890625,-0.0712890625,-1.2659759521484375
1772717621794197800,4.97219775390625,-0.1672515869140625,-0.0453948974609375,-1.2890167236328125
1772717621814069800,4.99206982421875,-0.13336181640625,-0.007568359375,-1.1788177490234375
1772717621833942800,5.01194287109375,-0.115509033203125,-0.0009918212890625,-1.1121368408203125
1772717621853814800,5.031814697265625,-0.1059112548828125,0.013641357421875,-1.1184539794921875
1772717621873687800,5.051687744140625,-0.0978851318359375,0.039764404296875,-1.1383056640625
1772717621893560800,5.071560791015625,-0.079559326171875,0.06439208984375,-1.128570556640625
1772717621913433000,5.09143310546875,-0.0683135986328125,0.07843017578125,-1.1085205078125
1772717621933305900,5.111305908203125,-0.06671142578125,0.083526611328125,-1.0884552001953125
1772717621953179100,5.13117919921875,-0.0806121826171875,0.0946502685546875,-1.0751495361328125
1772717621973051100,5.151051025390625,-0.099029541015625,0.1045684814453125,-1.0679779052734375
1772717621992924000,5.170923828125,-0.124847412109375,0.117950439453125,-1.07745361328125
1772717622012797200,5.190797119140625,-0.140869140625,0.1165618896484375,-1.087890625
1772717622032669200,5.210669189453125,-0.137176513671875,0.1092987060546875,-1.09979248046875
1772717622052542000,5.2305419921875,-0.135833740234375,0.1068572998046875,-1.1142578125
1772717622072415200,5.250415283203125,-0.12554931640625,0.1081695556640625,-1.1075286865234375
1772717622092287000,5.270286865234375,-0.114593505859375,0.1116180419921875,-1.09307861328125
1772717622112160000,5.290159912109375,-0.1049346923828125,0.1091461181640625,-1.066802978515625
1772717622132032000,5.310031982421875,-0.1002197265625,0.1070404052734375,-1.0382080078125
1772717622151905000,5.329905029296875,-0.1481781005859375,0.11773681640625,-1.0214385986328125
1772717622171778000,5.349778076171875,-0.1999969482421875,0.117645263671875,-1.022186279296875
1772717622191649800,5.36964990234375,-0.1707916259765625,0.1217803955078125,-1.02239990234375
1772717622211523000,5.389523193359375,-0.0758514404296875,0.112945556640625,-0.9936370849609375
1772717622231395800,5.409395751953125,0.00323486328125,0.086090087890625,-0.9501190185546875
1772717622251267800,5.429267822265625,0.01287841796875,0.0763092041015625,-0.9258575439453125
1772717622271141000,5.44914111328125,-0.0153045654296875,0.087371826171875,-0.92510986328125
1772717622291014000,5.469013916015625,-0.03851318359375,0.098602294921875,-0.9296417236328125
1772717622310886000,5.488885986328125,-0.05596923828125,0.090850830078125,-0.928314208984375
1772717622330759200,5.50875927734375,-0.043670654296875,0.0921173095703125,-0.899932861328125
1772717622350632000,5.5286318359375,-0.01556396484375,0.0867767333984375,-0.8650665283203125
1772717622370504000,5.54850390625,-0.0088958740234375,0.0796661376953125,-0.83428955078125
1772717622390377000,5.568376953125,-0.025054931640625,0.080657958984375,-0.8348541259765625
1772717622410249000,5.5882490234375,-0.0339813232421875,0.074554443359375,-0.8405914306640625
1772717622430122000,5.6081220703125,-0.0192718505859375,0.071044921875,-0.84429931640625
1772717622449995000,5.6279951171875,-0.0098114013671875,0.0646514892578125,-0.86376953125
1772717622469867000,5.647866943359375,0.0115966796875,0.0780181884765625,-0.875244140625
1772717622489739800,5.66773974609375,0.042999267578125,0.1064910888671875,-0.8282928466796875
1772717622509613000,5.687613037109375,0.0381927490234375,0.1067962646484375,-0.7506866455078125
1772717622529485000,5.707485107421875,0.02392578125,0.0987091064453125,-0.73773193359375
1772717622549358000,5.727358154296875,0.000518798828125,0.0777435302734375,-0.797698974609375
1772717622569231000,5.747231201171875,-0.015289306640625,0.068695068359375,-0.866302490234375
1772717622589103000,5.76710302734375,-0.0317230224609375,0.06500244140625,-0.9207916259765625
1772717622608976100,5.78697607421875,-0.05352783203125,0.04681396484375,-0.9784698486328125
1772717622628849200,5.80684912109375,-0.0655059814453125,0.0361175537109375,-1.0066070556640625
1772717622648721000,5.826720947265625,-0.0500640869140625,0.044647216796875,-1.01348876953125
1772717622668594200,5.84659423828125,-0.04345703125,0.04949951171875,-1.0191650390625
1772717622688466200,5.866466064453125,-0.017852783203125,0.066802978515625,-0.9969024658203125
1772717622708339000,5.8863388671875,-0.018585205078125,0.0795440673828125,-0.9606781005859375
1772717622728212200,5.906212158203125,-0.0524749755859375,0.0947113037109375,-0.9474945068359375
1772717622748084000,5.926083984375,-0.1018524169921875,0.0974884033203125,-0.937835693359375
1772717622767957000,5.94595703125,-0.121429443359375,0.1055755615234375,-0.9126129150390625
1772717622787830000,5.965830078125,-0.0902862548828125,0.1300048828125,-0.8962249755859375
1772717622807702000,5.985701904296875,-0.0481719970703125,0.1444244384765625,-0.8977508544921875
1772717622827575000,6.005574951171875,-0.033203125,0.1432037353515625,-0.9329681396484375
1772717622847448000,6.025447998046875,-0.01641845703125,0.14910888671875,-0.9681549072265625
1772717622867320000,6.045320068359375,-0.012054443359375,0.159332275390625,-1.01251220703125
1772717622887193000,6.065193115234375,-0.03082275390625,0.174591064453125,-1.0513916015625
1772717622907065600,6.085065673828125,-0.0318603515625,0.189971923828125,-1.0577392578125
1772717622926937600,6.1049375,-0.0780792236328125,0.1463165283203125,-1.0775146484375
1772717622946810400,6.124810302734375,-0.1732025146484375,0.0599517822265625,-1.1580657958984375
1772717622966682400,6.144682373046875,-0.2284393310546875,0.0114593505859375,-1.331512451171875
1772717622986555600,6.1645556640625,-0.1947479248046875,0.0956878662109375,-1.387542724609375
1772717623006428400,6.184428466796875,-0.1826171875,0.1284027099609375,-1.199188232421875
1772717623026300400,6.204300537109375,-0.1412200927734375,0.1312255859375,-1.0636749267578125
1772717623046173700,6.224173583984375,-0.117095947265625,0.1397247314453125,-1.066864013671875
1772717623066046500,6.24404638671875,-0.1536712646484375,0.145751953125,-1.08056640625
1772717623085918500,6.26391845703125,-0.164520263671875,0.1651458740234375,-1.0596771240234375
1772717623105791500,6.28379150390625,-0.203125,0.1485595703125,-1.0180206298828125
1772717623125664500,6.30366455078125,-0.232940673828125,0.13555908203125,-1.0294189453125
1772717623145536500,6.32353662109375,-0.21954345703125,0.12628173828125,-1.034149169921875
1772717623165409500,6.343409423828125,-0.196929931640625,0.1100006103515625,-1.0343017578125
1772717623185281500,6.363281494140625,-0.1707763671875,0.1057586669921875,-1.0631866455078125
1772717623205154300,6.383154296875,-0.158203125,0.09698486328125,-1.0848541259765625
1772717623225027600,6.403027587890625,-0.117950439453125,0.1007232666015625,-1.074615478515625
1772717623244899600,6.422899658203125,-0.092437744140625,0.092864990234375,-1.065521240234375
1772717623264772400,6.4427724609375,-0.0931854248046875,0.0965423583984375,-1.072967529296875
1772717623284645600,6.462645751953125,-0.1050872802734375,0.1004486083984375,-1.0678253173828125
1772717623304517600,6.482517578125,-0.0943603515625,0.1129608154296875,-1.0331268310546875
1772717623324390400,6.502390380859375,-0.0863800048828125,0.11456298828125,-1.0201568603515625
1772717623344263700,6.522263671875,-0.10076904296875,0.115997314453125,-1.0169677734375
1772717623364135400,6.542135498046875,-0.1417388916015625,0.1046142578125,-1.01800537109375
1772717623384008400,6.562008544921875,-0.168426513671875,0.108673095703125,-1.0430145263671875
1772717623403880700,6.581880615234375,-0.1708526611328125,0.123870849609375,-1.0638580322265625
1772717623423753500,6.60175341796875,-0.17401123046875,0.11932373046875,-1.0923004150390625
1772717623443626500,6.62162646484375,-0.1819915771484375,0.1085357666015625,-1.122283935546875
1772717623463498500,6.64149853515625,-0.1851959228515625,0.0962066650390625,-1.1693267822265625
1772717623483371500,6.66137158203125,-0.1627044677734375,0.089996337890625,-1.205047607421875
1772717623503244300,6.681244384765625,-0.1440582275390625,0.0931243896484375,-1.2122039794921875
1772717623523116500,6.701116455078125,-0.13690185546875,0.0935821533203125,-1.207916259765625
1772717623542989600,6.720989501953125,-0.094757080078125,0.1011199951171875,-1.184478759765625
1772717623562862300,6.7408623046875,-0.0595550537109375,0.1128692626953125,-1.1547698974609375
1772717623582734600,6.760734619140625,-0.0439453125,0.13519287109375,-1.1481475830078125
1772717623602607600,6.780607666015625,-0.0281982421875,0.1648712158203125,-1.1448822021484375
1772717623622480600,6.800480712890625,0.0005340576171875,0.2081146240234375,-1.0587921142578125
1772717623642352600,6.8203525390625,0.0371246337890625,0.235321044921875,-0.902679443359375
1772717623662225400,6.840225341796875,0.0229949951171875,0.2015838623046875,-0.7789764404296875
1772717623682097400,6.860097412109375,-0.0277099609375,0.1643829345703125,-0.8258819580078125
1772717623701970700,6.879970703125,-0.096099853515625,0.15802001953125,-0.9326171875
1772717623721843500,6.899843505859375,-0.153839111328125,0.132720947265625,-0.9985809326171875
1772717623741715500,6.919715576171875,-0.1483001708984375,0.12750244140625,-1.0093841552734375
1772717623761588500,6.93958837890625,-0.1015625,0.14776611328125,-0.9649810791015625
1772717623781461500,6.95946142578125,-0.0750274658203125,0.1500701904296875,-0.9124755859375
1772717623801333500,6.97933349609375,-0.0550079345703125,0.1507415771484375,-0.8792877197265625
1772717623821206500,6.99920654296875,-0.043182373046875,0.157012939453125,-0.85333251953125
1772717623841079600,7.01907958984375,-0.025482177734375,0.162628173828125,-0.8262176513671875
1772717623860951300,7.038951416015625,-0.02362060546875,0.1452484130859375,-0.817291259765625
1772717623880824600,7.058824462890625,-0.0249786376953125,0.1455535888671875,-0.8326416015625
1772717623900696600,7.078696533203125,-0.025146484375,0.1531524658203125,-0.829010009765625
1772717623920569900,7.09856982421875,-0.04193115234375,0.1569366455078125,-0.807769775390625
1772717623940443100,7.118443115234375,-0.067108154296875,0.1571044921875,-0.8089752197265625
1772717623960315000,7.13831494140625,-0.0720062255859375,0.154510498046875,-0.8253326416015625
1772717623980188200,7.158188232421875,-0.047607421875,0.1385040283203125,-0.8343505859375
1772717624000061000,7.17806103515625,-0.0321807861328125,0.11346435546875,-0.8508758544921875
1772717624019933000,7.197932861328125,-0.0326995849609375,0.1033782958984375,-0.8983154296875
1772717624039806200,7.21780615234375,-0.029632568359375,0.103515625,-0.9361114501953125
1772717624059679000,7.237678955078125,-0.0170440673828125,0.1087493896484375,-0.93408203125
1772717624079551000,7.257551025390625,-0.0155029296875,0.1214141845703125,-0.922149658203125
1772717624099424000,7.277424072265625,-0.0373687744140625,0.1346282958984375,-0.9339752197265625
1772717624119297000,7.297297119140625,-0.0725555419921875,0.137420654296875,-0.96044921875
1772717624139169000,7.3171689453125,-0.0870208740234375,0.1436920166015625,-1.005096435546875
1772717624159042000,7.3370419921875,-0.0414276123046875,0.157684326171875,-1.0194549560546875
1772717624178914000,7.3569140625,-0.00213623046875,0.1444549560546875,-0.962738037109375
1772717624198787000,7.376787109375,0.010498046875,0.1289825439453125,-0.9183197021484375
1772717624218660000,7.39666015625,-0.0149383544921875,0.1072540283203125,-0.919952392578125
1772717624238532000,7.416531982421875,-0.0806884765625,0.07916259765625,-0.97796630859375
1772717624258404900,7.43640478515625,-0.1176605224609375,0.07257080078125,-1.0641937255859375
1772717624278278100,7.456278076171875,-0.1052703857421875,0.0582122802734375,-1.109222412109375
1772717624298150100,7.476150146484375,-0.0542449951171875,0.0587615966796875,-1.09906005859375
1772717624318023000,7.49602294921875,-0.030242919921875,0.0533447265625,-1.0673370361328125
1772717624337896200,7.515896240234375,-0.0498046875,0.0646820068359375,-1.0788116455078125
1772717624357768000,7.535767822265625,-0.10186767578125,0.0809173583984375,-1.1018829345703125
1772717624377641000,7.555640869140625,-0.126922607421875,0.087310791015625,-1.1044158935546875
1772717624397513000,7.575512939453125,-0.134979248046875,0.0860443115234375,-1.06707763671875
1772717624417386000,7.595385986328125,-0.1505279541015625,0.057373046875,-1.0404205322265625
1772717624437259000,7.615259033203125,-0.1611785888671875,0.0206146240234375,-1.0658721923828125
1772717624457131000,7.635131103515625,-0.1551055908203125,-0.019622802734375,-1.09649658203125
1772717624477004000,7.655004150390625,-0.1543121337890625,-0.0520782470703125,-1.120697021484375
1772717624496877000,7.674876953125,-0.15911865234375,-0.0725555419921875,-1.1456451416015625
1772717624516748800,7.694748779296875,-0.153717041015625,-0.0787353515625,-1.148193359375
1772717624536622000,7.7146220703125,-0.1570587158203125,-0.05877685546875,-1.13836669921875
1772717624556494800,7.734494873046875,-0.1656646728515625,-0.021240234375,-1.118438720703125
1772717624576366800,7.754366943359375,-0.183197021484375,-0.0002899169921875,-1.0801239013671875
1772717624596240100,7.774240234375,-0.199798583984375,0.007904052734375,-1.0623321533203125
1772717624616111900,7.79411181640625,-0.2126312255859375,0.01910400390625,-1.0679931640625
1772717624635985000,7.81398486328125,-0.1928558349609375,0.03472900390625,-1.045013427734375
1772717624655858000,7.83385791015625,-0.16632080078125,0.0533905029296875,-1.009033203125
1772717624675730000,7.85372998046875,-0.1780242919921875,0.059906005859375,-1.0027923583984375
1772717624695603200,7.873603271484375,-0.185638427734375,0.0609130859375,-1.0405731201171875
1772717624715476000,7.89347607421875,-0.178009033203125,0.061279296875,-1.0945281982421875
1772717624735348000,7.913347900390625,-0.171539306640625,0.042938232421875,-1.1268310546875
1772717624755221200,7.93322119140625,-0.1700286865234375,0.0300140380859375,-1.12872314453125
1772717624775094000,7.953093994140625,-0.1932220458984375,0.02197265625,-1.1280364990234375
1772717624794966000,7.972966064453125,-0.27001953125,0.0032501220703125,-1.1598052978515625
1772717624814839000,7.992839111328125,-0.3582763671875,0.0014495849609375,-1.233306884765625
1772717624834711000,8.0127109375,-0.39703369140625,0.0030059814453125,-1.2800750732421875
1772717624854584000,8.032583984375,-0.4080963134765625,0.0229644775390625,-1.268218994140625
1772717624874457000,8.05245703125,-0.3887176513671875,0.0273590087890625,-1.2435760498046875
1772717624894329000,8.0723291015625,-0.4008636474609375,-0.006500244140625,-1.2606353759765625
1772717624914201600,8.09220166015625,-0.3990631103515625,0.0243988037109375,-1.23443603515625
1772717624934074400,8.112074462890625,-0.4296417236328125,0.055511474609375,-1.1429901123046875
1772717624953946400,8.1319462890625,-0.4607391357421875,0.049713134765625,-1.022003173828125
1772717624973819400,8.1518193359375,-0.427703857421875,0.040924072265625,-0.9101104736328125
1772717624993692400,8.1716923828125,-0.42706298828125,0.052764892578125,-0.84857177734375
1772717625013564400,8.191564453125,-0.5213623046875,0.0475311279296875,-0.8656158447265625
1772717625033437400,8.2114375,-0.5868072509765625,0.0196075439453125,-0.88409423828125
1772717625053310500,8.231310546875,-0.5074310302734375,0.053924560546875,-0.864837646484375
1772717625073182500,8.251182373046875,-0.4436492919921875,0.01904296875,-0.7598724365234375
1772717625093055500,8.271055419921876,-0.4549102783203125,-0.024871826171875,-0.6804656982421875
1772717625112927500,8.290927490234376,-0.53363037109375,-0.024749755859375,-0.689483642578125
1772717625132800300,8.31080029296875,-0.6295166015625,-0.045745849609375,-0.7023773193359375
1772717625152673500,8.330673583984375,-0.6585540771484375,-0.0748748779296875,-0.658935546875
1772717625172545500,8.350545654296875,-0.660858154296875,-0.100555419921875,-0.5997467041015625
1772717625192418300,8.370418212890625,-0.6449127197265625,-0.1356353759765625,-0.5910797119140625
1772717625212291600,8.39029150390625,-0.67340087890625,-0.1468963623046875,-0.59283447265625
1772717625232163300,8.410163330078126,-0.6922149658203125,-0.133148193359375,-0.52752685546875
1772717625252036400,8.430036376953124,-0.71929931640625,-0.1514129638671875,-0.491943359375
1772717625271909400,8.449909423828124,-0.740509033203125,-0.160369873046875,-0.4700775146484375
1772717625291781400,8.469781494140625,-0.7401580810546875,-0.2059326171875,-0.4234161376953125
1772717625311654400,8.489654296875,-0.69793701171875,-0.2418060302734375,-0.4025115966796875
1772717625331526400,8.5095263671875,-0.7021484375,-0.228363037109375,-0.43145751953125
1772717625351399400,8.5293994140625,-0.8062591552734375,-0.2203216552734375,-0.4202117919921875
1772717625371272400,8.5492724609375,-0.8557281494140625,-0.2166900634765625,-0.3980255126953125
1772717625391144200,8.569144287109374,-0.84912109375,-0.2156524658203125,-0.405364990234375
1772717625411017500,8.589017578125,-0.79205322265625,-0.22216796875,-0.3758392333984375
1772717625430890200,8.60889013671875,-0.7313385009765625,-0.24053955078125,-0.3543701171875
1772717625450762200,8.62876220703125,-0.717254638671875,-0.2344512939453125,-0.3607635498046875
1772717625470635500,8.648635498046875,-0.70220947265625,-0.2646331787109375,-0.353729248046875
1772717625490507300,8.66850732421875,-0.667938232421875,-0.247283935546875,-0.34814453125
1772717625510380500,8.688380615234376,-0.6994171142578125,-0.2434844970703125,-0.37103271484375
1772717625530253300,8.70825341796875,-0.722808837890625,-0.236114501953125,-0.3702239990234375
1772717625550125300,8.728125244140625,-0.6746826171875,-0.2425384521484375,-0.3459320068359375
1772717625569998600,8.74799853515625,-0.6505584716796875,-0.262908935546875,-0.404510498046875
1772717625589871400,8.767871337890625,-0.6558837890625,-0.2523193359375,-0.4424285888671875
1772717625609743400,8.787743408203125,-0.697479248046875,-0.2250823974609375,-0.4143829345703125
1772717625629616400,8.807616455078126,-0.7537689208984375,-0.22247314453125,-0.4211578369140625
1772717625649489400,8.827489501953124,-0.792083740234375,-0.219757080078125,-0.4308013916015625
1772717625669361400,8.847361328125,-0.807281494140625,-0.2180938720703125,-0.4292144775390625
1772717625689234400,8.867234375,-0.84600830078125,-0.2267913818359375,-0.440338134765625
1772717625709106400,8.8871064453125,-0.880340576171875,-0.2332916259765625,-0.437530517578125
1772717625728979500,8.9069794921875,-0.861114501953125,-0.277618408203125,-0.4670867919921875
1772717625748852500,8.9268525390625,-0.8185882568359375,-0.295379638671875,-0.514404296875
1772717625768724500,8.946724365234376,-0.86419677734375,-0.270294189453125,-0.4168548583984375
1772717625788597200,8.96659716796875,-0.95025634765625,-0.2791290283203125,-0.483642578125
1772717625808470500,8.986470458984375,-0.9228057861328125,-0.1761016845703125,-0.3785552978515625
1772717625828342500,9.006342529296875,-0.7490692138671875,-0.2872161865234375,-0.3779144287109375
1772717625848215300,9.02621533203125,-0.97357177734375,-0.3547210693359375,-0.3051910400390625
1772717625868088600,9.046088623046876,-1.2750701904296875,-0.377227783203125,-0.3016510009765625
1772717625887960300,9.065960205078126,-1.2412109375,-0.3114471435546875,-0.2890777587890625
1772717625907833300,9.085833251953124,-1.259918212890625,-0.0630035400390625,-0.5059051513671875
1772717625927705300,9.105705322265624,-1.189422607421875,0.1490325927734375,-0.53509521484375
1772717625947578400,9.125578369140625,-1.2646331787109375,0.2813568115234375,-0.517730712890625
1772717625967451400,9.145451416015625,-1.26287841796875,0.3283538818359375,-0.476806640625
1772717625987323400,9.165323486328125,-1.1602020263671875,0.340576171875,-0.3851776123046875
1772717626007196400,9.185196533203126,-1.14080810546875,0.2973480224609375,-0.316925048828125
1772717626027069400,9.2050693359375,-1.10833740234375,0.07220458984375,-0.1737823486328125
1772717626046941200,9.224941162109374,-1.010833740234375,-0.024017333984375,-0.1495513916015625
1772717626066814500,9.244814453125,-0.9502105712890625,-0.0008392333984375,-0.179107666015625
1772717626086687200,9.264687255859375,-0.906097412109375,0.0022430419921875,-0.142425537109375
1772717626106559200,9.284559326171875,-0.8526611328125,-0.032318115234375,-0.0784454345703125
1772717626126432500,9.3044326171875,-0.8273468017578125,-0.0413360595703125,-0.065277099609375
1772717626146305300,9.32430517578125,-0.8422698974609375,-0.02777099609375,-0.0997772216796875
1772717626166177300,9.34417724609375,-0.8863067626953125,-0.0271148681640625,-0.10797119140625
1772717626186050300,9.36405029296875,-0.9149017333984375,-0.0230865478515625,-0.105224609375
1772717626205922300,9.38392236328125,-0.9120941162109375,-0.0397491455078125,-0.1327667236328125
1772717626225795300,9.40379541015625,-0.8683013916015625,-0.064788818359375,-0.134185791015625
1772717626245668400,9.42366845703125,-0.8348541259765625,-0.0870361328125,-0.129608154296875
1772717626265540400,9.443540283203125,-0.9120025634765625,-0.1780548095703125,-0.106353759765625
1772717626285413400,9.463413330078126,-0.915374755859375,-0.1114654541015625,-0.15380859375
1772717626305286400,9.483286376953124,-0.9570465087890625,-0.111175537109375,-0.1935272216796875
1772717626325158400,9.503158447265625,-1.0655364990234375,-0.0656890869140625,-0.1549835205078125
