time,seconds_elapsed,z,y,x
1772717438259461600,0.083461669921875,0.9580430676341056,1.7991349955797193,-0.6964522786036134
1772717438279493600,0.10349365234375,1.7884908519685268,1.7613167215779422,0.18306567997857928
1772717438299526700,0.123526611328125,1.8875830943614242,1.704725650306046,0.7143950547903776
1772717438319559700,0.1435595703125,1.347498312294483,1.599701387515664,0.08140322177149355
1772717438339591400,0.16359130859375,0.7204378420859575,1.5613257718920708,-0.6550125992342829
1772717438359624700,0.183624755859375,0.3879302270501852,1.607661406609416,-0.9421383000809699
1772717438379656400,0.203656494140625,-0.14867898786067962,1.0350871443480252,-1.2422886099345982
1772717438399689700,0.223689697265625,0.24312486575245856,0.550020192886889,-1.8625930300116538
1772717438419721700,0.2437216796875,-0.35654724679291244,-0.0007458499312400817,-2.139226782134175
1772717438439754500,0.26375439453125,-2.7380297106295823,0.014468378074467181,-2.3439241559453308
1772717438459787500,0.28378759765625,-6.280045315125585,0.020680968979001044,-2.328314645011723
1772717438479819500,0.303819580078125,-7.832678077474236,0.09507014726996421,-2.4222537424251436
1772717438499852500,0.3238525390625,-7.16348877658844,0.22338643832057714,-1.2978560372471808
1772717438519884500,0.343884521484375,-5.573078364509343,-0.2612809924289584,0.0249566735368222
1772717438539917800,0.363917724609375,-3.213603734341264,-2.100812295804918,-0.4865708532180637
1772717438559950600,0.38395068359375,-1.452505916211009,-3.7226328684091565,-1.224943726575747
1772717438579982600,0.403982666015625,-1.6879881582558154,-3.421750810214877,-1.292939623633027
1772717438600015600,0.424015625,-2.7584032210946083,-1.9845476770758628,-1.140177531177178
1772717438620047600,0.444047607421875,-1.0134364535540341,-0.7447862475313246,-1.3965189483121037
1772717438640080600,0.46408056640625,1.3088766129553318,-0.45527211717814203,0.037596740205585955
1772717438660112600,0.484112548828125,2.861321743777394,-0.37751390084549785,1.529541809618473
1772717438680145400,0.5041455078125,3.770210027620196,-0.2310067040659487,1.365084676259011
1772717438700178700,0.5241787109375,5.147743412694335,0.15873115692809223,1.034925231784582
1772717438720210400,0.54421044921875,6.639799249005318,0.151341485068202,0.6320315366193652
1772717438740243700,0.56424365234375,7.394283737599849,0.236395995888859,0.2507635439373553
1772717438760275700,0.584275634765625,7.472703778842091,0.594508884563297,-0.024299232541397212
1772717438780308500,0.60430859375,7.786062456771731,0.8295286236628889,-0.23666429143622517
1772717438800340700,0.6243408203125,8.292941134807467,0.8253475385859608,0.15203523948602377
1772717438820373500,0.64437353515625,7.208596915337443,1.08829646422714,0.8370257744852453
1772717438840406800,0.66440673828125,4.9269753401786085,0.8213178446784615,1.6438519332788883
1772717438860438500,0.6844384765625,1.3659376398265362,0.3534712003484368,3.0180004982203243
1772717438880471800,0.704471923828125,-1.4652449862748385,1.1566127523452043,3.104906335996091
1772717438900503600,0.724503662109375,-3.420941247397661,2.5324603762894866,0.37634474746827035
1772717438920536600,0.74453662109375,-7.467287014490365,-1.3937629276022314,0.8811758087918162
1772717438940568600,0.764568603515625,-9.733794607147574,-2.4742291365951297,0.9964240170199423
1772717438960601600,0.7846015625,-9.356764544296263,1.06588794080317,-1.6572257941149173
1772717438980634600,0.804634521484375,-9.447717319375275,0.6419228160366416,-1.6917200382605193
1772717439000666600,0.82466650390625,-6.954895710512996,-2.2848107265889643,-2.1297242097735403
1772717439020699400,0.844699462890625,-4.818232056865096,-2.900236873105168,-1.1634436943437902
1772717439040731600,0.864731689453125,-4.3638311695635315,-2.1043021837472913,0.4095203467633575
1772717439060764700,0.8847646484375,-2.0003800369799136,-2.4564830520242453,0.4672684425832703
1772717439080797400,0.90479736328125,1.3343366329044102,-2.7036986942216754,-0.8432389499116688
1772717439100829400,0.924829345703125,3.7560587526708837,-1.743029077476263,-1.6759414543703197
1772717439120862500,0.944862548828125,5.3144326890200375,-0.22993132991939783,-1.8154691675260661
1772717439140894500,0.96489453125,5.52366346847713,1.2071966921567916,-1.7407799833752213
1772717439160927500,0.984927490234375,5.317575663220882,1.7697689081028103,-1.46846862449646
1772717439180959500,1.00495947265625,6.2247840311527245,1.9592703202173112,-2.029532481706142
1772717439200992300,1.0249921875,8.276407933157682,2.1371436922498046,-2.9700340474307536
1772717439221025500,1.045025634765625,6.308782164788246,2.0678467225313186,-2.324901037175953
1772717439241057300,1.065057373046875,2.44226280349195,3.9733267081111667,-1.4406589726813137
1772717439261090600,1.085090576171875,0.9153881672561168,2.1751291395120322,0.763755298025906
1772717439281122600,1.10512255859375,3.745879303961992,2.283593459753692,0.7628608334042132
1772717439301155300,1.1251552734375,5.5465247041046615,3.3819209041297436,0.8086384689126164
1772717439321187600,1.1451875,1.8645698830425739,0.32050548094436526,1.7547718299791215
1772717439341220400,1.165220458984375,-6.288068462583422,0.3834403682850301,-0.3981223891101777
1772717439361253400,1.18525341796875,-17.242286323207615,2.3135564902104435,-3.9835853595361113
1772717439381285400,1.205285400390625,-24.937342813408375,3.735002520638704,-4.156663752377033
1772717439401318400,1.225318359375,-19.710765517973897,4.1347526570811866,-3.7648324262350794
1772717439421350400,1.245350341796875,-7.412481073069572,-1.8718401663064956,-4.876549805799127
1772717439441383400,1.265383544921875,10.818625733351707,-11.686327435803413,-2.1445003386229273
1772717439461415400,1.28541552734375,17.202843955135343,-5.520557903677225,8.268009522646665
1772717439481448400,1.305448486328125,13.57198453053832,1.9775468584030866,6.893934753593802
1772717439501481500,1.3254814453125,0.37681554331779477,1.619015159794688,7.048103571042418
1772717439521513500,1.345513427734375,-7.242328504547476,2.4847505306094884,3.0725559720113873
1772717439541546200,1.365546142578125,1.7580027747243643,1.757616990277171,0.30947599127739667
1772717439561578500,1.38557861328125,7.828554275542497,1.536234146863967,-0.5609334357630461
1772717439581611500,1.405611572265625,11.0862268687129,0.4666008089873939,0.5078570946138352
1772717439601643300,1.425643310546875,11.872399457991122,-0.05126589419376105,2.364368539689481
1772717439621676500,1.445676513671875,11.658243497091531,0.28645876137055454,2.684198751720786
1772717439641709300,1.465709228515625,10.928553258013725,-0.6254551539037376,0.8975865531057119
1772717439661741600,1.485741455078125,9.887394684797524,-0.7039988945908844,-2.580073191335797
1772717439681774300,1.5057744140625,6.010207799014449,0.09428703406825661,-5.962031504866481
1772717439701806300,1.525806396484375,-2.6158248881965873,0.2830788366086781,-8.576633573269843
1772717439721839400,1.54583935546875,-11.537978118288516,-0.3865198487956077,-8.318961711248756
1772717439741871400,1.565871337890625,-6.795234140866994,3.3582696871683,-3.6188285028025504
1772717439761904400,1.585904296875,-3.9716175661057234,5.1507542849481105,0.4559098305597901
1772717439781937400,1.6059375,-12.195394563794135,4.061729214185476,4.453723037412763
1772717439801969400,1.625969482421875,-25.689589752209184,6.032792555788159,9.280105667507648
1772717439822002400,1.64600244140625,-26.74122178864479,9.447813765487075,10.50404891180396
1772717439842034400,1.666034423828125,-20.628186652362345,8.778207115972041,11.2196872446537
1772717439862067500,1.6860673828125,-7.943058022078871,3.8261557867258786,7.661268202367425
1772717439882099500,1.706099365234375,1.3287883511275052,-1.9828096012368797,3.656821841110289
1772717439902132500,1.726132568359375,6.876820537185669,-5.8484244149088855,-0.3272320857856422
1772717439922164500,1.74616455078125,9.150527685958146,-7.309699913030863,-2.1172344382956623
1772717439942197200,1.766197265625,10.689684880661964,-5.4646969002455466,-4.2237721260100605
1772717439962230500,1.78623046875,8.737485229483246,-1.1485934042796493,-4.299690998086333
1772717439982262300,1.80626220703125,7.748705078279972,1.498472425355017,-3.0010210141077636
1772717440002295600,1.826295654296875,10.208077422004937,4.404904353708028,-4.330623311966657
1772717440022327300,1.846327392578125,8.368461947476863,6.626446430957317,-4.058104301686584
1772717440042360600,1.866360595703125,6.8364265674769875,6.525494239911437,-4.071710509973764
1772717440062392600,1.886392578125,6.020366789457202,4.0262110338196155,-4.080653402625024
1772717440082425900,1.90642578125,7.393682264575362,0.9512451511222869,-5.957161853003502
1772717440102459000,1.926458984375,8.950846240612863,-0.8233817914709448,-6.217824129012227
1772717440122491000,1.946490966796875,7.565610026076436,-1.117687832275778,-3.9718297475516793
1772717440142523600,1.966523681640625,5.245677717223763,-0.7619526325181126,-3.517017356839776
1772717440162556000,1.986555908203125,-0.9753267953902482,-1.5958920583605765,-3.9528663961455224
1772717440182589000,2.0065888671875,-3.0613632546067238,-2.7084762838870287,-5.591725197312235
1772717440202620700,2.02662060546875,-4.7488078075051305,-2.20708568187356,-5.898952825140952
1772717440222654000,2.046654052734375,-7.71174342110753,-2.095095671723783,-6.698711456701159
1772717440242685700,2.066685791015625,-2.620008311361074,-1.6499436742827296,-6.161722302561998
1772717440262719000,2.086718994140625,-0.11109715296328067,-2.679479906505346,-6.508035155588388
1772717440282751700,2.106751708984375,-5.748685106784105,-0.8513045482717454,-5.806316627019643
1772717440302783700,2.12678369140625,-12.181235105538368,0.45736978357713665,-6.811417213904857
1772717440322816800,2.146816650390625,-21.545850947856902,3.4217268448173996,-2.3054171690270304
1772717440342848800,2.166848876953125,-27.651666069757937,12.498320695036648,3.1065108485832806
1772717440362881800,2.1868818359375,-28.039463610339162,12.097495330578088,7.6933368268013
1772717440382913800,2.206913818359375,-15.078616589212416,4.917101596418023,8.181140217489004
1772717440402947000,2.226947021484375,-1.6479747122973203,0.7057169505551457,11.976935352742672
1772717440422979800,2.246979736328125,4.177960222905874,-0.45493572483062744,13.931080877292155
1772717440443011800,2.26701171875,5.582409087434411,-0.7390081025213002,11.543213096332549
1772717440463044900,2.287044921875,8.530729315707086,0.4901689507752657,8.087005305242538
1772717440483076900,2.307076904296875,10.747164425206183,2.504878249619901,4.480490925090015
1772717440503110000,2.32710986328125,11.273285563850402,4.846192076936364,1.7093422041907906
1772717440523142000,2.347141845703125,11.1467681389153,6.953386474993825,-0.20230971148964016
1772717440543174700,2.367174560546875,11.581125186097621,6.356199749523401,-1.5833835821822284
1772717440563207000,2.38720703125,13.02900461155176,4.69397731616497,-4.734507771734893
1772717440583239700,2.40723974609375,14.113985959881543,2.5924410899996757,-7.967979697367548
1772717440603273000,2.42727294921875,12.14984394197464,-0.0519177091659978,-8.0059666059345
1772717440623305000,2.447304931640625,9.815428349739312,-1.4863810055449604,-7.954657274457812
1772717440643337700,2.467337646484375,8.258352051985263,-1.175318183467537,-9.047924805095791
1772717440663370000,2.487369873046875,2.917899955567717,-0.7630730148501694,-9.82147347512245
1772717440683402800,2.50740283203125,-4.075122364243865,0.13031594043523073,-7.327134447434545
1772717440703435000,2.52743505859375,-8.530534669917822,0.4723185290470719,-6.513623769375681
1772717440723467800,2.5474677734375,-9.26844620937407,0.662882894217968,-6.750589527976513
1772717440743499800,2.567499755859375,-7.812458296266198,0.0409529187656939,-8.501321434915065
1772717440763532800,2.58753271484375,-8.695826354405284,-0.540060816669464,-7.076133733740448
1772717440783565800,2.60756591796875,-10.4904728063941,-1.5776351016581058,-1.7700018400758504
1772717440803597800,2.627597900390625,-12.699957366102932,2.804920642119646,2.704264803671837
1772717440823630800,2.647630859375,-22.224831574916838,7.913748925486207,8.777156145614384
1772717440843662800,2.667662841796875,-20.088591115117072,9.123022423917055,12.259252411198615
1772717440863696000,2.68769580078125,-13.135916003262995,5.158444839450716,9.25936449277401
1772717440883728000,2.707727783203125,-7.40450234927535,1.876738459742069,8.109553821659087
1772717440903761000,2.727760986328125,-4.5667029353827235,1.2115334061868488,7.848894468259811
1772717440923793000,2.74779296875,-0.23498715200424192,0.24812588891014456,6.560625759047269
1772717440943826000,2.767825927734375,4.717772617772221,-0.28400355023816226,1.8004000470794737
1772717440963859000,2.78785888671875,8.646922330504655,-0.0892231017421931,-2.3672584159120915
1772717440983890700,2.807890625,9.39308498095572,0.46192697195746,-3.3047230981588362
1772717441003924000,2.827924072265625,9.612455461633205,0.724654436867684,-3.8998254185706376
1772717441023955700,2.847955810546875,10.782801555776595,0.7602592726036905,-5.444342094480991
1772717441043989000,2.867989013671875,11.246879202961921,0.06686211638753302,-6.118206985962391
1772717441064021000,2.88802099609375,10.768402443546057,-0.8711481896437704,-6.089594054940343
1772717441084054300,2.90805419921875,10.803112522399426,-1.0673710189677774,-5.139680517747998
1772717441104087000,2.928087158203125,10.561260745322704,-1.832346068046987,-4.304219873687624
1772717441124119300,2.948119384765625,10.543888754761218,-2.1341507940441367,-3.4877836635708808
1772717441144152000,2.968152099609375,10.919904672133923,-1.8508911940410733,-3.3558117726221677
1772717441164184000,2.98818408203125,10.477190130972861,-1.2965705274812875,-4.16402726688236
1772717441184217000,3.008217041015625,7.450041280657053,-0.6821415753088891,-4.694571190404892
1772717441204249000,3.0282490234375,3.63601549218595,0.34690731178820133,-4.648001454670727
1772717441224282400,3.048282470703125,1.4699825361907481,0.7399974058195948,-5.251200280037522
1772717441244314000,3.068314208984375,1.0715601412206888,2.1626500355586407,-8.008893891558051
1772717441264347100,3.08834716796875,-1.3935861097306013,4.012089861747622,-11.325292814463376
1772717441284380200,3.108380126953125,-8.621367618009447,6.058896718859672,-10.724725798904895
1772717441304412200,3.128412109375,-18.71654288345575,9.563549684166908,-8.47559311941862
1772717441324445200,3.148445068359375,-24.7869687120676,12.887812180054187,-6.6417772710800165
1772717441344477200,3.168477294921875,-21.81310838434696,11.171923622959852,-5.316258150881529
1772717441364510000,3.188510009765625,-15.544077215188741,8.21846486275494,-1.7799606317713856
1772717441384542200,3.208542236328125,-16.888609663414954,7.137859829813242,3.7156393562600014
1772717441404575200,3.2285751953125,-16.221272712397575,5.110566651466488,4.782729658590257
1772717441424607200,3.248607177734375,-12.251790404754876,2.708236629912257,3.26818960327059
1772717441444640300,3.26864013671875,-8.05027804134786,1.692627216233313,1.2975056163743137
1772717441464673300,3.28867333984375,-4.5787598684012885,1.0357578832164407,0.365385363895446
1772717441484705300,3.308705322265625,0.3793798408478498,0.6575090922251343,0.23337650193721055
1772717441504738000,3.328738037109375,5.551940299412608,1.039195310319215,0.5466502780623733
1772717441524770300,3.348770263671875,8.778588224244118,0.651236003305018,0.8212164301306009
1772717441544803000,3.368802978515625,11.250175906419754,-0.0600920468638651,0.4669285796370357
1772717441564835000,3.3888349609375,11.702980464440584,0.05894011861607432,-0.7566713311143219
1772717441584868000,3.4088681640625,11.021697990179062,0.6080455347456037,-1.3820768737226723
1772717441604900000,3.428900146484375,11.667135244077443,0.6661066785700619,-1.9722244943365455
1772717441624933000,3.44893310546875,11.824917575848103,1.3013725209355353,-2.6857489037722346
1772717441644966100,3.468966064453125,11.806996134710312,2.861167137737572,-2.132268633559346
1772717441664998400,3.488998291015625,12.141232765495776,4.2141438814431424,-1.6919193602249025
1772717441685031200,3.50903125,12.394933970320224,4.976317755496502,-1.465900527574122
1772717441705063200,3.529063232421875,11.581553056120871,5.952083526825905,-0.958615022303164
1772717441725096200,3.54909619140625,9.530210893666744,5.001822783631086,-0.5991168167501688
1772717441745128200,3.569128173828125,8.154537457245588,3.9918966762855645,0.3293300809781998
1772717441765161200,3.5891611328125,7.083752392050624,1.2004404958948491,2.088050867778808
1772717441785193200,3.609193115234375,7.337782682698965,1.8050825058072804,0.9684400315511971
1772717441805226000,3.62922607421875,-1.623342375344038,7.021786642003059,-1.478207343700528
1772717441825259300,3.64925927734375,-26.072678384447098,11.440988401132822,-3.2605981252282854
1772717441845291300,3.669291259765625,-37.60525318238735,8.864723369908333,-1.1737073872700332
1772717441865324300,3.68932421875,-24.06881810413599,3.1878558373615142,-3.2557831261619925
1772717441885356300,3.709356201171875,-11.241166086012125,-3.2815950282886623,-6.055234104698896
1772717441905389000,3.72938916015625,-10.938515849101544,-5.573407450333237,-5.8094385584324595
1772717441925421300,3.74942138671875,-9.177254364842176,-3.9724823662415143,-2.9917426058918237
1772717441945454000,3.7694541015625,-5.711937384623289,-2.144391325290501,0.5042198340900242
1772717441965487400,3.7894873046875,-1.2743687786757945,-1.9266130822405219,1.5784930336616931
1772717441985519000,3.80951904296875,0.9836270062237977,-2.1891788537830115,2.758894219481945
1772717442005552400,3.829552490234375,0.5930944877207279,-1.4921867692142725,4.823137949085235
1772717442025584000,3.849584228515625,1.1997802784204483,-1.7236850561894475,3.9613612527683375
1772717442045617200,3.8696171875,2.6966151657015085,-2.143328079973161,2.2036863948240875
1772717442065649200,3.889649169921875,4.41044036052525,-1.8988724040083587,1.5808793442763387
1772717442085681400,3.909681396484375,6.351877794671058,-0.8037976778179406,2.4400664624914525
1772717442105713400,3.92971337890625,8.833886917617917,-0.2893137306765653,2.639315653899312
1772717442125746200,3.94974609375,11.05842116242051,0.45453569266237315,2.5841981623113153
1772717442145779500,3.969779541015625,11.949561023604868,1.2989930784530936,1.9105365383170545
1772717442165811200,3.989811279296875,11.066453662228584,2.1100443806611002,1.2461474773198364
1772717442185844500,4.009844482421875,9.983100791883468,2.8840070383161303,0.8159455039903522
1772717442205876200,4.029876220703125,10.004412459981442,2.9863755259007214,-0.3706296942897141
1772717442225909200,4.0499091796875,9.669114337444304,3.4994954364135857,-1.3358072899788618
1772717442245941500,4.06994140625,7.388665897718072,2.4174887199804185,-0.9287222806036471
1772717442265974300,4.089974365234375,7.410645089814066,0.8675387669749558,-0.004606050757039338
1772717442286006500,4.110006591796875,9.306275881552695,-2.1285335386842488,0.255240798949264
1772717442306039300,4.130039306640625,15.433924065077305,0.12207067465931176,-4.18855205180794
1772717442326072600,4.150072509765625,9.27161665610373,7.190911621043085,-3.410916696989536
1772717442346104300,4.170104248046875,-22.869456343388556,14.842600678682327,2.0480970430530605
1772717442366137300,4.190137451171875,-34.270074155688285,16.637485031080246,2.2108684152826665
1772717442386169300,4.21016943359375,-34.47519223912954,11.6612093611598,-4.036638319809734
1772717442406202400,4.230202392578125,-31.054488307619092,2.4351912576705215,-9.426441307112574
1772717442426234400,4.250234375,-20.514401283228395,-1.1077116510540246,-6.271975990438461
1772717442446267400,4.270267333984375,-11.331658257842063,-0.8316856555663049,0.887470525021851
1772717442466299400,4.29029931640625,-5.5121893037825815,-0.2671791105568409,5.042644623363017
1772717442486332400,4.31033251953125,-1.076621516263485,-1.123243712837249,4.635253324517607
1772717442506364400,4.330364501953125,2.9774212350726126,-2.262547456854582,2.934191749677062
1772717442526397200,4.350397216796875,7.245329439929128,-2.1020470982968806,1.2632535104215143
1772717442546430500,4.370430419921875,9.519270397457479,-1.0599146385472267,1.4481165952108799
1772717442566462200,4.390462158203125,9.837211142480372,-0.8486039110109209,2.2611153782248494
1772717442586498300,4.410498291015625,9.687132809215784,-0.8165700656294822,1.5401473747849463
1772717442606530300,4.4305302734375,9.896289938914775,-0.5596643656753003,0.5295356963280589
1772717442626563300,4.450563232421875,10.50604446953535,-0.20760025564581155,-0.6437565342698246
1772717442646595300,4.47059521484375,10.299982967764139,0.6985800844125449,-0.492882374452427
1772717442666628400,4.49062841796875,10.36786817098856,1.9039765952795742,0.20137166345454752
1772717442686661000,4.5106611328125,10.146586888253688,2.6665467751741407,0.8127752033911645
1772717442706693400,4.530693359375,9.009446313619613,2.8573683299764987,0.4554671282935887
1772717442726726400,4.550726318359375,6.657656977257132,3.0311688996121284,-0.9641109893709421
1772717442746758400,4.57075830078125,3.765991533142328,2.281038514573872,0.030647724785283208
1772717442766791400,4.59079150390625,3.7699861557364462,0.24680530783087012,1.168408184883371
1772717442786823200,4.6108232421875,3.430870520737767,-2.148827554172277,3.2321815935611724
1772717442806856400,4.6308564453125,0.007552607336640357,-2.721901874910295,0.9469413164485245
1772717442826888400,4.650888427734375,-7.439291923105716,-2.047918325485289,-3.528960015828907
1772717442846921500,4.67092138671875,-12.770631907784939,-2.725945305082202,2.1017456311322746
1772717442866954200,4.690954345703125,-13.7570663726449,2.517403384672105,-0.0032242592761293053
1772717442886986200,4.710986328125,-15.824952842664718,1.5056047614529728,0.28426229250589385
1772717442907019300,4.731019287109375,-13.770594547259806,-0.20465075819045303,-0.4859051558509469
1772717442927051300,4.75105126953125,-13.12112058519125,-3.1668437367320057,0.16963084620293228
1772717442947084500,4.77108447265625,-8.079657280567288,-4.812869653049111,-3.3439205515593287
1772717442967116300,4.7911162109375,-7.320770757621526,-4.9751592331111425,-2.3765897233590483
1772717442987149300,4.8111494140625,-3.5475592100977895,-1.8657772130057215,0.09640636430978775
1772717443007182300,4.831182373046875,0.48020109899044033,0.6134729666218162,2.085869285956025
1772717443027214300,4.85121435546875,2.03278183889091,0.16343378166109324,2.0438933077529073
1772717443047247400,4.871247314453125,3.8289123919576404,-0.4597629988566041,0.1394539537997916
1772717443067279400,4.891279296875,4.491219532114267,0.42139556653946636,-0.5208807172400877
1772717443087313000,4.91131298828125,4.4151831711381675,1.5148451757460832,0.28561606346871704
1772717443107345000,4.931344970703125,4.387412536159157,2.121921427068114,0.6412340300548821
1772717443127378000,4.9513779296875,5.177481548354029,1.6366414173781871,0.7726678686041385
1772717443147410000,4.971409912109375,6.73593497968018,1.4615911399424075,0.3245697712412104
1772717443167443000,4.99144287109375,7.823264352440834,1.1786238008841872,0.8113955856010318
1772717443187476000,5.01147607421875,7.624301869019866,0.9305325448960066,1.1741822382401674
1772717443207508000,5.031508056640625,6.230483119577169,1.1051461844801902,1.3516431570142506
1772717443227541000,5.051541015625,4.3385891762793065,1.7815341646984217,0.5934349351888523
1772717443247573000,5.071572998046875,4.220560762748122,2.4284809463769195,-0.21549590426646173
1772717443267606000,5.09160595703125,5.064224587008357,2.716202494224906,0.10446769748670048
1772717443287638000,5.111637939453125,4.869143328934908,1.8162819452136754,1.3289477794729172
1772717443307670800,5.1316708984375,2.82647254871428,1.648314904037118,0.8880467905398458
1772717443327703000,5.151703125,0.8066174114137887,1.128587850344181,-0.9580478168744593
1772717443347735800,5.17173583984375,-2.46124807446897,-1.7585314747735856,0.16608835129048674
1772717443367769000,5.19176904296875,-4.721614095631241,-4.048927892540395,0.7257165131412446
1772717443387800800,5.21180078125,-0.7752367692440748,-0.40153848116397856,-4.716144724309444
1772717443407833900,5.231833740234375,-0.5060848973095416,2.6215780448958275,-4.972028533869982
1772717443427865900,5.251865966796875,-9.393746075212954,7.145424712109565,1.6868150228232144
1772717443447899000,5.27189892578125,-15.715959383982419,3.5023441038429737,4.927520114579797
1772717443467931100,5.29193115234375,-10.21210010164976,-0.8964045037142931,-1.5127876586943865
1772717443487964000,5.3119638671875,-2.284212760695815,-4.251676031979918,-4.809993220829964
1772717443507996000,5.331995849609375,2.3188854301482436,-4.524042774307728,-2.6618717691004274
1772717443528029000,5.35202880859375,3.6239503758609293,-2.9576462750226256,0.9075513361506163
1772717443548062000,5.37206201171875,3.1958670021206137,-1.2328896440789103,2.7326541550710797
1772717443568094000,5.392093994140625,2.572872466176748,-1.3790645401641726,3.818725052203238
1772717443588127000,5.412126953125,0.8334709315478801,-1.8703496354877949,2.8700425181105733
1772717443608158700,5.43215869140625,0.04750117136538028,-2.4369497917756435,1.0644435872137545
1772717443628192000,5.45219189453125,-0.3014700872153044,-1.565014397276938,-0.7501107304897159
1772717443648224000,5.47222412109375,-0.8758142817586659,-0.044602088923007245,-0.2916458816848695
1772717443668257000,5.492257080078125,-1.685338520529866,0.7359687348254025,1.4728450860150157
1772717443688289000,5.5122890625,-1.168306697270274,0.6562357112884522,2.069012405309826
1772717443708321800,5.53232177734375,0.360240840613842,0.06945800549909473,1.3476593480750918
1772717443728354800,5.552354736328125,1.1350848111480474,-0.30228622590377924,0.6209348269350826
1772717443748386800,5.57238671875,0.3202385005712509,-0.4708839661993086,0.7716604451272636
1772717443768420000,5.592420166015625,-0.7744412349522113,-0.3295594327546656,0.4737948121447116
1772717443788451800,5.612451904296875,-1.1733680723130702,-0.18194266729801892,-0.12721759082740172
1772717443808485000,5.632485107421875,-0.5857768581837416,-0.2962446076519787,-0.6794170457158237
1772717443828516900,5.652516845703125,-0.17222411409914493,-0.6089364922359586,-0.6990957057844847
1772717443848550000,5.6725498046875,0.25904022776484487,-0.6690922702521085,-0.7603900593765079
1772717443868582000,5.692581787109375,0.48708033711016174,-0.6513789189070462,-0.5654954099163413
1772717443888615000,5.712614990234375,1.337673668372631,-0.6918821942090988,-0.2952645471060648
1772717443908647000,5.73264697265625,1.9315192667216061,-0.6757575733602047,0.07682331923586316
1772717443928680000,5.752679931640625,2.1476970888376234,-0.6086217271983623,0.4383095842003822
1772717443948712700,5.772712646484375,2.351276126143336,-0.5796428854733705,0.7412411953356116
1772717443968745000,5.792744873046875,2.424540684318542,-0.3752101539477706,1.2307388957858085
1772717443988778000,5.812778076171875,1.7109066770285366,0.1423310801386833,1.6523641794279216
1772717444008810000,5.83281005859375,0.40056408317387104,0.9363666578769684,2.2631524370104072
1772717444028843000,5.852843017578125,0.15116262136995792,1.2229691385671495,2.8877757431998847
1772717444048874800,5.872874755859375,-0.22361294055283068,1.3980895586296915,2.694137085150182
1772717444068908000,5.892907958984375,-0.3748398593306541,1.6786188568860292,1.577363445109874
1772717444088939500,5.912939453125,-0.34974224295318124,1.1371999036058782,1.4225171667911112
1772717444108972300,5.93297216796875,-0.11690554698109626,0.6992226200997829,0.5184082261793315
1772717444129005300,5.95300537109375,-0.07042845796644687,0.1551616278782487,-0.867844179662317
1772717444149037300,5.973037353515625,-1.626428650921583,-1.0975269416481255,-1.060176723549515
1772717444169070600,5.993070556640625,-5.5394660177648065,-1.9245812841519712,-2.206744028829038
1772717444189102300,6.013102294921875,-7.35293524364531,-2.3014582022681833,-2.919812511190772
1772717444209135600,6.033135498046875,-7.760709404328465,-2.5579987221717833,-1.8433543687954543
1772717444229167400,6.05316748046875,-6.576125525996089,-1.5627479136496782,-0.10135697245448827
1772717444249200400,6.073200439453125,-3.983579806578159,-1.2407757211536168,1.87147776273489
1772717444269232400,6.093232421875,-1.7145733828425407,-1.5156564921289681,2.527837977185845
1772717444289265400,6.113265380859375,-0.8387626082152128,-3.3227579365432263,2.7669202895492315
1772717444309298400,6.13329833984375,0.16062719980776308,-3.2484120128720995,1.821114772197604
1772717444329330400,6.153330322265625,0.580714314097166,-2.472947864612937,1.62896167653054
1772717444349363200,6.17336328125,0.4225438597917556,-1.0192863486260175,0.9023404696345328
1772717444369395500,6.1933955078125,0.8204887003779411,0.3252501912534237,0.5556332104630768
1772717444389428500,6.213428466796875,1.9176538229763507,1.0658142910450696,0.07033990290015936
1772717444409460200,6.233460205078125,2.906609915268421,1.3437830911636353,-0.627461233029142
1772717444429493500,6.253493408203125,4.469553059229255,2.1798305952012536,0.15475180496834218
1772717444449525200,6.273525146484375,5.687595555049181,4.378878516569733,0.18559249504245817
1772717444469558500,6.29355859375,5.672214446043968,4.867933953145146,-0.05897873359341174
1772717444489591300,6.31359130859375,5.2960494755893945,5.090907426750659,-1.3370742411747574
1772717444509623600,6.33362353515625,5.067676188766956,4.18028077480793,-2.501554365894198
1772717444529656300,6.35365625,5.253576361519098,3.981778894636035,-3.1615593665882944
1772717444549688300,6.373688232421875,5.63837998098135,4.078849275812506,-3.063597297269106
1772717444569721300,6.393721435546875,5.405384879577159,4.400981627306342,-3.2304213058903812
1772717444589753300,6.41375341796875,4.08915498124957,3.9677737501591444,-3.411055228677392
1772717444609786600,6.43378662109375,1.0251625471830368,2.779028660494089,-4.415230225150287
1772717444629818400,6.453818359375,-3.6532869449824092,1.4159697909742592,-3.6349347112119195
1772717444649851400,6.473851318359375,-4.556900503292679,0.6482131483525038,-3.711196405376494
1772717444669884400,6.493884521484375,-4.117390311130881,2.2021868039160966,-6.0982818037867546
1772717444689916400,6.51391650390625,-1.636932509279251,3.4795027419596907,-4.966812260526418
1772717444709949400,6.533949462890625,2.843129084482789,4.214084844732285,-4.626023431618512
1772717444729981400,6.5539814453125,3.095489980614185,2.5004730003982782,-3.014377631548047
1772717444750014500,6.574014404296875,-1.5979659420251846,1.2535709053188562,-0.1413029061347246
1772717444770046500,6.59404638671875,-4.763413840484619,-1.2963462172061204,0.8846090711761265
1772717444790079200,6.614079345703125,-6.336661520838737,-4.769963992780447,1.4076108356907964
1772717444810111500,6.634111572265625,-6.071159403583407,-7.383485864731669,1.2346484704449772
1772717444830144500,6.65414453125,-6.200444539666176,-6.83520959290266,0.19444529825747012
1772717444850176300,6.67417626953125,-10.752616845393181,-5.593552412739395,1.1684890680998563
1772717444870209500,6.69420947265625,-12.74487085906267,-4.426126882217824,3.7625893234834074
1772717444890242300,6.7142421875,-10.82531500185728,-3.6746021202117203,5.01820868576467
1772717444910274600,6.734274658203125,-6.765074564924836,-2.6190438502430915,5.152886620801687
1772717444930307300,6.754307373046875,-3.32261998937726,-2.015513308703899,4.407128459498286
1772717444950339300,6.77433935546875,-1.8741905288249252,-1.5398296871379016,3.517936809772253
1772717444970372400,6.794372314453125,-1.2007558454543352,-0.4044067300766706,2.9075977572619913
1772717444990404400,6.814404296875,-0.057796939930319785,1.1011793266758323,2.4678107939854264
1772717445010437400,6.834437255859375,1.1882570138871669,2.189931425715983,1.8025863050773738
1772717445030469400,6.854469482421875,1.936028853100538,3.123796037644148,1.4550241826422512
1772717445050502700,6.874502685546875,3.125897393837571,3.8324183542519807,1.0341185915768145
1772717445070535400,6.894535400390625,3.582325403052568,3.89413217536509,0.23214111492335796
1772717445090567400,6.9145673828125,4.141402470359206,3.783376967707276,0.19930004481226204
1772717445110600200,6.93460009765625,4.29648898717463,2.8265421068191525,1.0899074065551162
1772717445130632400,6.954632568359375,3.84493413695395,1.9849112496912478,0.7770654459759593
1772717445150665200,6.974665283203125,2.6757985876441,1.2923375660866498,0.003839139771461487
1772717445170697500,6.994697509765625,1.6000971088349818,0.9772697461515665,-0.19810177493840456
1772717445190730200,7.014730224609375,0.8724234702765941,1.6532710651397704,-0.797176213851571
1772717445210762200,7.03476220703125,0.27113457018435,2.4996067389577625,-1.6998577520087361
1772717445230795300,7.054795166015625,-0.28152269320786,3.485343284681439,-2.251976670740545
1772717445250828300,7.074828369140625,-0.29022447057962414,4.339183050519228,-1.6057281004592776
1772717445270860500,7.094860595703125,-0.1241325756251812,4.176649140307307,-0.9686796124607324
1772717445290893300,7.114893310546875,-0.29169278956651684,2.895511598148942,-0.8953130552157759
1772717445310925300,7.13492529296875,-0.35847792259454725,1.2217080325901508,-1.9061074698284268
1772717445330958300,7.154958251953125,-0.8271575106173753,-0.50476387783885,-3.034579292577505
1772717445350990300,7.174990234375,-0.47899464581012724,-1.1965578092426061,-3.4245772658124563
1772717445371023400,7.1950234375,0.6272989551395177,-1.3093863160431385,-3.1200796474695203
1772717445391055400,7.215055419921875,0.31633857052326203,-1.4504431384623049,-3.010470687237382
1772717445411088100,7.235088134765625,-2.143095148000121,-1.533195655950904,-3.5437414053753016
1772717445431121400,7.255121337890625,-3.1645109098702666,-0.8868354419887066,-3.5131712028056383
1772717445451153200,7.275153076171875,-3.3711832370162007,0.2456459086626768,-2.9359418082147837
1772717445471186400,7.2951865234375,-2.987369797635078,0.8124421720445155,-1.4104296925038098
1772717445491218400,7.315218505859375,-2.51828045976758,1.4488012164741753,-0.5433335547298193
1772717445511251500,7.33525146484375,-2.469884969910979,1.7294623244166374,0.18602058426141738
1772717445531283500,7.355283447265625,-2.584593883630633,1.9287188223481178,0.6007543548241258
1772717445551316200,7.375316162109375,-2.4631769967049357,2.0254495963066814,0.7247825932919979
1772717445571348500,7.395348388671875,-2.92824599301517,2.0880051289409396,0.45176498584002256
1772717445591381200,7.41538134765625,-3.3978362661421295,2.474308631572127,0.5173613474749028
1772717445611413200,7.435413330078125,-3.9064410373181104,2.9149960508197545,0.6685619627676904
1772717445631446300,7.4554462890625,-4.136480796048045,3.235512783810496,0.36488515928834675
1772717445651479300,7.475479248046875,-3.8808044917583464,3.27905381937325,0.021094079824537038
1772717445671511300,7.49551123046875,-3.47696767052412,3.651564358973503,0.03397811131700873
1772717445691544300,7.51554443359375,-3.0245383755564688,3.825524503085017,0.5396800006583332
1772717445711576300,7.535576416015625,-1.9592384637743234,3.9454157878786322,0.5002940389484167
1772717445731609300,7.555609375,-0.41708851699531074,3.2630203839391467,0.28234321581050753
1772717445751641300,7.575641357421875,1.374834062987566,2.92432969635427,-0.134816612855345
1772717445771674400,7.59567431640625,2.9082635276943445,2.745842430207133,-0.3516016070842743
1772717445791706400,7.615706298828125,3.8051860639333723,2.771635043111443,-0.3293941591903567
1772717445811739400,7.635739501953125,3.596251637074351,2.5642273874282835,-0.5401809359177947
1772717445831772400,7.6557724609375,2.5916449711859224,2.3813924474656583,-1.26737409748286
1772717445851804200,7.67580419921875,2.0643144567519425,1.2273708806574344,-1.4064752557896076
1772717445871837400,7.69583740234375,0.7530079863011837,-0.6327098742723465,-1.519093042448908
1772717445891869200,7.715869140625,-3.3365614209681747,-1.6996014391601084,-1.891909579258412
1772717445911902500,7.73590234375,-8.264293716993928,-2.2986294085830448,-1.2463621429838239
1772717445931934500,7.7559345703125,-11.23899166458249,-2.607907246939838,0.8878029718466103
1772717445951967200,7.77596728515625,-8.64378052534759,-3.260426275792718,3.237384130640328
1772717445971999500,7.79599951171875,-5.503451870575547,-3.8973558135867115,3.9941818646132945
1772717445992032300,7.8160322265625,-4.853721303397417,-2.194979064494371,3.037511254376173
1772717446012064500,7.836064453125,-3.394882092511654,-0.3094371205717325,2.4420772177919745
1772717446032097300,7.85609716796875,0.30828327436149117,-0.0190098208963871,2.0490059745915232
1772717446052130600,7.876130615234375,3.195193632903695,0.6018196459680796,0.36328912226855753
1772717446072162300,7.896162353515625,3.093251846298575,0.7421262345418334,-1.3060315987877547
1772717446092196000,7.916196044921875,3.0166911691874265,1.5005319882333277,-1.6457805632539093
1772717446112227800,7.936227783203125,2.822636331552267,1.8701549896985292,-1.2798640150912106
1772717446132261000,7.95626123046875,1.639466996192932,2.0644933204501865,-0.9250950300171971
1772717446152292900,7.97629296875,0.998100937256217,1.785374181252718,-1.3196806233033538
1772717446172326000,7.996325927734375,1.2779717716038226,1.4847484359070657,-2.2951669931694862
1772717446192358100,8.016358154296874,1.4985124651044606,1.966003427864611,-2.3167140774585304
1772717446212391000,8.036390869140625,0.638376813992858,2.604812788055837,-1.6096104948505758
1772717446232424000,8.056423828125,-0.1973047793418169,3.426838488742709,-2.4409498211972416
1772717446252456000,8.0764560546875,0.5007160637527704,3.771461488986015,-3.274428789921105
1772717446272489000,8.096489013671874,0.8815560402810573,3.3796550050243734,-2.533920219708979
1772717446292521000,8.11652099609375,-0.1499731193244457,2.8573528401464223,-1.1035267665848136
1772717446312554000,8.136553955078124,-0.6502274107843637,1.558145096029341,0.20352263094335793
1772717446332585700,8.156585693359375,0.1134966153204441,-0.14273907641768455,-0.5352785508289933
1772717446352619000,8.176618896484374,-1.6267898854494094,-0.6790583684712648,-1.583016064044088
1772717446372650800,8.196650634765625,-2.110916633450985,2.3466245009452105,-3.000105068306625
1772717446392684000,8.21668408203125,-1.0365379276782274,3.2527953425228593,-1.8800407161578534
1772717446412716000,8.236716064453125,0.2829939348042011,2.477309566953778,0.10006050290316343
1772717446432749000,8.2567490234375,-3.1857109342873096,0.9766974992215632,2.505574122929573
1772717446452781800,8.27678173828125,-6.494913808208704,-1.0831699149936438,2.7798201031327245
1772717446472813800,8.296813720703126,-5.891400802326202,-1.7739847722321749,2.468039049783349
1772717446492846800,8.316846923828125,-4.972844526427984,-1.5455004262506962,4.755480124875903
1772717446512878800,8.33687890625,-4.949058577170968,-2.0190660327494143,5.657423119625449
1772717446532912000,8.356912109375,-4.722895952135324,-1.2775854026347397,4.744928627984225
1772717446552943900,8.37694384765625,-5.592629452675581,-0.38674890831112857,2.3112881068870426
1772717446572977000,8.396976806640625,-4.043474595570564,-0.5548609109163284,0.10026534129288046
1772717446593009000,8.4170087890625,-0.6136719963252544,-0.30881518928110596,-0.9523595421049743
1772717446613042000,8.4370419921875,0.8163134605199098,0.7778519201785326,0.7066776122808456
1772717446633075000,8.457074951171874,1.354932261687517,2.304556460544467,1.913044575615227
1772717446653107000,8.47710693359375,1.0644359884291887,3.7965263721376656,1.8455398961409926
1772717446673139700,8.4971396484375,0.31668986817896366,4.362089878854155,0.33143326380252836
1772717446693172000,8.517171875,1.4959785627126694,4.5762370719254015,-1.1050883898783475
1772717446713204700,8.537204833984376,3.4493899277687072,4.970964119508862,-1.4449763974890113
1772717446733237000,8.557237060546875,4.806936171346902,6.022538872799277,-0.9438482458040117
1772717446753270000,8.57727001953125,5.037931038844585,6.0021677004218095,-0.7731939383048564
1772717446773301800,8.5973017578125,5.2653217443704605,5.912205689945817,-1.3472124810904265
1772717446793335000,8.6173349609375,5.00231787367165,5.502541185471415,-1.651483304940164
1772717446813366800,8.63736669921875,3.7531741371452805,5.275206009525061,-1.9818807959541678
1772717446833400000,8.657400146484376,2.4454233133494854,5.123851080453395,-2.165661200073361
1772717446853432800,8.677432861328125,1.2341940046757458,4.3486657491356135,-1.882376757889986
1772717446873464800,8.69746484375,-1.0506628991425038,0.731155050933361,0.9736280286483466
1772717446893497900,8.717497802734375,0.8123708603739738,-0.48209144278168675,-1.3999956845119594
1772717446913529900,8.73752978515625,-1.4864929414868353,-1.8927374083846806,-3.400509577004611
1772717446933563000,8.75756298828125,-6.6946396772176024,4.922920511829853,0.27380079371891913
1772717446953595000,8.777594970703126,-4.475201294249296,1.0034919826447963,1.3669161294698715
1772717446973628200,8.797628173828125,2.182733915427327,-5.610958305570483,-0.7271255031563342
1772717446993660000,8.817659912109375,-0.4107902936339378,-7.04567488259077,1.581486954780668
1772717447013693000,8.83769287109375,-5.528198189297318,-6.695936146768927,0.737746850413829
1772717447033726000,8.857725830078126,-13.070919507217406,-6.613226299378275,-2.535389123217761
1772717447053758000,8.877758056640625,-15.84443729533553,-3.876735634884238,-4.657524777558446
1772717447073791000,8.897791015625,-13.475980317288636,-0.030398937655985354,-3.4198341629385944
1772717447093822200,8.917822265625,-7.11956663275361,1.4979606764405964,-0.7712552253272384
1772717447113855500,8.93785546875,0.5252244820654391,2.4266835415661334,0.5538248458668589
1772717447133887200,8.95788720703125,4.117382712346315,2.7911335243076083,1.3719745819032192
1772717447153920500,8.97792041015625,5.14627918536067,3.4708956571340557,0.7353313137046993
1772717447173952300,8.9979521484375,5.105022461342811,3.2793063328295946,0.8611249544098972
1772717447193985300,9.0179853515625,4.964958157092332,3.0271605407536026,0.9958289006710052
1772717447214017300,9.038017333984374,4.424954623568058,2.619727156332135,0.7735997426267713
1772717447234050300,9.05805029296875,3.3018823217749595,2.404634206843376,0.5872751704500988
1772717447254083300,9.078083251953124,2.293093401765823,1.8490245233863591,0.8460003774490207
1772717447274115300,9.098115234375,2.4810557677447793,2.1950158893734217,2.014939015947282
1772717447294148000,9.118148193359374,3.4944741011202334,1.836256811749935,2.040506880185008
1772717447314180400,9.138180419921875,3.7175001816958186,1.3743196837246416,1.695494003841281
1772717447334213400,9.15821337890625,3.5932746670901774,0.656545507889986,2.276543541242182
1772717447354245000,9.1782451171875,1.9818179598510264,-0.5813210478186607,3.4300942756682633
1772717447374278400,9.1982783203125,-1.3941431590914726,1.7324790418893097,-0.5786288130600005
1772717447394310100,9.21831005859375,-2.2384318372517824,-1.4694769247561692,-0.5867732488099485
1772717447414343400,9.238343505859374,-0.23486264884173869,-0.9024585430562496,-1.3578840972304342
1772717447434376200,9.258376220703125,-2.098295636808872,0.735957482779026,0.170033106860891
1772717447454408400,9.278408447265624,-3.980008377832174,1.284576868957281,0.17860870056971906
