time,seconds_elapsed,z,y,x
1772789040554020400,0.270020263671875,-0.01667308807373047,0.012290477752685547,0.011434465646743774
1772789040574118000,0.290117919921875,-0.04062461853027344,-0.010915279388427734,0.011702626943588257
1772789040594215400,0.31021533203125,0.0019178390502929688,-0.015557467937469482,0.016025066375732422
1772789040614313000,0.33031298828125,-0.0166473388671875,-0.010722577571868896,0.001759946346282959
1772789040634410500,0.350410400390625,-0.01184844970703125,-0.010528802871704102,0.00674515962600708
1772789040654508000,0.370508056640625,-0.0022611618041992188,-0.005690872669219971,-0.012512624263763428
1772789040674606300,0.3906064453125,-0.026226043701171875,0.003888368606567383,-0.007936418056488037
1772789040694705400,0.410705322265625,-0.031006813049316406,-0.010284483432769775,0.0017495155334472656
1772789040714804700,0.4308046875,-0.0070514678955078125,-0.005500197410583496,-0.0030347108840942383
1772789040734903800,0.45090380859375,-0.0166473388671875,-0.01524817943572998,0.025760948657989502
1772789040755003000,0.4710029296875,-0.040595054626464844,-0.00557100772857666,0.011386513710021973
1772789040775102200,0.491102294921875,-0.02620697021484375,0.009003698825836182,-0.003031998872756958
1772789040795201300,0.511201171875,-0.011821746826171875,-0.024377942085266113,0.011301189661026001
1772789040815300600,0.531300537109375,-0.0076236724853515625,-0.024228274822235107,0.020984947681427002
1772789040835399700,0.551399658203125,-0.00760650634765625,-0.014491796493530273,0.0016252398490905762
1772789040855499000,0.5714990234375,-0.016592979431152344,-0.004973053932189941,0.006358832120895386
1772789040875598000,0.59159814453125,-0.002819061279296875,-0.00013244152069091797,-0.007890760898590088
1772789040895697400,0.611697509765625,-0.0213775634765625,0.02387017011642456,0.015977948904037476
1772789040915796500,0.63179638671875,-0.021364212036132812,0.0001207590103149414,0.011199116706848145
1772789040935895800,0.651895751953125,-0.016564369201660156,-0.018942415714263916,0.011099159717559814
1772789040955995000,0.671994873046875,-0.0027923583984375,-0.014208674430847168,0.011051535606384277
1772789040976094000,0.692093994140625,0.0019979476928710938,0.00020778179168701172,0.0016295313835144043
1772789040996193300,0.712193359375,-0.012369155883789062,0.00030535459518432617,0.006425946950912476
1772789041016292400,0.732292236328125,-0.02134227752685547,-0.018707692623138428,-0.003103792667388916
1772789041036391700,0.7523916015625,-0.026140213012695312,-0.013922393321990967,-0.0028908848762512207
1772789041056490800,0.77249072265625,-0.0075836181640625,0.0003867149353027344,0.006842553615570068
1772789041076590000,0.792590087890625,0.0019931793212890625,-0.014041364192962646,-0.002728492021560669
1772789041096689200,0.812689208984375,0.011569023132324219,-0.004518270492553711,0.011753290891647339
1772789041116788500,0.83278857421875,-0.016559600830078125,-0.004361271858215332,0.02103710174560547
1772789041136887600,0.852887451171875,-0.02135181427001953,0.005263626575469971,-0.002757132053375244
1772789041156986600,0.872986572265625,-0.012385368347167969,-0.004375100135803223,0.0025146305561065674
1772789041177085000,0.8930849609375,-0.02136707305908203,0.010040998458862305,0.0073625147342681885
1772789041197182700,0.9131826171875,-0.03092193603515625,-0.003976762294769287,0.016827374696731567
1772789041217280300,0.9332802734375,-0.007544517517089844,0.0010657906532287598,0.0022961199283599854
1772789041237377800,0.953377685546875,-0.012330055236816406,-0.0036263465881347656,-0.00243532657623291
1772789041257475600,0.9734755859375,-0.012337684631347656,-0.003688991069793701,0.007244974374771118
1772789041277573000,0.993572998046875,-0.021331787109375,0.0008856058120727539,0.011335492134094238
1772789041297671000,1.0136708984375,-0.02134418487548828,-0.008755743503570557,0.02122446894645691
1772789041317768400,1.0337685546875,-0.021356582641601562,-0.013603031635284424,0.007166415452957153
1772789041337866000,1.053865966796875,-0.0027713775634765625,-0.013287484645843506,-0.007186710834503174
1772789041378061300,1.094061279296875,-0.0123291015625,-0.01298147439956665,-0.002494633197784424
1772789041398158800,1.114158935546875,-0.04048347473144531,0.0061217546463012695,-0.002382904291152954
1772789041418256600,1.134256591796875,-0.017136573791503906,0.01563197374343872,0.007341980934143066
1772789041438354200,1.154354248046875,0.006825447082519531,-0.0034332275390625,-0.0022325515747070312
1772789041458452000,1.174451904296875,-0.007538795471191406,0.0015057921409606934,0.0026127398014068604
1772789041478549500,1.194549560546875,-0.0212860107421875,-0.01250690221786499,-0.0016356110572814941
1772789041498647000,1.21464697265625,-0.0027074813842773438,0.006852388381958008,-0.006480813026428223
1772789041518744800,1.234744873046875,0.016454696655273438,-0.012212574481964111,0.01778087019920349
1772789041538842400,1.25484228515625,0.0020599365234375,-0.0028460025787353516,0.008464038372039795
1772789041558940000,1.27493994140625,-0.03566932678222656,0.011574208736419678,-0.0009397566318511963
1772789041579037700,1.29503759765625,-0.01649761199951172,-0.0027431845664978027,-0.0011205673217773438
1772789041599135200,1.31513525390625,-0.01649188995361328,-0.01696157455444336,-0.00036522746086120605
1772789041619232800,1.335232666015625,-0.01649188995361328,-0.002592802047729492,0.018800735473632812
1772789041639330600,1.35533056640625,-0.02609539031982422,0.006822705268859863,0.014376342296600342
1772789041659428000,1.375427978515625,-0.01651763916015625,-0.0171356201171875,0.00015607476234436035
1772789041679525600,1.395525634765625,-0.012312889099121094,-0.0168687105178833,0.027918338775634766
1772789041699623000,1.415622802734375,-0.026079177856445312,-0.0025025010108947754,0.008439183235168457
1772789041719720200,1.43572021484375,-0.012285232543945312,-0.0016973614692687988,0.008239507675170898
1772789041739817500,1.4558173828125,-0.0075016021728515625,-0.016171276569366455,-0.0061168670654296875
1772789041759914800,1.475914794921875,-0.02186870574951172,-0.011381268501281738,0.0032603442668914795
1772789041780012300,1.49601220703125,-0.02187347412109375,0.012501418590545654,0.012824147939682007
1772789041800109600,1.516109619140625,-0.017081260681152344,0.007749438285827637,0.017059355974197388
1772789041820206800,1.536206787109375,-0.026671409606933594,-0.011520922183990479,0.02189430594444275
1772789041840304000,1.55630419921875,-0.03146553039550781,0.0027877092361450195,0.012248992919921875
1772789041860401400,1.5764013671875,-0.02188396453857422,0.007515966892242432,0.0025673508644104004
1772789041880498700,1.596498779296875,-0.026079177856445312,0.007450699806213379,0.007899731397628784
1772789041900596000,1.616595947265625,-0.007515907287597656,-0.006981968879699707,0.0029980242252349854
1772789041920693200,1.636693359375,-0.012289047241210938,-0.01645416021347046,0.007432132959365845
1772789041940790500,1.65679052734375,-0.017080307006835938,-0.006928741931915283,0.012062221765518188
1772789041960888000,1.67688818359375,-0.007511138916015625,0.007220923900604248,0.002425849437713623
1772789041980985300,1.6969853515625,-0.012300491333007812,-0.016681790351867676,-0.0023121535778045654
1772789042001082600,1.71708251953125,-0.017099380493164062,-0.002321481704711914,0.012303829193115234
1772789042021180000,1.737179931640625,-0.030872344970703125,0.007353603839874268,0.007720321416854858
1772789042041277200,1.757277099609375,-0.026678085327148438,0.007344603538513184,0.016598761081695557
1772789042061374500,1.77737451171875,-0.030890464782714844,0.0023833513259887695,0.012106388807296753
1772789042081471700,1.7974716796875,-0.0404815673828125,-0.00740891695022583,0.007758498191833496
1772789042101569300,1.8175693359375,-0.017116546630859375,-0.012037575244903564,0.011960387229919434
1772789042121666600,1.83766650390625,-0.021928787231445312,-0.007568180561065674,0.011997073888778687
1772789042141763800,1.857763916015625,-0.021940231323242188,-0.01256406307220459,0.0023224055767059326
1772789042161861000,1.877861083984375,0.011590957641601562,0.0017984509468078613,0.007269084453582764
1772789042181959000,1.897958984375,-0.017144203186035156,-0.007575333118438721,-0.006988465785980225
1772789042202056700,1.918056640625,-0.02194499969482422,-0.01740962266921997,0.016710728406906128
1772789042222154500,1.938154541015625,-0.02673816680908203,-0.007777690887451172,0.016911685466766357
1772789042242252500,1.95825244140625,-0.012353897094726562,-0.007565319538116455,0.002658843994140625
1772789042262350300,1.978350341796875,-0.021941184997558594,-0.012404918670654297,-0.002068549394607544
1772789042282448100,1.9984482421875,-0.03153228759765625,-0.012560606002807617,0.012246102094650269
1772789042302546000,2.0185458984375,-0.017162322998046875,0.0018031597137451172,0.007505059242248535
1772789042322644000,2.03864404296875,-0.0027866363525390625,-0.007834196090698242,0.002505868673324585
1772789042342741800,2.05874169921875,0.0019931793212890625,0.0016260147094726562,-0.01655668020248413
1772789042362839600,2.078839599609375,-0.026772499084472656,-0.0034329891204833984,-0.002131134271621704
1772789042382937300,2.098937255859375,-0.02197742462158203,-0.012962162494659424,0.002656787633895874
1772789042403035400,2.119035400390625,-0.026755332946777344,-0.017535626888275146,0.0075043439865112305
1772789042423133200,2.13913330078125,-0.01715850830078125,-0.003015577793121338,0.002546370029449463
1772789042443231000,2.15923095703125,-0.026754379272460938,-0.003285050392150879,0.007170051336288452
1772789042463328800,2.179328857421875,-0.012392044067382812,-0.0041564106941223145,0.012277185916900635
1772789042503524600,2.219524658203125,-0.03095722198486328,-0.01374351978302002,0.017058074474334717
1772789042523622400,2.239622314453125,-0.01718902587890625,0.005306839942932129,0.012162953615188599
1772789042543720200,2.25972021484375,-0.0357666015625,0.0003504753112792969,0.017043888568878174
1772789042563818000,2.27981787109375,-0.017213821411132812,-0.014168977737426758,0.0171034038066864
1772789042583916000,2.299916015625,0.0067462921142578125,0.00029653310775756836,0.007563799619674683
1772789042604013800,2.320013916015625,-0.0076236724853515625,0.01943659782409668,0.00740361213684082
1772789042624111600,2.340111572265625,-0.007626533508300781,0.004949748516082764,0.02161198854446411
1772789042644209400,2.36020947265625,-0.02139568328857422,-0.009419918060302734,0.01725834608078003
1772789042664307500,2.380307373046875,-0.026780128479003906,-0.008706092834472656,0.011340349912643433
1772789042684405500,2.400405517578125,-0.012413978576660156,0.00565415620803833,0.025903970003128052
1772789042704503600,2.420503662109375,0.001964569091796875,-0.0038823485374450684,0.016237854957580566
1772789042724601900,2.440601806640625,-0.03635406494140625,-0.008620083332061768,0.011264681816101074
1772789042744700000,2.460699951171875,-0.026780128479003906,0.0007971525192260742,0.020708829164505005
1772789042764798200,2.480798095703125,-0.021979331970214844,0.010412216186523438,0.015672534704208374
1772789042784896300,2.500896240234375,-0.03634929656982422,0.010500013828277588,0.0157967209815979
1772789042804994300,2.520994384765625,-0.02196788787841797,-0.008555948734283447,0.006148964166641235
1772789042825092600,2.541092529296875,-0.012395858764648438,-0.008663833141326904,0.006226003170013428
1772789042845190700,2.561190673828125,-0.017194747924804688,0.0008485913276672363,0.015914201736450195
1772789042865289000,2.5812890625,-0.021966934204101562,-0.003744184970855713,0.0055904388427734375
1772789042885387000,2.601386962890625,-0.017192840576171875,-0.003961920738220215,0.005611777305603027
1772789042905485000,2.621485107421875,-0.01239776611328125,-0.0038614869117736816,0.010535180568695068
1772789042925583400,2.641583251953125,-0.02678680419921875,-0.012893378734588623,0.006190747022628784
1772789042945681400,2.661681396484375,-0.03157234191894531,0.00631028413772583,-0.008294790983200073
1772789042965779700,2.68177978515625,-0.02678394317626953,0.006291866302490234,0.001360774040222168
1772789042985877800,2.701877685546875,-0.008205413818359375,0.006378173828125,0.005858659744262695
1772789043005975800,2.721975830078125,-0.008198738098144531,0.0016314387321472168,0.009925276041030884
1772789043026074000,2.74207421875,-0.0034093856811523438,-0.00805586576461792,0.009744107723236084
1772789043046172200,2.762172119140625,-0.012988090515136719,-0.008103787899017334,0.014255166053771973
1772789043066271000,2.78227099609375,-0.0075931549072265625,0.00571519136428833,0.014822572469711304
1772789043086370000,2.8023701171875,-0.017172813415527344,-0.008670151233673096,0.009886384010314941
1772789043106468900,2.82246875,-0.02196788787841797,-0.013440132141113281,0.0005173385143280029
1772789043146666800,2.862666748046875,0.006197929382324219,-0.013265490531921387,0.0050814151763916016
1772789043186864600,2.90286474609375,-0.026740074157714844,-0.003695070743560791,0.014646559953689575
1772789043206963700,2.922963623046875,-0.012371063232421875,-0.0036973953247070312,0.000964730978012085
1772789043227062500,2.9430625,-0.012369155883789062,-0.013165891170501709,0.01976335048675537
1772789043247161600,2.96316162109375,-0.017165184020996094,-0.013207793235778809,0.006031006574630737
1772789043267260400,2.983260498046875,-0.0033884048461914062,-0.003527402877807617,0.015189319849014282
1772789043307458300,3.023458251953125,-0.0315093994140625,0.0016518235206604004,0.015176981687545776
1772789043327557000,3.04355712890625,-0.021935462951660156,0.001587986946105957,0.020133525133132935
1772789043347656200,3.06365625,-0.007565498352050781,-0.00325852632522583,0.010529100894927979
1772789043367755000,3.083755126953125,-0.012349128723144531,-0.012835860252380371,0.010289907455444336
1772789043387854000,3.10385400390625,-0.026723861694335938,0.006262421607971191,0.005372822284698486
1772789043407953000,3.123952880859375,-0.02672100067138672,0.0015707612037658691,0.024710923433303833
1772789043428052000,3.144052001953125,0.0014238357543945312,0.001612842082977295,0.024878501892089844
1772789043448150800,3.16415087890625,-0.017129898071289062,-0.017437398433685303,0.015152782201766968
1772789043468249900,3.184249755859375,-0.02671527862548828,-0.01209789514541626,0.014569848775863647
1772789043488348700,3.2043486328125,-0.026714324951171875,-0.012039124965667725,0.009915411472320557
1772789043508447700,3.22444775390625,-0.008143424987792969,-0.01681959629058838,0.024095356464385986
1772789043528546600,3.244546630859375,-0.022505760192871094,-0.002350747585296631,0.00958666205406189
1772789043548645600,3.264645751953125,-0.03627777099609375,0.02161705493927002,0.018517285585403442
1772789043568744400,3.284744384765625,-0.0033388137817382812,0.0024418234825134277,0.018435031175613403
1772789043588843500,3.304843505859375,-0.02249622344970703,-0.0023041963577270508,0.008721858263015747
1772789043608942300,3.3249423828125,-0.027286529541015625,-0.01182246208190918,0.00886988639831543
1772789043629041200,3.345041259765625,-0.0033254623413085938,0.0026900172233581543,0.004208028316497803
1772789043649140200,3.36514013671875,-0.02247905731201172,-0.0014055967330932617,0.018438011407852173
1772789043669239000,3.385239013671875,-0.02668476104736328,-0.002662181854248047,0.0008207261562347412
1772789043689337600,3.405337646484375,-0.03625011444091797,-0.016860902309417725,0.010230779647827148
1772789043709436000,3.425435791015625,-0.017070770263671875,-0.007125198841094971,0.014826983213424683
1772789043729534200,3.4455341796875,-0.021852493286132812,-0.002286374568939209,0.005072593688964844
1772789043749632800,3.4656328125,-0.036220550537109375,0.0025510191917419434,-0.003960698843002319
1772789043769731000,3.48573095703125,-0.031436920166015625,0.01194918155670166,-0.00897437334060669
1772789043789829600,3.50582958984375,-0.01707744598388672,0.002159297466278076,0.0005579292774200439
1772789043830026500,3.546026611328125,-0.0026836395263671875,0.002340853214263916,0.024192988872528076
1772789043850124800,3.566124755859375,-0.021839141845703125,-0.0017542243003845215,0.0044081807136535645
1772789043870223400,3.586223388671875,-0.012242317199707031,0.003286898136138916,0.009283185005187988
1772789043890321700,3.60632177734375,-0.026611328125,-0.0014043450355529785,0.0045816004276275635
1772789043910420000,3.626419921875,-0.021834373474121094,0.00799626111984253,0.013624757528305054
1772789043930518500,3.6465185546875,-0.0032625198364257812,0.003246605396270752,-0.0008570849895477295
1772789043950616800,3.666616943359375,-0.00804901123046875,-0.0014998316764831543,0.0038641691207885742
1772789043970715400,3.68671533203125,-0.03140449523925781,-0.01580500602722168,0.00400996208190918
1772789043990813700,3.706813720703125,-0.012827873229980469,-0.0156400203704834,0.003984898328781128
1772789044031010600,3.747010498046875,0.0063419342041015625,-0.010846734046936035,0.003784865140914917
1772789044051109000,3.767109130859375,-0.031378746032714844,0.02275317907333374,-0.001133650541305542
1772789044071207400,3.78720751953125,0.01593017578125,0.008350729942321777,-0.00594678521156311
1772789044091306000,3.807305908203125,-0.0032367706298828125,0.003492891788482666,0.003617912530899048
1772789044111404300,3.827404296875,-0.021816253662109375,-0.001509547233581543,0.013180166482925415
1772789044131502800,3.8475029296875,-0.012839317321777344,-0.00635218620300293,-0.0010956525802612305
1772789044151601200,3.86760107421875,-0.03619956970214844,-0.011186063289642334,0.0037325620651245117
1772789044171699500,3.887699462890625,-0.026610374450683594,-0.006286978721618652,0.00372159481048584
1772789044191797200,3.90779736328125,-0.0128326416015625,-0.010972142219543457,0.003849923610687256
1772789044231993000,3.9479931640625,-0.03622150421142578,0.012614607810974121,0.013730138540267944
1772789044252091000,3.9680908203125,-0.012871742248535156,-0.006712198257446289,0.01831194758415222
1772789044272188700,3.988188720703125,-0.0032758712768554688,-0.011340498924255371,-0.0009153485298156738
1772789044292286700,4.00828662109375,-0.012854576110839844,-0.0017145276069641113,0.008638262748718262
1772789044312384500,4.028384521484375,-0.01704120635986328,0.003011345863342285,0.008247345685958862
1772789044332482300,4.048482421875,-0.036200523376464844,-0.0016679763793945312,0.003607511520385742
1772789044352580400,4.068580322265625,-0.021842002868652344,-0.0017710328102111816,-0.0057159364223480225
1772789044372678100,4.08867822265625,-0.036212921142578125,-0.006568431854248047,0.00857323408126831
1772789044392776000,4.10877587890625,0.006312370300292969,-0.016040027141571045,0.008639425039291382
1772789044412874000,4.1288740234375,-0.02663135528564453,-0.011347174644470215,0.0038262903690338135
1772789044432971800,4.1489716796875,-0.017058372497558594,0.002851724624633789,0.003692448139190674
1772789044453069600,4.169069580078125,-0.02244281768798828,0.0124586820602417,0.017970383167266846
1772789044473167600,4.189167724609375,-0.026633262634277344,-0.0019205808639526367,-0.010881513357162476
1772789044493265400,4.209265380859375,-0.027235031127929688,-0.0019913315773010254,-0.0013585090637207031
1772789044533461000,4.2494609375,-0.01287841796875,0.007512331008911133,0.0032269060611724854
1772789044553559000,4.26955908203125,-0.0128936767578125,0.0025438666343688965,-0.0014507174491882324
1772789044573656800,4.28965673828125,0.006267547607421875,-0.011779844760894775,-0.0012357234954833984
1772789044593755000,4.3097548828125,-0.03147125244140625,-0.002370774745941162,0.01784449815750122
1772789044613852700,4.329852783203125,-0.012900352478027344,-0.021470725536346436,0.008197605609893799
1772789044633950500,4.349950439453125,-0.022485733032226562,0.0025125741958618164,0.0036584138870239258
1772789044654048300,4.37004833984375,-0.02248096466064453,-0.007180988788604736,0.00856691598892212
1772789044674146800,4.390146728515625,-0.0033140182495117188,-0.0070879459381103516,0.00870707631111145
1772789044694246000,4.410245849609375,0.00146484375,-0.01208871603012085,0.0038128793239593506
1772789044714345200,4.43034521484375,-0.0033292770385742188,-0.002577364444732666,0.022340387105941772
1772789044734444300,4.4504443359375,-0.01770496368408203,0.007025718688964844,0.0038698911666870117
1772789044754543600,4.470543701171875,-0.02250957489013672,-0.0027322769165039062,-0.0008269548416137695
1772789044774642700,4.490642578125,-0.027301788330078125,-0.012366116046905518,0.017657488584518433
1772789044794742000,4.510741943359375,0.001434326171875,-0.007744729518890381,0.008601635694503784
1772789044814841000,4.530841064453125,-0.027322769165039062,-0.00780332088470459,-0.000718533992767334
1772789044834940200,4.550940185546875,-0.031528472900390625,0.006385087966918945,0.008302509784698486
1772789044855039500,4.57103955078125,-0.012968063354492188,-0.0025629401206970215,0.0181141197681427
1772789044875138600,4.591138671875,-0.012969970703125,0.0022528767585754395,0.0032828450202941895
1772789044895238000,4.61123779296875,-0.01296234130859375,-0.007232844829559326,0.0032249391078948975
1772789044915337000,4.6313369140625,-0.02254009246826172,-0.00723874568939209,0.01746252179145813
1772789044935436300,4.651436279296875,-0.017754554748535156,0.0022563934326171875,0.0030608773231506348
1772789044955535400,4.671535400390625,0.000812530517578125,0.007016599178314209,0.007686316967010498
1772789044975634700,4.691634765625,-0.0081634521484375,-0.0024651288986206055,0.012480080127716064
1772789044995733800,4.711733642578125,-0.012949943542480469,-0.00731658935546875,0.01214611530303955
1772789045015833000,4.7318330078125,-0.017749786376953125,-0.012272000312805176,0.026463955640792847
1772789045035932200,4.75193212890625,-0.012937545776367188,-0.012060225009918213,0.011869341135025024
1772789045056031200,4.77203125,0.02479076385498047,-0.026415646076202393,0.007121443748474121
1772789045076130600,4.792130615234375,-0.0033540725708007812,0.0022490620613098145,0.01162642240524292
1772789045096229600,4.812229736328125,-0.012948036193847656,0.002118527889251709,0.011762261390686035
1772789045116329000,4.832328857421875,-0.03211021423339844,-0.002743661403656006,-0.0028781890869140625
1772789045136428000,4.852427978515625,-0.027306556701660156,0.007014036178588867,0.01625269651412964
1772789045156527400,4.87252734375,-0.02252674102783203,0.0020369291305541992,0.011429637670516968
1772789045176625400,4.89262548828125,-0.022515296936035156,-0.012180507183074951,0.006625086069107056
1772789045196722700,4.91272265625,-0.036879539489746094,-0.002452850341796875,0.0018906891345977783
1772789045216819700,4.93281982421875,-0.017724990844726562,0.002263188362121582,-0.00278627872467041
1772789045236917000,4.9529169921875,-0.027307510375976562,0.002192378044128418,-0.0029271841049194336
1772789045257014300,4.97301416015625,-0.027307510375976562,-0.012185752391815186,0.00662994384765625
1772789045297208800,5.013208740234375,-0.01772785186767578,-0.007481575012207031,0.0022971928119659424
1772789045317305900,5.033305908203125,-0.008174896240234375,-0.017415642738342285,0.002516716718673706
1772789045357500400,5.07350048828125,-0.032118797302246094,0.0018519163131713867,0.011938512325286865
1772789045377597700,5.09359765625,-0.036917686462402344,0.001777052879333496,0.021039605140686035
1772789045397695000,5.113695068359375,-0.027349472045898438,0.011213123798370361,0.012186586856842041
1772789045417792300,5.133792236328125,-0.008192062377929688,-0.008011281490325928,0.012272119522094727
1772789045437889300,5.15388916015625,-0.01777935028076172,-0.01768559217453003,0.021773070096969604
1772789045457986600,5.173986572265625,-0.0039825439453125,-0.003016650676727295,0.006735563278198242
1772789045478083800,5.194083740234375,-0.0039615631103515625,-0.017119288444519043,0.0018943250179290771
1772789045498181000,5.21418115234375,0.0008497238159179688,-0.016957223415374756,0.01592409610748291
1772789045518278400,5.2342783203125,-0.02731037139892578,0.011593878269195557,0.015900880098342896
1772789045538375700,5.254375732421875,-0.02252197265625,-0.01235651969909668,0.0064206719398498535
1772789045558473000,5.274472900390625,-0.032095909118652344,-0.002680838108062744,0.006364732980728149
1772789045578570000,5.294570068359375,-0.008128166198730469,0.007023155689239502,-0.012935876846313477
1772789045598667300,5.314667236328125,-0.022497177124023438,-0.0073539018630981445,0.015633612871170044
1772789045618764500,5.3347646484375,-0.012919425964355469,0.01171785593032837,0.015558898448944092
1772789045638861800,5.35486181640625,0.00084686279296875,0.016409873962402344,-0.013151288032531738
1772789045658959000,5.374958984375,-0.027301788330078125,-0.017118990421295166,0.006099909543991089
1772789045679057000,5.395056884765625,-0.017717361450195312,-0.012274503707885742,-0.008257478475570679
1772789045699155200,5.4151552734375,-0.017699241638183594,-0.007288992404937744,0.015548169612884521
1772789045719253200,5.435253173828125,0.0008544921875,-0.012236595153808594,0.001178830862045288
1772789045739351600,5.4553515625,-0.0081329345703125,-0.0026220083236694336,0.0014324188232421875
1772789045759449600,5.47544970703125,-0.02728748321533203,-0.007311344146728516,-0.0034494102001190186
1772789045779548000,5.4955478515625,-0.022495269775390625,-0.0024788975715637207,0.0014030039310455322
1772789045799646000,5.51564599609375,-0.03209114074707031,-0.0026540756225585938,0.015841752290725708
1772789045819744300,5.535744140625,-0.03688240051269531,-0.0026744604110717773,-0.0033340752124786377
1772789045839842600,5.555842529296875,-0.0033416748046875,-0.021716773509979248,0.01117756962776184
1772789045859940600,5.575940673828125,0.0008535385131835938,-0.007353305816650391,0.0062202513217926025
1772789045880039000,5.596038818359375,-0.012935638427734375,0.0021038055419921875,0.011264711618423462
1772789045900137000,5.616136962890625,-0.017728805541992188,-0.002702653408050537,0.006515413522720337
1772789045920235300,5.6362353515625,-0.008748054504394531,-0.002772808074951172,0.011231482028961182
1772789045940333600,5.65633349609375,-0.03209877014160156,0.011663615703582764,0.011155366897583008
1772789045960431600,5.676431640625,-0.027307510375976562,-0.0026273727416992188,-0.007805913686752319
1772789045980530000,5.696530029296875,-0.012929916381835938,0.0022433996200561523,0.0018262863159179688
1772789046000628000,5.7166279296875,-0.022513389587402344,0.0021672844886779785,0.011283546686172485
1772789046020726300,5.736726318359375,-0.008734703063964844,0.002191483974456787,0.006370335817337036
1772789046040824300,5.75682421875,-0.01294708251953125,-0.007550358772277832,0.0012989342212677002
1772789046081021000,5.79702099609375,-0.008769989013671875,0.006636440753936768,0.001414269208908081
1772789046101119000,5.817118896484375,-0.013571739196777344,-0.01273411512374878,0.02043667435646057
1772789046121217300,5.83721728515625,-0.018362998962402344,-0.012135624885559082,-0.0035178065299987793
1772789046141315300,5.8573154296875,-0.03693103790283203,0.01596677303314209,-0.0035042166709899902
1772789046161413600,5.87741357421875,-0.022551536560058594,0.011242985725402832,0.025149911642074585
1772789046181512400,5.897512451171875,-0.008780479431152344,0.020712614059448242,0.015435665845870972
1772789046201611500,5.917611572265625,-0.022565841674804688,0.006853818893432617,0.006052553653717041
1772789046221710300,5.93771044921875,-0.013592720031738281,0.016333341598510742,-0.008247673511505127
1772789046241809400,5.957809326171875,-0.023172378540039062,-0.01251441240310669,0.0010151267051696777
1772789046261908500,5.977908447265625,-0.027359962463378906,-0.01783144474029541,-0.003161400556564331
1772789046302106400,6.0181064453125,-0.036940574645996094,-0.0035161375999450684,0.015850573778152466
1772789046322205400,6.038205322265625,-0.01778125762939453,-0.008436143398284912,0.006047487258911133
1772789046362403600,6.078403564453125,-0.017783164978027344,-0.0036522746086120605,0.01569521427154541
1772789046382502400,6.09850244140625,-0.012980461120605469,-0.022661030292510986,0.0013092458248138428
1772789046402601500,6.1186015625,0.010378837585449219,-0.022615492343902588,-0.003487914800643921
1772789046422700500,6.138700439453125,-0.003406524658203125,0.0012363791465759277,-0.0033381879329681396
1772789046442799600,6.158799560546875,-0.012988090515136719,0.00602412223815918,0.006224602460861206
1772789046462898700,6.178898681640625,0.0055866241455078125,-0.017682671546936035,-0.007880747318267822
1772789046482997500,6.19899755859375,-0.008187294006347656,-0.0031896233558654785,-0.0028257369995117188
1772789046503096600,6.2190966796875,-0.017775535583496094,-0.008008241653442383,-0.0026707351207733154
1772789046523195600,6.239195556640625,-0.004000663757324219,-0.012868821620941162,-0.00282171368598938
1772789046543294700,6.259294677734375,-0.013003349304199219,0.006138861179351807,-0.0025512874126434326
1772789046583492600,6.29949267578125,-0.017808914184570312,-0.01315087080001831,0.016845613718032837
1772789046623690800,6.339690673828125,-0.013034820556640625,-0.0036385059356689453,-0.006677210330963135
1772789046663888600,6.379888671875,-0.02260303497314453,-0.01777946949005127,0.007187575101852417
1772789046683987200,6.3999873046875,-0.03219890594482422,-0.0034397244453430176,-0.00202825665473938
1772789046704086000,6.4200859375,-0.027400970458984375,-0.0033122897148132324,0.012431144714355469
1772789046724184600,6.4401845703125,-0.01842212677001953,-0.0033965706825256348,0.007576018571853638
1772789046744283100,6.460283203125,-0.01361846923828125,-0.002577543258666992,0.017266273498535156
1772789046764382000,6.4803818359375,-0.008828163146972656,0.0069997310638427734,0.007717937231063843
1772789046784480500,6.50048046875,-0.013622283935546875,-0.012230157852172852,0.012438863515853882
1772789046804579000,6.5205791015625,-0.032181739807128906,-0.002627551555633545,0.007478386163711548
1772789046824678000,6.540677978515625,-0.02320098876953125,-0.002616703510284424,0.017216622829437256
1772789046844776400,6.5607763671875,-0.018416404724121094,0.002168715000152588,0.0077960193157196045
1772789046864875000,6.580875,-0.04176902770996094,0.016627490520477295,-0.002276182174682617
1772789046905072400,6.621072265625,-0.004031181335449219,-0.00714796781539917,-0.0021306872367858887
1772789046925171000,6.6411708984375,-0.023181915283203125,0.002651035785675049,-0.002069234848022461
1772789046945269800,6.661269775390625,-0.02797412872314453,-0.016468346118927002,0.0028702914714813232
1772789046965368300,6.681368408203125,-0.02797222137451172,-0.006809234619140625,-0.001814723014831543
1772789046985467000,6.701466796875,-0.018393516540527344,-0.00205838680267334,-0.00659787654876709
1772789047005565700,6.721565673828125,0.009747505187988281,-0.011612534523010254,-0.0014937520027160645
1772789047025664300,6.741664306640625,-0.027967453002929688,-0.011371791362762451,0.007568717002868652
1772789047045762800,6.7617626953125,-0.023186683654785156,-0.0018761754035949707,0.007718324661254883
1772789047065861600,6.781861572265625,-0.00402069091796875,-0.0018573999404907227,0.0041331946849823
1772789047106058800,6.822058837890625,-0.01839447021484375,0.007725536823272705,-0.010244369506835938
1772789047146256100,6.862256103515625,-0.03693103790283203,-0.0014837980270385742,0.01363527774810791
1772789047166354700,6.882354736328125,-0.018385887145996094,-0.006512343883514404,0.00415116548538208
1772789047186453500,6.90245361328125,-0.008791923522949219,-0.006437063217163086,0.0039355456829071045
1772789047226651000,6.94265087890625,-0.04649925231933594,0.007635951042175293,0.00388297438621521
1772789047266848300,6.98284814453125,0.0008039474487304688,-0.006322503089904785,0.017462939023971558
1772789047307045400,7.02304541015625,-0.013575553894042969,-0.0015783905982971191,0.012810438871383667
1772789047327144200,7.043144287109375,-0.01836395263671875,0.017609000205993652,-0.006398111581802368
1772789047347242800,7.06324267578125,-0.018367767333984375,0.01748710870742798,0.0078002214431762695
1772789047367341600,7.083341552734375,-0.018364906311035156,-0.0208016037940979,-0.006572723388671875
1772789047387440000,7.103440185546875,-0.03751850128173828,-0.025478005409240723,-0.011405795812606812
1772789047407539000,7.1235390625,-0.008788108825683594,-0.0064029693603515625,0.002660810947418213
1772789047427637500,7.143637451171875,0.009776115417480469,0.003283679485321045,0.002971738576889038
1772789047467835000,7.1838349609375,0.0008087158203125,0.0033896565437316895,0.012806504964828491
1772789047508032300,7.2240322265625,-0.046484947204589844,-0.005875825881958008,-0.005576640367507935
1772789047528131000,7.244131103515625,-0.008745193481445312,-0.005750715732574463,0.003942906856536865
1772789047548229600,7.264229736328125,-0.027297019958496094,-0.0008423924446105957,0.008555591106414795
1772789047568328200,7.284328125,-0.023097991943359375,0.008940279483795166,-0.010378807783126831
1772789047588427000,7.304427001953125,-0.013532638549804688,-0.005722522735595703,0.01344752311706543
1772789047608525600,7.324525634765625,-0.008758544921875,-0.010690271854400635,0.013629555702209473
1772789047628624400,7.344624267578125,0.0008258819580078125,0.0037322640419006348,0.004086524248123169
1772789047648723000,7.364722900390625,0.0008363723754882812,0.0038353800773620605,0.018313974142074585
1772789047668821500,7.384821533203125,0.0008544921875,-0.010236501693725586,0.013053089380264282
1772789047709015800,7.425015869140625,-0.018301963806152344,-0.014966011047363281,0.017688900232315063
1772789047729112800,7.44511279296875,-0.023101806640625,0.023273468017578125,0.0034215450286865234
1772789047749210000,7.465210205078125,-0.018327713012695312,0.013514935970306396,-0.005992472171783447
1772789047769307400,7.485307373046875,-0.02311229705810547,-0.015193045139312744,-0.006100654602050781
1772789047789404400,7.505404296875,-0.023107528686523438,0.004071474075317383,0.008341670036315918
1772789047809501700,7.525501708984375,-0.008726119995117188,-0.005385696887969971,0.008374065160751343
1772789047829598700,7.5455986328125,-0.02309417724609375,-0.0004786849021911621,0.01807105541229248
1772789047849696000,7.565696044921875,-0.003916740417480469,-0.005076467990875244,0.01326867938041687
1772789047869793300,7.585793212890625,0.0008764266967773438,-0.009840428829193115,0.013832569122314453
1772789047909987600,7.625987548828125,-0.013489723205566406,-0.00025218725204467773,0.008787214756011963
1772789047930084600,7.646084716796875,-0.013485908508300781,-0.0049127936363220215,0.0089893639087677
1772789047950182000,7.666181884765625,-0.008707046508789062,-0.005101382732391357,0.013751983642578125
1772789047970279200,7.686279052734375,-0.01828289031982422,0.008664727210998535,0.00873345136642456
1772789047990376200,7.706376220703125,-0.013475418090820312,0.004129767417907715,0.003969639539718628
1772789048010473500,7.726473388671875,-0.013456344604492188,0.0001513361930847168,0.0037915706634521484
1772789048030570800,7.74657080078125,-0.008669853210449219,0.009225606918334961,-0.00536462664604187
1772789048050667800,7.766667724609375,0.015278816223144531,-0.005183696746826172,0.013925313949584961
1772789048070765000,7.78676513671875,-0.01346588134765625,0.00019943714141845703,0.0036504268646240234
1772789048090862000,7.806862060546875,-0.00388336181640625,0.00506967306137085,-0.0009197890758514404
1772789048110959400,7.82695947265625,-0.013475418090820312,0.004934072494506836,-0.011085063219070435
1772789048131056600,7.847056640625,-0.03262138366699219,-0.013952136039733887,-0.011067122220993042
1772789048151153700,7.867153564453125,-0.00867462158203125,0.009862422943115234,0.008074581623077393
1772789048171251000,7.8872509765625,-0.013459205627441406,0.0004152059555053711,0.012954473495483398
1772789048191348700,7.9073486328125,0.009908676147460938,-0.0036339163780212402,0.008114844560623169
1772789048211446300,7.9274462890625,0.014705657958984375,-0.0036472082138061523,0.00786125659942627
1772789048231543800,7.947543701171875,-0.00445556640625,-0.008424878120422363,-0.0017927289009094238
1772789048271739100,7.9877392578125,-0.013447761535644531,-0.013825595378875732,0.004467666149139404
1772789048291836700,8.007836669921875,-0.008664131164550781,-0.00913935899734497,0.009280890226364136
1772789048311934500,8.0279345703125,-0.0182342529296875,0.014280915260314941,0.004215866327285767
1772789048332032000,8.048031982421875,-0.008654594421386719,0.009435117244720459,0.004186868667602539
1772789048352129800,8.0681298828125,-0.01345062255859375,-0.005097568035125732,0.027926325798034668
1772789048372227300,8.088227294921875,0.0009145736694335938,0.004405856132507324,0.00402069091796875
1772789048392324900,8.108324951171875,0.010496139526367188,-0.00035566091537475586,0.004160553216934204
1772789048412422700,8.128422607421875,-0.013453483581542969,-0.01944577693939209,0.008914649486541748
1772789048432520200,8.148520263671875,-0.017635345458984375,-0.004977583885192871,0.008776754140853882
1772789048452617700,8.16861767578125,0.000946044921875,-0.013685524463653564,0.012448817491531372
1772789048472715500,8.188715576171875,0.0009374618530273438,-0.013775229454040527,-0.0018090605735778809
1772789048492813000,8.20881298828125,0.014705657958984375,0.019751787185668945,0.0031420886516571045
1772789048512910800,8.228910888671875,0.005129814147949219,0.005504906177520752,0.008054643869400024
1772789048533008400,8.24900830078125,-0.027803421020507812,-0.00821828842163086,0.0032126009464263916
1772789048553106000,8.26910595703125,-0.003841400146484375,-0.013001203536987305,0.026965856552124023
1772789048573203700,8.28920361328125,-0.0044536590576171875,-0.00830906629562378,0.008003711700439453
1772789048593301200,8.30930126953125,-0.027807235717773438,0.001363992691040039,0.003343820571899414
1772789048613399000,8.32939892578125,-0.01821613311767578,0.006234943866729736,0.0032174885272979736
1772789048653594000,8.369593994140626,-0.0038318634033203125,-0.0038815736770629883,0.008372247219085693
1772789048673692200,8.389692138671874,0.0009565353393554688,-0.01827824115753174,-0.0011934638023376465
1772789048693790200,8.409790283203124,-0.008610725402832031,-0.0037012100219726562,0.01796811819076538
1772789048733986800,8.44998681640625,-0.013379096984863281,0.015604972839355469,0.01750791072845459
1772789048754085000,8.470085205078124,-0.022954940795898438,0.0013170242309570312,0.0037187933921813965
1772789048774183400,8.490183349609374,-0.022965431213378906,0.006074011325836182,0.004010051488876343
1772789048794281500,8.510281494140624,-0.022373199462890625,-0.0035138726234436035,-0.005348950624465942
1772789048814379800,8.5303798828125,-0.013392448425292969,-0.02747553586959839,0.004269659519195557
1772789048834478000,8.55047802734375,0.0009937286376953125,0.006238222122192383,0.004262089729309082
1772789048854576400,8.570576416015625,-0.013388633728027344,0.006103694438934326,0.009033381938934326
1772789048874674400,8.59067431640625,0.0009908676147460938,-0.008263468742370605,0.008816629648208618
1772789048894772700,8.610772705078125,-0.008580207824707031,-0.017808735370635986,0.008543610572814941
1772789048914871000,8.63087109375,-0.0037813186645507812,-0.008224844932556152,0.013044357299804688
1772789048934969300,8.65096923828125,-0.0037603378295898438,0.006317257881164551,-0.006416022777557373
1772789048955067600,8.671067626953125,-0.018148422241210938,0.015157938003540039,-0.0015051960945129395
1772789048975165700,8.691165771484375,-0.01814746856689453,-0.003422081470489502,0.003227323293685913
1772789048995264000,8.711263916015625,-0.02236175537109375,0.005216121673583984,0.022380590438842773
1772789049015362300,8.7313623046875,-0.008584976196289062,0.000561833381652832,-0.010926306247711182
1772789049035460600,8.751460693359375,-0.01758575439453125,-0.0043906569480896,0.00842815637588501
1772789049055558700,8.77155859375,-0.003814697265625,0.000988006591796875,0.022308290004730225
1772789049075657000,8.791656982421875,-0.013394355773925781,-0.0037613511085510254,0.0031798183917999268
1772789049095755300,8.81175537109375,-0.013401031494140625,0.005729317665100098,-0.011220604181289673
1772789049115853600,8.831853515625,-0.02777099609375,0.010428309440612793,0.0172194242477417
1772789049135952000,8.851951904296875,0.005779266357421875,0.010643482208251953,0.017278552055358887
1772789049176149200,8.892149169921876,-0.0038242340087890625,0.0007891654968261719,0.011977016925811768
1772789049196249300,8.912249267578124,0.00096893310546875,-0.008735895156860352,0.002447664737701416
1772789049216349400,8.932349365234375,0.005157470703125,-0.00873655080795288,0.012153208255767822
1772789049236449500,8.952449462890625,0.0009708404541015625,0.0009271502494812012,-0.0022192001342773438
1772789049256549400,8.97254931640625,0.005766868591308594,-0.003758847713470459,-0.0062856972217559814
1772789049276649500,8.9926494140625,0.0009717941284179688,-0.013335108757019043,0.003395587205886841
1772789049296749600,9.01274951171875,-0.01819133758544922,-0.003815293312072754,0.003220885992050171
1772789049316849700,9.032849609375,0.00577545166015625,0.010722875595092773,-0.001563727855682373
1772789049336949800,9.05294970703125,-0.01819133758544922,0.015360653400421143,0.008059412240982056
1772789049357049900,9.0730498046875,-0.0038347244262695312,0.0006506443023681641,-0.0017367005348205566
1772789049377150000,9.09314990234375,0.009923934936523438,0.00041800737380981445,0.0029904544353485107
1772789049397250000,9.11325,-0.0038547515869140625,-0.004423379898071289,-0.0017421245574951172
1772789049417350000,9.133349853515625,-0.013434410095214844,-0.004332065582275391,0.003200054168701172
1772789049437450000,9.153449951171876,-0.018225669860839844,0.005219638347625732,0.01747223734855652
1772789049457550000,9.173550048828124,-0.003841400146484375,-0.000027060508728027344,0.022868454456329346
1772789049497750300,9.213750244140625,-0.01760387420654297,-0.009572446346282959,-0.00086173415184021
1772789049537950500,9.253950439453124,-0.008005142211914062,0.019409775733947754,0.027877718210220337
1772789049558050300,9.27405029296875,-0.008001327514648438,0.0002911686897277832,-0.01047179102897644
1772789049578150400,9.294150390625,0.0057621002197265625,0.00021272897720336914,0.004107296466827393
1772789049598250500,9.31425048828125,-0.01280975341796875,-0.018971562385559082,-0.0005201399326324463
1772789049618350600,9.3343505859375,-0.00322723388671875,0.0003285408020019531,-0.009769290685653687
1772789049638450700,9.35445068359375,0.0015592575073242188,-0.009299755096435547,0.0052480995655059814
1772789049658550500,9.374550537109375,-0.008617401123046875,0.005200088024139404,-0.005363285541534424
1772789049678649300,9.3946494140625,-0.0134124755859375,0.0003883242607116699,0.018693655729293823
1772789049698747400,9.414747314453125,-0.008624076843261719,0.009880483150482178,-0.005396127700805664
1772789049718845200,9.43484521484375,0.000949859619140625,-0.004548847675323486,0.009121239185333252
1772789049738943200,9.454943115234375,-0.02240753173828125,0.00017386674880981445,0.018602639436721802
1772789049759041300,9.475041259765625,-0.022401809692382812,0.0002669692039489746,-0.000551760196685791
1772789049779139000,9.49513916015625,-0.008622169494628906,0.000303804874420166,0.008909046649932861
1772789049799237000,9.515237060546875,0.010538101196289062,0.0194474458694458,-0.0005782544612884521
1772789049819335000,9.5353349609375,0.00574493408203125,0.009873747825622559,0.00908517837524414
1772789049839433000,9.555432861328125,-0.018225669860839844,0.00016760826110839844,0.018925070762634277
1772789049859531000,9.575531005859375,-0.018250465393066406,0.019004344940185547,-0.0001480579376220703
1772789049879635700,9.5956357421875,-0.022446632385253906,0.00933218002319336,0.004567533731460571
1772789049899733800,9.615733642578125,-0.008684158325195312,-0.009331822395324707,-0.000024646520614624023
1772789049919831600,9.63583154296875,-0.013482093811035156,-0.0003687739372253418,0.00494152307510376
1772789049939929600,9.6559296875,-0.018280982971191406,0.004186570644378662,0.014215141534805298
1772789049960027400,9.67602734375,0.0008840560913085938,-0.009583055973052979,0.014170259237289429
1772789050000223500,9.716223388671875,-0.0134735107421875,0.004294157028198242,0.004314243793487549
1772789050020321500,9.736321533203125,-0.0038957595825195312,-0.004747629165649414,0.023514240980148315
1772789050040419300,9.75641943359375,0.0008916854858398438,-0.00958925485610962,0.00432237982749939
1772789050080615200,9.796615234375,-0.01346588134765625,0.009246230125427246,0.009241729974746704
1772789050100713200,9.816713134765624,-0.0320281982421875,-0.00034052133560180664,0.009097576141357422
1772789050140909000,9.856908935546874,-0.017652511596679688,-0.00022608041763305664,-0.005080908536911011
1772789050161007000,9.877007080078124,-0.022443771362304688,-0.009804368019104004,-0.005042225122451782
1772789050181105000,9.89710498046875,-0.013459205627441406,0.009326040744781494,0.004404813051223755
1772789050201202700,9.91720263671875,-0.0224456787109375,0.009234309196472168,-0.000504910945892334
1772789050221300700,9.93730078125,-0.008678436279296875,-0.0004209280014038086,-0.010008692741394043
1772789050241398500,9.9573984375,0.0009298324584960938,0.004701673984527588,-0.010161489248275757
1772789050281594000,9.997593994140624,-0.022439956665039062,0.004608750343322754,-0.005082249641418457
1772789050301692200,10.017692138671874,-0.017648696899414062,-0.0049659013748168945,0.014089912176132202
1772789050321790000,10.0377900390625,-0.012857437133789062,-0.0001895427703857422,-0.004523605108261108
1772789050341887700,10.0578876953125,-0.01764965057373047,-0.0049391984939575195,0.009376883506774902
1772789050361985500,10.077985595703124,-0.0038709640502929688,0.014281809329986572,0.0004266500473022461
1772789050382083300,10.098083251953126,-0.012853622436523438,0.004661202430725098,0.0002548396587371826
1772789050402181400,10.118181396484376,-0.012850761413574219,-0.00970548391342163,0.01935538649559021
1772789050422279200,10.138279052734376,0.00093841552734375,-0.019252002239227295,0.009313046932220459
1772789050462474800,10.178474853515626,0.015316009521484375,0.004769802093505859,0.009295761585235596
1772789050502670600,10.218670654296876,-0.022443771362304688,0.023453950881958008,0.009253770112991333
1772789050542866200,10.2588662109375,-0.027227401733398438,-0.0005394220352172852,0.008866161108016968
1772789050583062000,10.29906201171875,-0.017640113830566406,-0.005316615104675293,0.008692324161529541
1772789050603159800,10.319159912109376,0.005722999572753906,-0.010000526905059814,-0.0008520185947418213
1772789050623257600,10.339257568359375,-0.008650779724121094,0.014011263847351074,0.008894383907318115
1772789050643355400,10.35935546875,-0.008636474609375,0.004602313041687012,0.00403439998626709
1772789050663453400,10.379453369140625,0.00095367431640625,-0.00960993766784668,0.013672828674316406
1772789050683552500,10.399552490234376,-0.008019447326660156,0.00010567903518676758,0.0041075944900512695
1772789050703651600,10.419651611328124,-0.0038461685180664062,0.02372056245803833,-0.000848919153213501
1772789050723751000,10.4397509765625,-0.01761150360107422,-0.00019997358322143555,-0.005905568599700928
1772789050743850200,10.459850341796875,-0.012816429138183594,0.004606366157531738,-0.0011966526508331299
1772789050763949600,10.479949462890625,-0.00322723388671875,0.02379387617111206,0.0034106075763702393
1772789050784048600,10.500048583984375,-0.02239990234375,-0.009894132614135742,0.012936979532241821
1772789050804148000,10.52014794921875,-0.0032329559326171875,-0.009890496730804443,0.02239203453063965
1772789050824247300,10.540247314453126,0.0009603500366210938,0.014109969139099121,0.012861162424087524
1772789050844346400,10.560346435546874,-0.012820243835449219,0.01405346393585205,-0.01098296046257019
1772789050864445700,10.58044580078125,-0.02239990234375,-0.0009834766387939453,-0.0010262727737426758
1772789050884545000,10.600544921875,0.0015592575073242188,-0.00100022554397583,0.008361130952835083
1772789050904644400,10.620644287109375,-0.02239990234375,-0.005843758583068848,0.0035955607891082764
1772789050924743400,10.640743408203125,-0.012815475463867188,-0.01068103313446045,-0.006207823753356934
1772789050944842800,10.6608427734375,-0.0032434463500976562,0.00828176736831665,0.017622321844100952
1772789050964942000,10.680942138671876,-0.022391319274902344,0.0037253499031066895,0.008047163486480713
1772789050985041200,10.701041259765624,-0.012789726257324219,-0.01031959056854248,-0.000835120677947998
1772789051005140500,10.721140380859374,0.0015850067138671875,-0.0007027387619018555,0.018318086862564087
1772789051025239800,10.74123974609375,-0.0031833648681640625,-0.0005131959915161133,0.0036504268646240234
1772789051045339100,10.761339111328125,-0.003173828125,-0.00037789344787597656,-0.010722190141677856
1772789051065438200,10.781438232421875,-0.00797271728515625,-0.004628121852874756,0.012144148349761963
1772789051085537500,10.80153759765625,-0.007975578308105469,-0.004684805870056152,0.007321268320083618
1772789051105636900,10.821636962890626,-0.0271453857421875,-0.004842281341552734,0.007131487131118774
1772789051125736000,10.84173583984375,-0.0038089752197265625,-0.005054175853729248,-0.011853992938995361
1772789051145835300,10.861835205078124,0.0057888031005859375,0.004653036594390869,-0.0025431811809539795
1772789051165934600,10.8819345703125,-0.008586883544921875,0.01423633098602295,0.016127675771713257
1772789051186033400,10.902033447265625,0.00099945068359375,0.014352798461914062,-0.002926856279373169
1772789051226231600,10.9422314453125,-0.022365570068359375,0.023688077926635742,0.00161018967628479
1772789051266429400,10.982429443359376,0.015368461608886719,0.008608996868133545,0.011926978826522827
1772789051286528300,11.0025283203125,0.029740333557128906,-0.0009489655494689941,0.007216751575469971
1772789051306627300,11.02262744140625,-0.012769699096679688,-0.010471343994140625,0.016626745462417603
1772789051326726100,11.04272607421875,-0.031955718994140625,0.0037721991539001465,0.007474750280380249
1772789051346825200,11.0628251953125,0.0015916824340820312,-0.005753755569458008,-0.0023316144943237305
1772789051387023000,11.103023193359375,-0.01752948760986328,-0.010212361812591553,0.011354029178619385
1772789051407122200,11.1231220703125,-0.007950782775878906,0.00890427827835083,0.011368900537490845
1772789051427221000,11.143220947265625,-0.01273345947265625,-0.005373954772949219,0.0022923648357391357
1772789051447320000,11.163320068359376,-0.022312164306640625,-0.0005470514297485352,-0.007295727729797363
1772789051467419000,11.1834189453125,0.005841255187988281,0.009598255157470703,-0.004023432731628418
1772789051507616800,11.22361669921875,-0.02229595184326172,-0.004653215408325195,0.015108168125152588
1772789051527715800,11.2437158203125,-0.0031480789184570312,-0.014482378959655762,0.005484789609909058
1772789051547815000,11.26381494140625,-0.017533302307128906,-0.014617621898651123,0.0007791817188262939
1772789051567913700,11.283913818359375,-0.017528533935546875,0.009397268295288086,0.005527466535568237
1772789051588012800,11.3040126953125,0.010630607604980469,0.00941532850265503,0.014743685722351074
1772789051608111600,11.324111572265625,-0.031897544860839844,0.009211719036102295,0.019309937953948975
1772789051628210700,11.344210693359376,-0.04147529602050781,-0.0002835988998413086,-0.004565536975860596
1772789051648309500,11.3643095703125,-0.017528533935546875,-0.00035011768341064453,-0.009223192930221558
1772789051668408300,11.384408203125,-0.0175323486328125,0.004412174224853516,0.0010264217853546143
1772789051688505600,11.404505615234376,-0.01274871826171875,0.009063899517059326,-0.013430893421173096
1772789051708603100,11.42460302734375,-0.007953643798828125,0.009080588817596436,0.0008573234081268311
1772789051748798000,11.4647978515625,0.001613616943359375,-0.010400176048278809,-0.009015440940856934
1772789051788992500,11.504992431640625,0.005809783935546875,-0.0007072091102600098,0.01026412844657898
1772789051809090000,11.525090087890625,-0.012762069702148438,0.0038967132568359375,-0.004290938377380371
1772789051829187300,11.545187255859375,0.001617431640625,-0.0056882500648498535,0.009822249412536621
1772789051869382100,11.585382080078125,0.005827903747558594,0.004031002521514893,-0.009663015604019165
1772789051889479400,11.6054794921875,-0.012729644775390625,-0.010277807712554932,-0.00498923659324646
1772789051909577000,11.625576904296874,-0.02229785919189453,-0.0005510449409484863,-0.00027617812156677246
1772789051929674200,11.64567431640625,-0.0031385421752929688,-0.0005620718002319336,0.009424209594726562
1772789051949771500,11.665771484375,-0.0031347274780273438,-0.00536036491394043,-0.0050758421421051025
1772789051969869000,11.685869140625,-0.02707672119140625,0.004356086254119873,0.009145200252532959
1772789051989966300,11.70596630859375,-0.022283554077148438,0.004381835460662842,0.009143620729446411
1772789052030161200,11.7461611328125,0.015447616577148438,-0.00999993085861206,-0.014953374862670898
1772789052050258400,11.766258544921875,-0.017499923706054688,-0.010149180889129639,-0.005393952131271362
1772789052070356000,11.78635595703125,-0.0031576156616210938,0.008063673973083496,-0.009921938180923462
1772789052110550500,11.826550537109375,0.0016355514526367188,-0.006300389766693115,0.0043447911739349365
1772789052150745300,11.866745361328125,-0.012727737426757812,0.008042097091674805,0.003953367471694946
1772789052170843100,11.886843017578125,-0.012715339660644531,-0.00617140531539917,0.008699536323547363
1772789052190941700,11.906941650390625,-0.017498016357421875,-0.006012916564941406,-0.0008014142513275146
1772789052231138800,11.947138916015625,-0.01751708984375,0.00816333293914795,0.004205286502838135
1772789052251237400,11.9672373046875,-0.007948875427246094,-0.006415307521820068,0.023341983556747437
1772789052271336000,11.9873359375,-0.01752758026123047,0.017580687999725342,0.004731297492980957
1772789052291434500,12.0074345703125,-0.003143310546875,-0.0014393329620361328,0.009524643421173096
1772789052311533300,12.027533203125,-0.012715339660644531,-0.006012022495269775,0.009689003229141235
1772789052351730400,12.06773046875,-0.007908821105957031,0.008498668670654297,0.004684358835220337
1772789052371829000,12.0878291015625,-0.0078887939453125,-0.0008196234703063965,0.0046186745166778564
1772789052391927600,12.107927490234376,-0.012660026550292969,0.01386791467666626,0.009463757276535034
1772789052412026000,12.128026123046874,-0.017461776733398438,-0.0006821155548095703,0.019003689289093018
1772789052432124700,12.148124755859374,0.0017032623291015625,-0.010304093360900879,0.009275287389755249
1772789052452223200,12.16822314453125,-0.0030994415283203125,-0.0009461045265197754,-0.0003827810287475586
1772789052492420400,12.20842041015625,-0.012660026550292969,-0.005599379539489746,0.008737295866012573
1772789052512519000,12.228518798828125,-0.012683868408203125,-0.0010303258895874023,-0.019719690084457397
1772789052532617700,12.24861767578125,-0.007886886596679688,-0.005669116973876953,-0.00997459888458252
1772789052552716300,12.26871630859375,0.006488800048828125,-0.0007347464561462402,0.009461283683776855
1772789052572814800,12.28881494140625,0.006481170654296875,0.008752286434173584,-0.00010776519775390625
1772789052592913400,12.308913330078125,-0.017462730407714844,-0.005512595176696777,0.004547625780105591
1772789052613012000,12.329011962890625,0.0016937255859375,-0.0007823705673217773,-0.00009232759475708008
1772789052633110500,12.349110595703126,0.006501197814941406,-0.005265474319458008,0.0048674046993255615
1772789052653209000,12.369208984375,0.0017194747924804688,-0.0003388524055480957,0.004274278879165649
1772789052693404400,12.409404296875,-0.022230148315429688,0.013971507549285889,0.008709371089935303
1772789052733599000,12.449598876953125,-0.0030651092529296875,-0.01892930269241333,0.0039758384227752686
1772789052753696300,12.4696962890625,-0.0030679702758789062,-0.00032955408096313477,-0.0006324946880340576
1772789052773793500,12.48979345703125,-0.007859230041503906,0.0044405460357666016,-0.000653684139251709
1772789052793890800,12.509890869140625,0.001712799072265625,-0.01431363821029663,0.003997474908828735
1772789052813988000,12.529988037109375,-0.012647628784179688,-0.014197826385498047,0.0038438141345977783
1772789052834085000,12.550085205078124,-0.012637138366699219,0.00981980562210083,0.0036356747150421143
1772789052854182400,12.570182373046874,-0.012653350830078125,0.009086310863494873,-0.005128949880599976
1772789052894377000,12.610376953125,-0.007854461669921875,0.013786077499389648,-0.0008032023906707764
1772789052914474200,12.63047412109375,-0.0030508041381835938,0.009151220321655273,0.013490527868270874
1772789052934571500,12.650571533203125,0.0017337799072265625,-0.0004953742027282715,-0.010403215885162354
1772789052954668800,12.670668701171875,-0.012635231018066406,-0.00995856523513794,-0.009645253419876099
1772789052974766000,12.69076611328125,-0.012041091918945312,-0.0005463957786560059,-0.014686137437820435
1772789052994863400,12.71086328125,-0.012050628662109375,0.013774096965789795,-0.00491255521774292
1772789053014960600,12.730960693359375,0.0017232894897460938,0.008891940116882324,-0.0003528594970703125
1772789053035058000,12.751057861328125,-0.012056350708007812,-0.015184879302978516,-0.0148124098777771
1772789053055155000,12.771155029296875,0.0017175674438476562,-0.019946813583374023,0.008633136749267578
1772789053075252500,12.79125244140625,-0.00785064697265625,0.004088401794433594,-0.006008714437484741
1772789053095349500,12.811349609375,-0.021625518798828125,-0.000672459602355957,-0.0011508166790008545
1772789053115446800,12.83144677734375,-0.026418685913085938,-0.010242998600006104,-0.010638654232025146
1772789053135544000,12.8515439453125,0.011319160461425781,-0.0005153417587280273,-0.00575488805770874
1772789053155641300,12.871641357421876,0.011323928833007812,-0.005265474319458008,0.003737151622772217
1772789053175739400,12.891739501953126,-0.0030574798583984375,-0.005382239818572998,0.00855797529220581
1772789053215936500,12.9319365234375,-0.01264190673828125,-0.0006675124168395996,0.008419245481491089
1772789053236035300,12.952035400390624,-0.0030565261840820312,0.004145979881286621,-0.005971401929855347
1772789053256134000,12.9721337890625,-0.012645721435546875,0.008886098861694336,0.00849178433418274
1772789053276232400,12.992232421875,-0.012652397155761719,-0.005529820919036865,-0.005730390548706055
1772789053296331300,13.012331298828125,-0.016845703125,0.004070103168487549,-0.0008693337440490723
1772789053316429800,13.032429931640625,-0.021636962890625,0.004093348979949951,-0.005583226680755615
1772789053336528400,13.0525283203125,-0.021623611450195312,-0.0007547140121459961,-0.006172358989715576
1772789053356627200,13.072627197265625,0.011313438415527344,0.0039563775062561035,0.0032217204570770264
1772789053376725800,13.092725830078125,-0.012642860412597656,0.0038724541664123535,-0.0016987621784210205
1772789053416923100,13.132923095703125,-0.03119659423828125,-0.0007944703102111816,-0.006624817848205566
1772789053437021700,13.153021728515625,-0.021615028381347656,-0.0008558034896850586,0.002874016761779785
1772789053457120500,13.17312060546875,-0.021623611450195312,0.008027493953704834,0.0034980177879333496
1772789053477219000,13.193218994140626,-0.007841110229492188,-0.01031714677810669,0.008532851934432983
1772789053497317600,13.213317626953126,-0.016828536987304688,-0.0012993812561035156,-0.005625694990158081
1772789053517416400,13.23341650390625,-0.012061119079589844,-0.015362441539764404,0.008885085582733154
1772789053537515000,13.253514892578124,0.0016937255859375,-0.0018100738525390625,-0.0005812942981719971
1772789053557613600,13.273613525390624,-0.016862869262695312,0.007892489433288574,-0.0005755126476287842
1772789053577712400,13.29371240234375,-0.007297515869140625,0.0030196309089660645,0.0046160221099853516
1772789053597811000,13.31381103515625,-0.012085914611816406,-0.020890533924102783,-0.004937082529067993
1772789053617909800,13.33390966796875,-0.02169036865234375,-0.01160275936126709,-0.00008243322372436523
1772789053638008300,13.35400830078125,-0.016910552978515625,-0.006953895092010498,-0.00005632638931274414
1772789053658107000,13.37410693359375,0.00164794921875,-0.006524860858917236,0.003951936960220337
1772789053678205200,13.394205078125,-0.007946968078613281,-0.006616771221160889,-0.01015731692314148
1772789053698303200,13.41430322265625,-0.0079498291015625,-0.006572067737579346,-0.005152583122253418
1772789053718401300,13.4344013671875,-0.012743949890136719,-0.006674647331237793,0.013276249170303345
1772789053738499000,13.4544990234375,-0.007964134216308594,-0.001947641372680664,-0.0008798837661743164
1772789053758597000,13.47459716796875,-0.017554283142089844,-0.006887674331665039,-0.010523110628128052
1772789053778695200,13.494695068359375,-0.012755393981933594,0.007558226585388184,-0.005858093500137329
1772789053818891300,13.534891357421875,-0.022339820861816406,0.0074729323387146,-0.005930900573730469
1772789053838989300,13.5549892578125,-0.017547607421875,0.002665698528289795,0.008333206176757812
1772789053859087400,13.57508740234375,-0.012145042419433594,-0.006703197956085205,0.009617805480957031
1772789053879185200,13.59518505859375,-0.0031633377075195312,-0.0025713443756103516,-0.000056236982345581055
1772789053899283200,13.615283203125,0.006415367126464844,-0.0025228261947631836,0.009736388921737671
1772789053939479300,13.655479248046875,-0.012126922607421875,-0.02143007516860962,-0.004819959402084351
1772789053959577300,13.675577392578125,-0.0025453567504882812,-0.0022258758544921875,0.004858911037445068
1772789053979675400,13.69567529296875,-0.01212310791015625,-0.007007896900177002,0.0053574442863464355
1772789053999773400,13.7157734375,0.011242866516113281,-0.016559600830078125,0.00032463669776916504
1772789054019871200,13.735871337890625,0.01602649688720703,-0.016697227954864502,0.00021535158157348633
1772789054039969300,13.75596923828125,-0.01691436767578125,0.007222950458526611,-0.01416727900505066
1772789054060067300,13.7760673828125,0.00164794921875,0.0028983354568481445,0.003581613302230835
1772789054100263400,13.816263427734375,-0.0031576156616210938,0.0074599385261535645,0.013135582208633423
1772789054120361500,13.836361572265625,-0.012730598449707031,-0.02119046449661255,-0.0013301372528076172
1772789054140459300,13.856459228515625,-0.007930755615234375,-0.006708502769470215,-0.006144672632217407
1772789054160557300,13.876557373046875,-0.022304534912109375,-0.0020308494567871094,-0.0016074180603027344
1772789054180655900,13.89665576171875,-0.02650928497314453,-0.011697769165039062,-0.0013942122459411621
1772789054200754400,13.91675439453125,-0.003154754638671875,0.0026518702507019043,-0.010937601327896118
1772789054240951800,13.956951904296876,-0.012755393981933594,-0.00228804349899292,0.012663960456848145
1772789054261050400,13.97705029296875,-0.03132152557373047,0.0018880963325500488,-0.005281209945678711
1772789054281149200,13.997149169921874,-0.0073604583740234375,0.006805062294006348,0.005006462335586548
1772789054301247700,14.017247802734374,-0.01215362548828125,0.01155000925064087,0.004948794841766357
1772789054321346300,14.03734619140625,0.002227783203125,0.011661171913146973,0.009729772806167603
1772789054341444900,14.05744482421875,0.0022220611572265625,0.0019502043724060059,0.009597450494766235
1772789054361543700,14.077543701171875,-0.0025606155395507812,-0.002746284008026123,-0.009639531373977661
1772789054401740800,14.11774072265625,-0.01691722869873047,-0.0025795698165893555,-0.004990905523300171
1772789054421839600,14.137839599609375,-0.016920089721679688,-0.012243926525115967,0.004482001066207886
1772789054462036700,14.17803662109375,-0.012737274169921875,-0.006907761096954346,-0.0013127326965332031
1772789054482135600,14.198135498046875,-0.031302452087402344,0.002705216407775879,-0.006035357713699341
1772789054502234000,14.218234130859376,-0.0031538009643554688,0.002682626247406006,-0.006118059158325195
1772789054542431500,14.258431396484376,-0.012724876403808594,-0.0019251108169555664,-0.006063908338546753
1772789054562530000,14.278530029296874,0.0064334869384765625,-0.0019478201866149902,-0.0011211931705474854
1772789054582628600,14.298628662109374,-0.0264892578125,0.0029931068420410156,0.0034830868244171143
1772789054602727200,14.31872705078125,-0.0222930908203125,-0.011366844177246094,-0.0014085769653320312
1772789054622826000,14.338825927734375,-0.012709617614746094,-0.01135474443435669,-0.0020568370819091797
1772789054642924500,14.358924560546875,-0.003139495849609375,-0.011596739292144775,0.007367521524429321
1772789054663023000,14.379023193359375,0.0016450881958007812,-0.0021278858184814453,-0.0010497570037841797
1772789054683122200,14.3991220703125,-0.012144088745117188,0.02114856243133545,-0.0055213868618011475
1772789054723320600,14.439320556640626,0.011219978332519531,-0.0027391910552978516,0.013551294803619385
1772789054743419600,14.459419677734376,0.0016326904296875,0.0019217133522033691,-0.005751878023147583
1772789054763518700,14.479518798828124,-0.021728515625,-0.007756352424621582,0.0037747621536254883
1772789054783617800,14.49961767578125,-0.021726608276367188,-0.007642030715942383,-0.0055713653564453125
1772789054803716900,14.519716796875,0.011196136474609375,0.0017589926719665527,-0.005493968725204468
1772789054823816200,14.539816162109375,-0.0031681060791015625,-0.012486815452575684,0.004096388816833496
1772789054843915300,14.559915283203125,0.0016193389892578125,0.0065895915031433105,-0.0007879734039306641
1772789054864014300,14.580014404296875,-0.0073642730712890625,0.0017768144607543945,-0.0008330345153808594
1772789054884113400,14.600113525390626,0.01597881317138672,0.0064258575439453125,-0.005546152591705322
1772789054904212500,14.62021240234375,0.0015869140625,-0.008146822452545166,0.004253596067428589
1772789054924311800,14.640311767578124,-0.02178478240966797,-0.003566741943359375,0.009082943201065063
1772789054944411000,14.660410888671874,0.0015726089477539062,-0.012587785720825195,-0.010208040475845337
1772789054964510000,14.680510009765625,0.0015726089477539062,-0.003562748432159424,0.004260003566741943
1772789054984609000,14.700609130859375,-0.01700592041015625,0.010714828968048096,-0.019476354122161865
1772789055004708000,14.7207080078125,-0.0032434463500976562,-0.003764033317565918,-0.004913389682769775
1772789055024807400,14.740807373046875,0.001560211181640625,-0.003617405891418457,0.02849489450454712
1772789055044906500,14.760906494140626,-0.012228012084960938,0.005781710147857666,-0.00017914175987243652
1772789055065005600,14.781005615234376,-0.021814346313476562,0.015312016010284424,-0.01390048861503601
1772789055085104600,14.801104736328124,-0.017026901245117188,0.0008664727210998535,-0.004414260387420654
1772789055105203700,14.82120361328125,-0.0074310302734375,0.005835592746734619,-0.004445970058441162
1772789055125303000,14.841302978515625,-0.007422447204589844,0.0010770559310913086,0.009695738554000854
1772789055145402000,14.861402099609375,-0.012186050415039062,0.0061509013175964355,-0.009747356176376343
1772789055165501200,14.881501220703125,0.0021791458129882812,-0.008273422718048096,0.004768073558807373
1772789055185598700,14.9015986328125,0.006367683410644531,-0.013098716735839844,0.00003898143768310547
1772789055205696500,14.921696533203125,-0.01700878143310547,0.0011034011840820312,0.0003147721290588379
1772789055225794000,14.9417939453125,-0.007426261901855469,0.005869925022125244,-0.018899083137512207
1772789055245891800,14.961891845703125,-0.026587486267089844,0.0012033581733703613,0.005251973867416382
1772789055265989400,14.9819892578125,-0.02180194854736328,0.001713395118713379,-0.0001392662525177002
1772789055286087200,15.002087158203125,0.001556396484375,0.020945310592651367,-0.014461725950241089
1772789055306184700,15.022184814453125,-0.00322723388671875,-0.002932131290435791,-0.004918962717056274
1772789055326282500,15.042282470703125,0.015939712524414062,-0.0028568506240844727,-0.005445748567581177
1772789055346380000,15.062380126953125,-0.0032300949096679688,0.001890718936920166,0.004221737384796143
1772789055366477800,15.082477783203124,-0.01699352264404297,-0.007596909999847412,-0.0054998695850372314
1772789055386575400,15.102575439453124,0.006366729736328125,0.0020529627799987793,0.004085510969161987
1772789055406673200,15.122673095703124,-0.017592430114746094,0.002010524272918701,0.004114031791687012
1772789055426770700,15.142770751953124,-0.003215789794921875,0.0020713210105895996,-0.005408167839050293
1772789055446868500,15.162868408203124,0.0015859603881835938,0.006958067417144775,-0.005564481019973755
1772789055466966000,15.182966064453124,-0.0073947906494140625,-0.00792306661605835,-0.019185185432434082
1772789055487063800,15.203063720703126,-0.026556968688964844,-0.017490744590759277,0.009524911642074585
1772789055507161300,15.223161376953126,-0.016982078552246094,-0.003194153308868408,-0.014391511678695679
1772789055527259100,15.243259033203126,-0.016956329345703125,-0.007785439491271973,-0.00043404102325439453
1772789055547356700,15.263356689453126,0.011210441589355469,-0.017204105854034424,0.009452581405639648
1772789055567454500,15.283454345703126,0.0022373199462890625,-0.007483959197998047,0.0046416521072387695
1772789055587552000,15.303552001953125,-0.012154579162597656,0.016289234161376953,-0.004715383052825928
1772789055607649800,15.32364990234375,-0.007357597351074219,0.006811201572418213,0.00012683868408203125
1772789055627747300,15.343747314453125,0.011199951171875,-0.007683277130126953,-0.0047026872634887695
1772789055647845000,15.36384521484375,-0.0025691986083984375,-0.012420117855072021,-0.014342725276947021
1772789055667942700,15.383942626953125,-0.021726608276367188,0.0026143789291381836,-0.005406081676483154
1772789055688041200,15.404041259765625,0.0016298294067382812,0.012177467346191406,-0.01027706265449524
1772789055708139500,15.424139404296875,-0.0031652450561523438,-0.002154231071472168,-0.0052467286586761475
1772789055728237800,15.44423779296875,0.0016431808471679688,-0.006768643856048584,-0.0054495930671691895
1772789055748336400,15.46433642578125,-0.007928848266601562,0.007705807685852051,-0.010317713022232056
1772789055768434700,15.4844345703125,-0.016913414001464844,-0.0066828131675720215,-0.006113678216934204
1772789055788533000,15.504532958984376,-0.0031404495239257812,-0.0066489577293396,-0.001166313886642456
1772789055808631300,15.52463134765625,0.0016679763793945312,-0.006514608860015869,-0.015872597694396973
1772789055828729900,15.544729736328126,-0.007924079895019531,0.01745659112930298,-0.02503412961959839
1772789055848828200,15.564828125,0.00165557861328125,-0.016230463981628418,-0.006170719861984253
1772789055868926500,15.584926513671874,0.0016660690307617188,-0.016719341278076172,0.008713841438293457
1772789055889025000,15.60502490234375,-0.021692276000976562,0.0024029016494750977,-0.00027745962142944336
1772789055909123300,15.625123291015624,-0.002513885498046875,0.01223134994506836,-0.004998952150344849
1772789055929221600,15.6452216796875,0.011259078979492188,0.012215077877044678,-0.0049772560596466064
1772789055949320200,15.6653203125,0.002277374267578125,-0.002185046672821045,-0.00989067554473877
1772789055969418500,15.68541845703125,-0.01687908172607422,-0.011661171913146973,-0.014691054821014404
1772789055989516800,15.705516845703125,-0.012084007263183594,-0.0019505023956298828,0.01900145411491394
1772789056009615000,15.725614990234375,-0.00730133056640625,0.00284731388092041,0.004921257495880127
1772789056029713700,15.745713623046875,-0.021669387817382812,0.007586956024169922,-0.00012940168380737305
1772789056049812000,15.76581201171875,-0.026457786560058594,0.007641315460205078,-0.019290655851364136
1772789056069910300,15.78591015625,-0.0025053024291992188,-0.011521697044372559,-0.004841446876525879
1772789056090008800,15.8060087890625,-0.016878128051757812,-0.011520981788635254,0.004729598760604858
1772789056110107100,15.826107177734375,-0.03544807434082031,-0.002019643783569336,0.004755139350891113
1772789056130205400,15.846205322265625,-0.0073070526123046875,-0.011812865734100342,-0.009905070066452026
1772789056150303700,15.8663037109375,-0.021678924560546875,-0.0022057294845581055,-0.01471284031867981
1772789056170402000,15.886402099609375,-0.026465415954589844,0.007432460784912109,0.004443705081939697
1772789056190499800,15.906499755859375,-0.007290840148925781,0.002756476402282715,-0.010006874799728394
1772789056210597400,15.926597412109375,-0.026429176330566406,0.00785839557647705,-0.019155502319335938
1772789056230695200,15.946695068359375,-0.0024633407592773438,0.003075838088989258,-0.00035750865936279297
1772789056250792700,15.966792724609375,-0.007841110229492188,-0.00576704740524292,-0.00224950909614563
1772789056270890500,15.986890380859375,-0.022218704223632812,0.003670036792755127,-0.016783446073532104
1772789056290988300,16.00698828125,-0.017419815063476562,0.003675103187561035,-0.012882143259048462
1772789056311085800,16.0270859375,0.011339187622070312,0.008663058280944824,-0.003245413303375244
1772789056331183600,16.04718359375,0.0017595291137695312,-0.0008449554443359375,-0.0031769871711730957
1772789056351281400,16.067281494140627,0.005940437316894531,0.009174704551696777,-0.0031534433364868164
1772789056371379200,16.087379150390625,-0.012621879577636719,-0.009892046451568604,-0.0036421120166778564
1772789056391476700,16.107476806640626,-0.007818222045898438,-0.005015373229980469,-0.008667737245559692
1772789056411574500,16.127574462890625,-0.022184371948242188,-0.014488577842712402,-0.018211692571640015
1772789056431672000,16.147672119140626,-0.026994705200195312,0.004527151584625244,-0.013124644756317139
1772789056451769900,16.167769775390624,-0.016826629638671875,-0.0011031031608581543,-0.011458158493041992
1772789056471867600,16.18786767578125,-0.021619796752929688,-0.005864620208740234,-0.011289626359939575
1772789056491965200,16.207965087890624,-0.0311737060546875,-0.00546342134475708,-0.0017126798629760742
1772789056512063000,16.22806298828125,-0.007233619689941406,0.01302945613861084,-0.006176620721817017
1772789056532160800,16.248160888671876,-0.01681995391845703,0.013013243675231934,-0.006056547164916992
1772789056552258300,16.26825830078125,-0.031200408935546875,0.0033919811248779297,-0.001107931137084961
1772789056572356000,16.288356201171876,0.0017366409301757812,0.01773202419281006,-0.00593489408493042
1772789056592454000,16.308453857421874,-0.01681804656982422,0.013046085834503174,-0.006064265966415405
1772789056612551400,16.328551513671876,0.00653839111328125,-0.0013769865036010742,-0.006163567304611206
1772789056632649200,16.348649169921874,-0.026401519775390625,0.003484368324279785,-0.0011478066444396973
1772789056652747000,16.3687470703125,-0.026391983032226562,-0.005354523658752441,-0.005917280912399292
1772789056672844800,16.3888447265625,-0.016809463500976562,-0.010205268859863281,-0.006118178367614746
1772789056692943000,16.408943115234376,-0.026372909545898438,-0.01477515697479248,0.0028062164783477783
1772789056713041700,16.429041748046874,-0.016793251037597656,-0.0003261566162109375,-0.02510780096054077
1772789056733140000,16.449139892578124,-0.016791343688964844,0.004472136497497559,-0.015588641166687012
1772789056753238300,16.46923828125,-0.007814407348632812,-0.00029402971267700195,-0.006312459707260132
1772789056773336600,16.489336669921876,-0.02158641815185547,-0.005101025104522705,-0.016005009412765503
1772789056793435100,16.50943505859375,-0.0030269622802734375,0.014044106006622314,-0.0014640986919403076
1772789056813533400,16.529533447265624,-0.02159404754638672,0.004424095153808594,-0.006277263164520264
1772789056833631700,16.5496318359375,-0.012600898742675781,0.0045888423919677734,-0.006257236003875732
1772789056853730000,16.56972998046875,-0.0030059814453125,0.009529173374176025,-0.006938368082046509
1772789056873828400,16.589828369140626,-0.022174835205078125,-0.004913985729217529,-0.006920844316482544
1772789056893927000,16.609927001953125,-0.012600898742675781,0.014130771160125732,-0.01171824336051941
1772789056914025200,16.630025146484375,-0.022184371948242188,0.005151331424713135,-0.026027530431747437
1772789056934123500,16.65012353515625,-0.026953697204589844,0.0005896687507629395,-0.007107913494110107
1772789056954221800,16.670221923828127,-0.017364501953125,-0.008951961994171143,-0.016812413930892944
1772789056974320400,16.6903203125,-0.017355918884277344,0.005531728267669678,-0.017465174198150635
1772789056994418700,16.710418701171875,-0.00299072265625,0.0006498098373413086,-0.0269758403301239
1772789057014517000,16.73051708984375,-0.022144317626953125,-0.004007399082183838,-0.02223658561706543
1772789057034615300,16.750615234375,-0.017355918884277344,-0.023122549057006836,-0.0028820931911468506
1772789057054713600,16.770713623046873,-0.026332855224609375,-0.009288370609283447,0.0030594170093536377
1772789057074812200,16.790812255859375,-0.01255035400390625,0.01471412181854248,0.0028676092624664307
1772789057094910500,16.810910400390625,-0.007763862609863281,0.0004857182502746582,-0.02057027816772461
1772789057115008800,16.8310087890625,-0.012553215026855469,-0.01864248514175415,-0.01576182246208191
1772789057135107300,16.851107421875,0.00180816650390625,0.0004979372024536133,-0.010607421398162842
1772789057155205600,16.87120556640625,0.0018157958984375,-0.008925437927246094,-0.02006515860557556
1772789057175303700,16.8913037109375,-0.012563705444335938,0.0005803108215332031,-0.005665302276611328
1772789057195401700,16.911401611328124,-0.02154827117919922,0.00533747673034668,0.003919750452041626
1772789057215499800,16.931499755859374,-0.035918235778808594,-0.0042473673820495605,-0.00518915057182312
1772789057235597800,16.951597900390624,-0.011962890625,-0.01381450891494751,-0.009996861219406128
1772789057255696100,16.971696044921874,-0.0125732421875,0.0009779930114746094,0.012743204832077026
1772789057275794200,16.991794189453124,-0.017364501953125,0.005736291408538818,-0.0017079412937164307
1772789057295892200,17.011892333984374,-0.007762908935546875,-0.008319437503814697,-0.01118740439414978
1772789057315990300,17.031990234375,-0.02214336395263672,0.010799944400787354,-0.011027008295059204
1772789057336088300,17.05208837890625,-0.03174877166748047,0.0057201385498046875,-0.011513441801071167
1772789057356186400,17.072186279296876,-0.007800102233886719,-0.008647382259368896,-0.006472468376159668
1772789057376284400,17.092284423828126,-0.007814407348632812,0.015191256999969482,0.0033248066902160645
1772789057396382500,17.112382568359376,-0.022211074829101562,-0.013792335987091064,-0.010783493518829346
1772789057416480500,17.13248046875,-0.012638092041015625,0.0005030632019042969,0.00369146466255188
1772789057436578600,17.15257861328125,-0.012639999389648438,-0.004295051097869873,-0.010633260011672974
1772789057456676600,17.172676513671874,-0.012645721435546875,-0.009781479835510254,-0.009442955255508423
1772789057476774700,17.192774658203124,-0.016852378845214844,-0.009823441505432129,-0.027594774961471558
1772789057496872700,17.212872802734374,-0.02163219451904297,-0.00014930963516235352,-0.01819521188735962
1772789057516970800,17.232970703125,-0.01204681396484375,-0.0049533843994140625,0.010417282581329346
1772789057537068800,17.25306884765625,-0.031215667724609375,0.018335700035095215,0.005627453327178955
1772789057557167000,17.2731669921875,-0.012043952941894531,-0.010346770286560059,0.0006996393203735352
1772789057577265200,17.29326513671875,-0.01682758331298828,-0.005397617816925049,-0.00877639651298523
1772789057617461200,17.333461181640626,-0.007250785827636719,-0.000780940055847168,-0.00359189510345459
1772789057637559300,17.353559326171876,-0.02642822265625,0.008654952049255371,0.0013165771961212158
1772789057657657300,17.3736572265625,-0.017454147338867188,-0.014181256294250488,-0.0009947717189788818
1772789057677755600,17.393755615234376,-0.03183746337890625,-0.004815220832824707,-0.015475273132324219
1772789057697854200,17.413854248046874,-0.02704906463623047,-0.00009131431579589844,-0.001182854175567627
1772789057717953000,17.433953125,-0.03184795379638672,-0.004826068878173828,0.003994882106781006
1772789057738051600,17.454051513671875,-0.01747417449951172,0.004881083965301514,-0.0005147457122802734
1772789057758150100,17.474150146484376,-0.01328277587890625,-0.004705250263214111,-0.020251035690307617
1772789057778248700,17.494248779296875,-0.036627769470214844,-0.009382903575897217,-0.0011791884899139404
1772789057798347300,17.51434716796875,-0.008472442626953125,0.000878751277923584,0.008289992809295654
1772789057818445800,17.53444580078125,-0.022245407104492188,0.0153006911277771,0.0035699009895324707
1772789057838544400,17.55454443359375,-0.03661823272705078,-0.003866732120513916,-0.005978673696517944
1772789057858643200,17.574643310546875,-0.02225017547607422,-0.004524111747741699,-0.005350768566131592
1772789057878741800,17.59474169921875,-0.017470359802246094,0.014525532722473145,-0.0052727460861206055
1772789057898840300,17.61484033203125,-0.03184986114501953,0.019195139408111572,0.0042095184326171875
1772789057918939000,17.63493896484375,-0.02226734161376953,0.004842162132263184,-0.0005134642124176025
1772789057939037400,17.655037353515624,-0.02227306365966797,0.0000368952751159668,-0.014715403318405151
1772789057959136000,17.675135986328126,-0.007889747619628906,-0.00948333740234375,-0.010131806135177612
1772789057979234800,17.69523486328125,-0.017482757568359375,0.009638428688049316,-0.005091816186904907
1772789057999333400,17.71533349609375,-0.017469406127929688,0.009914100170135498,-0.019269883632659912
1772789058019432000,17.735431884765624,-0.036632537841796875,0.00505375862121582,-0.009824365377426147
1772789058039530500,17.755530517578126,-0.045632362365722656,-0.000010311603546142578,-0.009934097528457642
1772789058059629000,17.775629150390625,-0.022278785705566406,-0.004852890968322754,-0.019537389278411865
1772789058079727600,17.7957275390625,-0.01748371124267578,0.004799306392669678,-0.01474672555923462
1772789058099826400,17.815826416015625,-0.0031147003173828125,-0.004786014556884766,-0.00018611550331115723
1772789058119925000,17.835925048828123,-0.007905006408691406,-0.019122660160064697,-0.004937022924423218
1772789058140023600,17.8560234375,-0.03184795379638672,-0.009371459484100342,-0.004954814910888672
1772789058160122000,17.8761220703125,-0.03665447235107422,0.009595274925231934,-0.00009098649024963379
1772789058180220400,17.896220458984374,-0.022292137145996094,-0.004936695098876953,-0.004301995038986206
1772789058200319000,17.916319091796876,-0.017500877380371094,-0.004885971546173096,-0.008989989757537842
1772789058220417300,17.936417236328126,-0.02228832244873047,0.009601354598999023,-0.013616740703582764
1772789058240515600,17.956515625,-0.017518997192382812,0.00463104248046875,-0.003722935914993286
1772789058260614100,17.9766142578125,-0.012716293334960938,0.00008690357208251953,-0.0041238367557525635
1772789058280712400,17.99671240234375,-0.012720108032226562,0.00001537799835205078,0.0006315112113952637
1772789058300810800,18.016810791015626,-0.03667926788330078,0.009561717510223389,0.005490362644195557
1772789058320909300,18.036909423828124,-0.027095794677734375,0.00956958532333374,-0.01372593641281128
1772789058341007600,18.057007568359374,-0.03186988830566406,0.005012392997741699,-0.008941680192947388
1772789058361106000,18.07710595703125,-0.00312042236328125,-0.014130115509033203,-0.0042171478271484375
1772789058381204500,18.09720458984375,-0.017502784729003906,0.014565587043762207,-0.004061490297317505
1772789058401302800,18.117302734375,-0.031884193420410156,-0.014199316501617432,-0.018135249614715576
1772789058421401000,18.137401123046875,-0.022294998168945312,-0.009345650672912598,-0.01821976900100708
1772789058441499600,18.157499755859376,-0.012696266174316406,-0.00434345006942749,0.0008247792720794678
1772789058461598000,18.177597900390627,-0.01748371124267578,0.005256533622741699,-0.004636913537979126
1772789058481696300,18.1976962890625,-0.022275924682617188,0.005325973033905029,-0.023560911417007446
1772789058501794800,18.217794921875,-0.018088340759277344,-0.0036116838455200195,-0.018532902002334595
1772789058521893000,18.23789306640625,-0.008530616760253906,0.010609447956085205,-0.013201534748077393
1772789058541991400,18.257991455078123,-0.027108192443847656,0.02011960744857788,0.0014038681983947754
1772789058562090000,18.278090087890625,-0.018108367919921875,-0.0035862326622009277,-0.003364264965057373
1772789058582188300,18.298188232421875,-0.031879425048828125,-0.003547072410583496,0.000830531120300293
1772789058602286600,18.31828662109375,-0.02769756317138672,0.0011194944381713867,-0.018258631229400635
1772789058622385200,18.33838525390625,-0.02289867401123047,0.001255631446838379,-0.02779102325439453
1772789058642483500,18.3584833984375,-0.0037441253662109375,-0.013099074363708496,0.006127536296844482
1772789058662581800,18.378581787109376,-0.00853729248046875,-0.013684451580047607,-0.012336254119873047
1772789058682680600,18.3986806640625,-0.027112960815429688,-0.008986890316009521,-0.0073891282081604
1772789058702779600,18.418779541015624,-0.031902313232421875,0.0005731582641601562,0.002042233943939209
1772789058722878500,18.43887841796875,-0.02711963653564453,0.0005012154579162598,-0.0026168525218963623
1772789058742977500,18.4589775390625,-0.022345542907714844,0.01465696096420288,-0.026477038860321045
1772789058763076400,18.479076416015626,-0.027144432067871094,-0.0092887282371521,-0.0022306442260742188
1772789058783175200,18.499175048828125,-0.03194618225097656,0.005000650882720947,0.002729177474975586
1772789058803274200,18.519274169921875,-0.01758098602294922,0.014528274536132812,-0.01149362325668335
1772789058823373000,18.539373046875,-0.022375106811523438,0.004986763000488281,-0.01127275824546814
1772789058843472000,18.559471923828124,-0.017581939697265625,0.009745538234710693,0.017285168170928955
1772789058863571000,18.579571044921874,-0.03674507141113281,-0.004073441028594971,0.017193734645843506
1772789058883669800,18.599669677734376,-0.031951904296875,-0.004007399082183838,-0.011491894721984863
1772789058903768600,18.6197685546875,-0.022970199584960938,0.0007820725440979004,-0.011431396007537842
1772789058923867600,18.63986767578125,-0.02297210693359375,0.005553603172302246,-0.011434048414230347
1772789058943966500,18.659966552734375,-0.02297210693359375,-0.008847653865814209,-0.011481702327728271
1772789058964065300,18.680065185546876,-0.008609771728515625,-0.01848757266998291,-0.01186785101890564
1772789058984164400,18.700164306640627,-0.018212318420410156,0.009970903396606445,0.007311373949050903
1772789059004263200,18.72026318359375,-0.023008346557617188,0.00993335247039795,0.0026209354400634766
1772789059024362000,18.740362060546875,-0.055947303771972656,-0.004420042037963867,-0.006863415241241455
1772789059044461000,18.7604609375,-0.041591644287109375,-0.004561483860015869,-0.016166985034942627
1772789059064559900,18.780559814453124,-0.01823139190673828,0.0003307461738586426,-0.011317551136016846
1772789059084658700,18.80065869140625,-0.0038366317749023438,-0.004196882247924805,-0.0018177032470703125
1772789059104757800,18.8207578125,-0.013414382934570312,-0.004131138324737549,-0.006600439548492432
1772789059124856600,18.840856689453126,-0.018197059631347656,-0.008801698684692383,-0.006621301174163818
1772789059144955600,18.86095556640625,-0.013428688049316406,-0.004267454147338867,-0.01603296399116516
1772789059165054500,18.881054443359375,-0.0038576126098632812,0.00036084651947021484,0.012709081172943115
1772789059185152000,18.901152099609376,-0.02781391143798828,0.019518017768859863,0.01274484395980835
1772789059205249800,18.921249755859375,-0.018232345581054688,-0.004375159740447998,-0.011046916246414185
1772789059225347300,18.941347412109376,-0.0038423538208007812,-0.01849418878555298,-0.015820950269699097
1772789059245444900,18.96144482421875,-0.0182037353515625,-0.008678615093231201,-0.006082653999328613
1772789059265542400,18.98154248046875,-0.023018836975097656,-0.0089188814163208,-0.020165979862213135
1772789059285640200,19.00164013671875,-0.018204689025878906,-0.008577883243560791,-0.005787402391433716
1772789059305737700,19.02173779296875,-0.013413429260253906,0.0010466575622558594,-0.010476112365722656
1772789059345932800,19.061932861328124,-0.036767005920410156,0.005752861499786377,-0.010735481977462769
1772789059366030300,19.0820302734375,-0.046360015869140625,0.0008571147918701172,-0.001073002815246582
1772789059386128100,19.102128173828124,-0.02778148651123047,-0.01332235336303711,-0.005873262882232666
1772789059406225700,19.1222255859375,-0.027791976928710938,-0.023002445697784424,-0.0009067952632904053
1772789059426323200,19.1423232421875,-0.041558265686035156,0.0011107921600341797,-0.000819474458694458
1772789059466518300,19.182518310546875,0.000324249267578125,0.005489826202392578,-0.010639339685440063
1772789059486616000,19.202615966796873,-0.0373992919921875,-0.01787334680557251,0.0035583674907684326
1772789059506713600,19.222713623046875,-0.013455390930175781,0.005355954170227051,-0.0011827349662780762
1772789059526811100,19.24281103515625,-0.01823902130126953,0.014995932579040527,0.0034911036491394043
1772789059546908700,19.26290869140625,-0.037400245666503906,-0.00844043493270874,0.012774944305419922
1772789059567006200,19.283006103515625,-0.037395477294921875,-0.008471250534057617,0.002967655658721924
1772789059587104000,19.30310400390625,-0.018238067626953125,0.015487968921661377,-0.0016119182109832764
1772789059607201500,19.323201416015625,-0.013437271118164062,-0.013075292110443115,-0.006296902894973755
1772789059627299000,19.343299072265626,-0.027815818786621094,0.015570282936096191,0.003216654062271118
1772789059647396600,19.363396728515625,-0.027823448181152344,0.01547175645828247,0.0032566189765930176
1772789059667494100,19.383494140625,-0.018224716186523438,0.005475938320159912,0.007907301187515259
1772789059687591700,19.403591796875,-0.018218994140625,0.0013742446899414062,-0.01601913571357727
1772789059707689200,19.423689208984374,-0.0038270950317382812,0.0015720129013061523,-0.01618438959121704
1772789059727786800,19.443786865234376,-0.01820659637451172,0.015295743942260742,-0.01609647274017334
1772789059747884000,19.463884033203126,-0.03256797790527344,0.006499290466308594,-0.006454825401306152
1772789059767981600,19.483981689453124,-0.013406753540039062,0.011304020881652832,-0.01111552119255066
1772789059788079000,19.5040791015625,-0.027774810791015625,0.00186997652053833,-0.01571190357208252
1772789059808176600,19.5241767578125,-0.032576560974121094,-0.0030699968338012695,0.0034424662590026855
1772789059828274000,19.54427392578125,-0.03735637664794922,-0.01718735694885254,-0.001091092824935913
1772789059848371500,19.564371337890623,-0.01340484619140625,0.011563539505004883,0.008626341819763184
1772789059868469000,19.584468994140625,-0.009226799011230469,0.01148521900177002,-0.02039310336112976
1772789059888566500,19.60456640625,-0.027797698974609375,0.001896977424621582,-0.005840897560119629
1772789059908663800,19.624663818359377,-0.023008346557617188,0.011389732360839844,0.0035727322101593018
1772789059928761300,19.64476123046875,-0.01881122589111328,-0.0029281973838806152,-0.0012676417827606201
1772789059948859000,19.66485888671875,-0.014018058776855469,-0.002929389476776123,0.0034536421298980713
1772789059968956400,19.684956298828126,-0.03737068176269531,0.001960277557373047,-0.015559971332550049
1772789059989053700,19.7050537109375,-0.018817901611328125,0.011453509330749512,-0.0063467323780059814
1772789060009151200,19.725151123046874,-0.014031410217285156,0.006640315055847168,-0.0062698423862457275
1772789060029248800,19.745248779296876,-0.03736686706542969,0.011604547500610352,0.0030358433723449707
1772789060049346000,19.765345947265626,-0.014008522033691406,-0.0027684569358825684,-0.006688445806503296
1772789060069443600,19.785443603515624,-0.018181800842285156,0.0021691322326660156,0.0037694573402404785
1772789060089541000,19.805541015625,-0.013378143310546875,-0.007298588752746582,-0.00596386194229126
1772789060109638700,19.825638671875,-0.013377189636230469,0.007049262523651123,0.0035067200660705566
1772789060129736000,19.84573583984375,-0.02295970916748047,0.00224149227142334,-0.006073713302612305
1772789060149833500,19.86583349609375,-0.022957801818847656,-0.007270991802215576,-0.0011720359325408936
1772789060169931300,19.88593115234375,-0.018179893493652344,-0.0025876760482788086,-0.001023620367050171
1772789060190030300,19.9060302734375,-0.042145729064941406,0.0021466612815856934,0.00885230302810669
1772789060210129700,19.926129638671874,-0.046935081481933594,-0.002632737159729004,-0.0007718801498413086
1772789060230228700,19.946228759765624,-0.0181884765625,0.0015478134155273438,-0.0008260905742645264
1772789060250327800,19.966327880859374,-0.02298259735107422,-0.007527947425842285,0.003240138292312622
1772789060270427100,19.98642724609375,-0.03254985809326172,0.011858642101287842,-0.0015033483505249023
1772789060290526200,20.006526123046875,-0.018189430236816406,0.0020021796226501465,-0.006542026996612549
1772789060310625500,20.02662548828125,-0.013994216918945312,0.021203219890594482,-0.0017502903938293457
1772789060330724600,20.046724609375,-0.018175125122070312,0.02129310369491577,0.012426167726516724
1772789060350824000,20.066823974609374,-0.03734302520751953,-0.007475554943084717,-0.0018396079540252686
1772789060370923000,20.086923095703124,-0.03255462646484375,-0.002640843391418457,-0.011240959167480469
1772789060391022000,20.10702197265625,-0.0373382568359375,0.01662975549697876,-0.0064375996589660645
1772789060411121400,20.127121337890625,-0.022951126098632812,-0.011925816535949707,-0.006461918354034424
1772789060431220500,20.147220458984375,-0.03254413604736328,0.002385079860687256,-0.0014592409133911133
1772789060451319600,20.167319580078125,-0.022945404052734375,0.002482295036315918,0.012573689222335815
1772789060471419000,20.1874189453125,-0.022932052612304688,-0.0022023916244506836,0.01238057017326355
1772789060491518000,20.20751806640625,-0.02772045135498047,0.002680361270904541,0.0028901994228363037
1772789060511617000,20.227616943359376,-0.03729438781738281,0.012327492237091064,-0.011564075946807861
1772789060531716400,20.24771630859375,-0.027718544006347656,-0.0020971298217773438,0.0022508203983306885
1772789060551815400,20.2678154296875,-0.032505035400390625,0.0027905702590942383,-0.01203012466430664
1772789060571914800,20.287914794921875,-0.042090415954589844,0.0076056718826293945,-0.002249389886856079
1772789060592013800,20.308013916015625,-0.018728256225585938,0.012465059757232666,0.002492249011993408
1772789060612113200,20.328113037109375,-0.009141921997070312,-0.0067536234855651855,-0.012173384428024292
1772789060632212200,20.348212158203125,-0.0043430328369140625,-0.010837376117706299,-0.0026074647903442383
1772789060652311300,20.368311279296876,-0.018720626831054688,0.012405872344970703,0.007471561431884766
1772789060672410600,20.38841064453125,-0.032485008239746094,0.01733928918838501,-0.011730015277862549
1772789060692509700,20.408509765625,-0.02768993377685547,-0.006566822528839111,-0.01172211766242981
1772789060712609000,20.428609130859375,-0.018711090087890625,-0.011401832103729248,-0.0164911150932312
1772789060732708000,20.4487080078125,-0.027710914611816406,0.007613718509674072,-0.00187644362449646
1772789060752807400,20.468807373046875,-0.013940811157226562,0.002795696258544922,-0.006605952978134155
1772789060772906800,20.48890673828125,-0.03728675842285156,-0.0018518567085266113,-0.0017799139022827148
1772789060793005800,20.509005859375,-0.018721580505371094,-0.016149461269378662,0.0031906068325042725
1772789060813105200,20.529105224609374,-0.02772998809814453,0.012228429317474365,-0.006443619728088379
1772789060833204200,20.549204345703124,-0.013949394226074219,-0.00688701868057251,-0.016105234622955322
1772789060853303600,20.569303466796875,-0.033112525939941406,-0.0063964128494262695,-0.0026629269123077393
1772789060873403000,20.58940283203125,-0.04210186004638672,0.007994413375854492,0.0066131651401519775
1772789060893502000,20.609501953125,-0.01874542236328125,-0.011113941669464111,-0.002833157777786255
1772789060913601300,20.629601318359374,-0.013945579528808594,-0.001395583152770996,-0.0076209306716918945
1772789060933700400,20.649700439453124,-0.013932228088378906,-0.006034195423126221,-0.0077149271965026855
1772789060953799700,20.669799560546874,-0.01872539520263672,0.003570854663848877,0.0020106136798858643
1772789060973899000,20.68989892578125,-0.023502349853515625,0.013351261615753174,-0.0027987658977508545
1772789060993998000,20.709998046875,-0.004923820495605469,0.01822894811630249,0.0017258226871490479
1772789061014097400,20.730097412109377,-0.018690109252929688,-0.010406255722045898,-0.01263013482093811
1772789061034196500,20.750196533203123,-0.02827930450439453,0.01348721981048584,0.0012220442295074463
1772789061054295800,20.7702958984375,-0.013899803161621094,-0.001448214054107666,-0.007306098937988281
1772789061074395100,20.79039501953125,-0.023484230041503906,0.0033121705055236816,-0.00730094313621521
1772789061094494200,20.810494140625,-0.023479461669921875,-0.02538198232650757,0.0022628605365753174
1772789061114593500,20.830593505859376,-0.023473739624023438,-0.015621721744537354,-0.011288672685623169
1772789061134692600,20.850692626953126,-0.04202079772949219,0.008502364158630371,0.0028532743453979492
1772789061154792000,20.8707919921875,-0.046784400939941406,0.008882462978363037,-0.006771951913833618
1772789061174890500,20.890890380859375,-0.04199790954589844,-0.005591213703155518,-0.011636912822723389
1772789061194988000,20.910988037109377,-0.018636703491210938,0.013722658157348633,-0.0018518269062042236
1772789061215085300,20.931085205078126,-0.013851165771484375,-0.0006670355796813965,-0.011300891637802124
1772789061235183000,20.95118310546875,-0.03240013122558594,0.004355370998382568,-0.006504058837890625
1772789061255280400,20.9712802734375,-0.028207778930664062,0.00969761610031128,-0.016810178756713867
1772789061275378000,20.9913779296875,-0.023408889770507812,0.014638245105743408,-0.002931267023086548
1772789061295475500,21.011475341796874,-0.013810157775878906,0.0004519224166870117,-0.0030906498432159424
1772789061315573000,21.031572998046876,-0.03297710418701172,-0.00439828634262085,-0.022312164306640625
1772789061335670500,21.05167041015625,-0.023406028747558594,0.00987023115158081,-0.022167503833770752
1772789061355768000,21.07176806640625,-0.013829231262207031,0.014700114727020264,-0.03146934509277344
1772789061375865600,21.091865478515626,-0.032989501953125,0.0004113912582397461,-0.012234598398208618
1772789061395963100,21.111963134765624,-0.02339458465576172,-0.013836145401000977,-0.012364745140075684
1772789061416060700,21.132060791015626,-0.028192520141601562,0.014850318431854248,-0.002679169178009033
1772789061436158200,21.152158203125,-0.032985687255859375,0.00045543909072875977,-0.012246191501617432
1772789061456255700,21.172255859375,-0.01861286163330078,-0.013896048069000244,-0.01694101095199585
1772789061476353300,21.192353271484375,-0.01860523223876953,0.010169267654418945,-0.016949713230133057
1772789061496450800,21.212450927734373,-0.03297901153564453,0.0006113648414611816,-0.01688385009765625
1772789061516548000,21.232548095703127,-0.032975196838378906,0.0006423592567443848,-0.01217910647392273
1772789061536645600,21.252645751953125,-0.018581390380859375,0.00565260648727417,-0.0027723312377929688
1772789061556743200,21.2727431640625,-0.0042209625244140625,-0.00415349006652832,-0.0028864145278930664
1772789061576840700,21.2928408203125,-0.018609046936035156,0.010016381740570068,-0.00760766863822937
1772789061596938200,21.312938232421875,-0.02820587158203125,0.024352550506591797,-0.016791343688964844
1772789061617035800,21.333035888671876,-0.009038925170898438,0.01969730854034424,-0.006980150938034058
1772789061637133300,21.35313330078125,-0.01860523223876953,0.005439698696136475,-0.016802340745925903
1772789061657230800,21.37323095703125,-0.00006008148193359375,0.010022282600402832,-0.0022722184658050537
1772789061677329000,21.393328857421874,-0.01863861083984375,0.0002588629722595215,-0.01656442880630493
1772789061697427500,21.413427490234376,-0.028217315673828125,0.00984203815460205,0.0018675029277801514
1772789061717525800,21.43352587890625,-0.028227806091308594,0.0049686431884765625,-0.00276339054107666
1772789061737624300,21.453624267578125,-0.023447036743164062,0.009712398052215576,-0.0025062859058380127
1772789061757723000,21.473722900390626,-0.02823352813720703,0.024150848388671875,0.0022551119327545166
1772789061777821200,21.4938212890625,-0.03782367706298828,0.004906713962554932,0.0023997128009796143
1772789061797919700,21.513919677734375,-0.0234527587890625,-0.008867859840393066,-0.0119132399559021
1772789061818018000,21.53401806640625,-0.018667221069335938,0.005525410175323486,-0.006841599941253662
1772789061838116600,21.55411669921875,-0.028245925903320312,0.005540370941162109,0.002608656883239746
1772789061858215200,21.574215087890625,-0.037822723388671875,0.009841740131378174,0.008112519979476929
1772789061878313500,21.5943134765625,-0.03302574157714844,0.0003457069396972656,-0.020639628171920776
1772789061898412000,21.614412109375,-0.018659591674804688,-0.004562199115753174,-0.011100858449935913
1772789061918510600,21.634510498046875,-0.00490570068359375,-0.0000026226043701171875,-0.006142169237136841
1772789061938609000,21.65460888671875,-0.033043861389160156,0.0002333521842956543,-0.0011168718338012695
1772789061958707500,21.67470751953125,-0.03304100036621094,0.01927238702774048,-0.011098772287368774
1772789061978805800,21.6948056640625,-0.0186767578125,0.004863619804382324,-0.006096184253692627
1772789061998904300,21.714904296875,-0.0186920166015625,-0.00010633468627929688,-0.015544295310974121
1772789062019003000,21.7350029296875,-0.00012302398681640625,0.009577035903930664,-0.015469074249267578
1772789062039101200,21.75510107421875,-0.00490570068359375,0.014456570148468018,0.00784328579902649
1772789062059199700,21.77519970703125,-0.037858009338378906,0.004734933376312256,0.008603572845458984
1772789062079298000,21.795298095703124,-0.03786182403564453,-0.004950404167175293,0.004292488098144531
1772789062099396600,21.815396728515626,-0.02349567413330078,0.004592955112457275,-0.00036665797233581543
1772789062119495200,21.8354951171875,-0.028291702270507812,-0.000268399715423584,-0.0003777146339416504
1772789062139593500,21.855593505859375,-0.03725910186767578,0.009525537490844727,-0.005181431770324707
1772789062159692000,21.875692138671877,-0.013910293579101562,0.0046430230140686035,-0.00035896897315979004
1772789062179790300,21.895790283203127,-0.013917922973632812,-0.005051076412200928,-0.0003688931465148926
1772789062199888600,21.915888671875,-0.028290748596191406,0.00873333215713501,-0.009931176900863647
1772789062219987000,21.935987060546875,-0.018709182739257812,0.003968298435211182,0.009314149618148804
1772789062240085000,21.9560849609375,-0.028304100036621094,0.013439655303955078,-0.014458388090133667
1772789062260183300,21.976183349609375,-0.03310585021972656,-0.0005195140838623047,-0.010330766439437866
1772789062280281600,21.996281494140625,-0.02832317352294922,0.00906747579574585,-0.00523027777671814
1772789062300380000,22.0163798828125,-0.0049686431884765625,0.013844132423400879,-0.014791727066040039
1772789062320478200,22.036478271484373,-0.023527145385742188,0.013940691947937012,0.004396647214889526
1772789062340576300,22.056576171875,-0.023522377014160156,0.00453418493270874,0.008862316608428955
1772789062360674600,22.076674560546873,-0.00015926361083984375,-0.0001252889633178711,-0.0006788969039916992
1772789062380772900,22.09677294921875,-0.033095359802246094,0.014240384101867676,0.004032105207443237
1772789062400871200,22.11687109375,-0.04748249053955078,0.0044596195220947266,-0.0007297992706298828
1772789062420969500,22.136969482421875,-0.028318405151367188,-0.00031000375747680664,-0.000688701868057251
1772789062441067800,22.15706787109375,-0.023540496826171875,0.004270493984222412,0.004056096076965332
1772789062461165800,22.177165771484376,-0.01874542236328125,-0.005340158939361572,0.0038502514362335205
1772789062481264000,22.19726416015625,-0.023530006408691406,-0.0004336833953857422,-0.0057014524936676025
1772789062501362400,22.217362548828124,-0.03311443328857422,0.009086072444915771,-0.0057656168937683105
1772789062521460700,22.237460693359374,-0.004971504211425781,-0.0054184794425964355,-0.005931943655014038
1772789062541559000,22.25755908203125,-0.018744468688964844,-0.0006170868873596191,-0.010730385780334473
1772789062561657300,22.2776572265625,-0.023543357849121094,0.004013538360595703,-0.006068915128707886
1772789062581755400,22.29775537109375,-0.01874542236328125,0.003964364528656006,-0.006440699100494385
1772789062601853700,22.317853759765626,-0.028313636779785156,-0.005431771278381348,-0.0016763806343078613
1772789062621952000,22.337951904296876,-0.03790760040283203,0.003992736339569092,-0.0016623437404632568
1772789062642050300,22.35805029296875,-0.01877307891845703,0.022837460041046143,-0.0013858675956726074
1772789062662148600,22.378148681640624,-0.03375720977783203,0.008996188640594482,-0.001703023910522461
1772789062682247700,22.39824755859375,-0.019384384155273438,-0.0005782246589660645,-0.002282083034515381
1772789062702347300,22.41834716796875,-0.009800910949707031,0.0042105913162231445,-0.007129102945327759
1772789062722446600,22.438446533203123,-0.01938915252685547,0.008985042572021484,-0.01176154613494873
1772789062742546200,22.458546142578125,-0.028975486755371094,-0.000042378902435302734,-0.016493171453475952
1772789062782744800,22.498744873046874,-0.00980377197265625,0.004864990711212158,0.002684086561203003
1772789062802844400,22.518844482421876,-0.014600753784179688,0.0238645076751709,0.00189131498336792
1772789062822943700,22.53894384765625,-0.009807586669921875,0.014247894287109375,-0.0030828118324279785
1772789062843043000,22.55904296875,-0.028964996337890625,0.01432424783706665,-0.0031029880046844482
1772789062863142700,22.579142578125,-0.04274559020996094,0.018528342247009277,-0.011230945587158203
1772789062883242000,22.599241943359374,-0.024201393127441406,-0.0008838772773742676,-0.0015161335468292236
1772789062903341600,22.619341552734376,-0.028395652770996094,-0.010631859302520752,-0.01623472571372986
1772789062923441000,22.63944091796875,-0.047553062438964844,-0.0009804964065551758,-0.006720125675201416
1772789062943540200,22.659540283203125,-0.019411087036132812,-0.005901813507080078,-0.0020561516284942627
1772789062963639800,22.679639892578123,-0.024213790893554688,-0.0013622045516967773,0.007308632135391235
1772789062983739100,22.6997392578125,-0.019426345825195312,0.013036727905273438,-0.0020341575145721436
1772789063003838700,22.719838623046876,-0.009832382202148438,-0.0012198090553283691,-0.006989836692810059
1772789063023938000,22.73993798828125,-0.000263214111328125,-0.001264810562133789,0.0029163360595703125
1772789063044037400,22.760037353515624,-0.009859085083007812,0.012921333312988281,-0.006625562906265259
1772789063064137000,22.780136962890627,-0.00028324127197265625,-0.001545548439025879,0.0029214024543762207
1772789063084236300,22.800236328125,-0.03322124481201172,0.003195464611053467,-0.0014043450355529785
1772789063104335600,22.820335693359375,-0.0050678253173828125,-0.0014792084693908691,-0.006100386381149292
1772789063124435200,22.840435302734374,-0.01943683624267578,0.01764202117919922,0.008057117462158203
1772789063144534500,22.860534423828124,-0.033219337463378906,0.007945835590362549,-0.0015496909618377686
1772789063164634000,22.880634033203126,-0.018853187561035156,0.007826149463653564,0.012803852558135986
1772789063184732200,22.900732177734376,-0.02842426300048828,-0.0016373991966247559,-0.0017051398754119873
1772789063204830500,22.92083056640625,-0.023644447326660156,0.0077228546142578125,-0.0018367767333984375
1772789063224928500,22.940928466796876,-0.018848419189453125,0.0030394792556762695,0.007855385541915894
1772789063245026800,22.96102685546875,-0.014650344848632812,-0.006516218185424805,-0.0019096136093139648
1772789063265124900,22.981124755859376,-0.014650344848632812,0.0030693411827087402,-0.02168390154838562
1772789063285223000,23.001222900390626,-0.0002727508544921875,0.007847487926483154,-0.002741307020187378
1772789063305321200,23.0213212890625,-0.0050678253173828125,0.003000319004058838,-0.012270539999008179
1772789063325419300,23.041419189453126,-0.005070686340332031,-0.006605088710784912,-0.01703318953514099
1772789063345517600,23.061517578125,-0.014654159545898438,-0.0018520355224609375,-0.0074579715728759766
1772789063365615600,23.08161572265625,-0.00029850006103515625,0.007452189922332764,-0.012349158525466919
1772789063385714000,23.1017138671875,-0.009878158569335938,0.021822631359100342,0.0067642927169799805
1772789063405812000,23.12181201171875,-0.014678955078125,0.01699453592300415,-0.002572983503341675
1772789063425910000,23.141909912109377,-0.01467132568359375,-0.002046823501586914,0.0064237117767333984
1772789063446008300,23.16200830078125,-0.019469261169433594,0.0028467774391174316,0.006940931081771851
1772789063466106400,23.1821064453125,-0.009882926940917969,-0.001825869083404541,0.012477308511734009
1772789063486204700,23.20220458984375,-0.019474029541015625,-0.006693780422210693,-0.0113200843334198
1772789063506302700,23.222302734375,-0.02426910400390625,-0.01154869794845581,-0.0065461695194244385
1772789063526401000,23.242401123046875,-0.009911537170410156,0.012273728847503662,-0.011127442121505737
1772789063546499000,23.2624990234375,-0.014716148376464844,0.012088894844055176,0.0032535195350646973
1772789063566597000,23.28259716796875,-0.028502464294433594,0.007186233997344971,0.003427952527999878
1772789063586695400,23.3026953125,-0.009936332702636719,-0.011989295482635498,0.0033874213695526123
1772789063606793500,23.32279345703125,-0.014734268188476562,0.007060527801513672,-0.015210956335067749
1772789063626891800,23.342891845703125,-0.028512954711914062,-0.007384121417999268,-0.01041942834854126
1772789063646989800,23.36298974609375,-0.01953887939453125,0.0020973682403564453,0.0034213662147521973
1772789063667088000,23.383087890625,-0.019527435302734375,0.007083594799041748,-0.010855138301849365
1772789063687186400,23.4031865234375,-0.01952648162841797,0.011854112148284912,-0.006172478199005127
1772789063707284700,23.42328466796875,-0.029099464416503906,0.0071103572845458984,-0.015992671251296997
1772789063727383000,23.443383056640624,-0.029094696044921875,0.011975765228271484,-0.01116827130317688
1772789063747481300,23.4634814453125,-0.014726638793945312,-0.0024319887161254883,0.01228564977645874
1772789063767579600,23.48357958984375,-0.029099464416503906,0.002362847328186035,-0.006891071796417236
1772789063787678000,23.503677978515626,-0.014733314514160156,-0.002507925033569336,-0.0020481348037719727
1772789063807776300,23.5237763671875,-0.03390216827392578,-0.002590954303741455,-0.002067863941192627
1772789063827874600,23.54387451171875,-0.029105186462402344,0.0022040605545043945,-0.007080554962158203
1772789063847972900,23.563972900390624,-0.038689613342285156,0.006932675838470459,-0.016708016395568848
1772789063868071200,23.5840712890625,-0.014743804931640625,0.006871640682220459,-0.021357983350753784
1772789063888169500,23.60416943359375,-0.024322509765625,-0.0026986002922058105,-0.016618937253952026
1772789063908268000,23.62426806640625,-0.024332046508789062,0.001993119716644287,-0.006941169500350952
1772789063928366300,23.644366455078124,-0.01953887939453125,-0.0027799010276794434,-0.007001817226409912
1772789063948464600,23.664464599609374,-0.03867912292480469,0.0022774338722229004,-0.0071755051612854
1772789063968563000,23.68456298828125,-0.019516944885253906,-0.006731510162353516,-0.007190614938735962
1772789063988661200,23.7046611328125,-0.024316787719726562,0.006980240345001221,-0.016600698232650757
1772789064008759600,23.724759521484376,-0.029114723205566406,0.025976359844207764,-0.011965543031692505
1772789064028857900,23.74485791015625,-0.029111862182617188,0.0026237964630126953,-0.0072911083698272705
1772789064048956200,23.7649560546875,-0.02909564971923828,0.0027864575386047363,0.002102375030517578
1772789064069054700,23.7850546875,-0.0003452301025390625,-0.007364332675933838,-0.01116529107093811
1772789064089152800,23.80515283203125,-0.009939193725585938,-0.002659440040588379,-0.010945111513137817
1772789064109251300,23.825251220703127,-0.014708518981933594,-0.012042582035064697,0.007955461740493774
1772789064129349600,23.845349609375,-0.04284954071044922,-0.007112085819244385,-0.001495063304901123
1772789064149448000,23.865447998046875,-0.033278465270996094,0.011326193809509277,0.0033544301986694336
1772789064169546500,23.88554638671875,-0.018912315368652344,0.020802617073059082,-0.0014192163944244385
1772789064189646000,23.90564599609375,-0.0051403045654296875,-0.012723028659820557,0.008226782083511353
1772789064209746000,23.925745849609374,-0.01889324188232422,0.01149839162826538,-0.001417398452758789
1772789064229845500,23.945845458984376,-0.04764747619628906,0.011455059051513672,-0.010233968496322632
1772789064249945300,23.9659453125,-0.0338592529296875,-0.011223316192626953,0.006258368492126465
1772789064270045000,23.986044921875,-0.015295028686523438,0.003125309944152832,-0.012981504201889038
1772789064290144800,24.006144775390624,-0.010500907897949219,0.0031973719596862793,-0.008685767650604248
1772789064310244400,24.026244384765626,-0.0009088516235351562,-0.0009070634841918945,-0.013658106327056885
1772789064330344200,24.04634423828125,-0.0386199951171875,-0.0007587075233459473,-0.009112924337387085
1772789064350443800,24.06644384765625,-0.043419837951660156,0.01356571912765503,-0.008940726518630981
1772789064370543400,24.08654345703125,-0.015280723571777344,0.013464093208312988,0.004874497652053833
1772789064390643200,24.106643310546875,-0.015271186828613281,0.004008293151855469,-0.009542584419250488
1772789064410742800,24.12674267578125,-0.015264511108398438,-0.0006493926048278809,-0.009444504976272583
1772789064430842600,24.146842529296876,-0.029646873474121094,-0.0055405497550964355,-0.004541456699371338
1772789064450942200,24.166942138671875,-0.01467132568359375,-0.0013574957847595215,0.0066603124141693115
1772789064471042000,24.1870419921875,-0.033835411071777344,-0.0013120174407958984,0.011621952056884766
1772789064491141600,24.2071416015625,-0.029030799865722656,-0.0107194185256958,-0.0028565526008605957
1772789064511241500,24.227241455078126,-0.03380584716796875,-0.010551393032073975,-0.012587636709213257
1772789064531341000,24.247341064453124,-0.04758262634277344,0.003800034523010254,-0.012566030025482178
1772789064551440600,24.267440673828126,-0.042778968811035156,0.012890636920928955,0.001627594232559204
1772789064571540500,24.28754052734375,-0.033791542053222656,0.00816798210144043,-0.017499655485153198
1772789064591640000,24.30764013671875,-0.014614105224609375,-0.019832372665405273,-0.003278881311416626
1772789064611740000,24.327739990234374,-0.02417469024658203,-0.01535189151763916,0.006269365549087524
1772789064631839500,24.347839599609376,-0.0146026611328125,-0.0011005997657775879,0.0015075504779815674
1772789064651939300,24.367939208984374,-0.024194717407226562,0.00898885726928711,-0.008500993251800537
1772789064672038400,24.388038330078125,-0.028966903686523438,0.014092206954956055,0.010724365711212158
1772789064692136200,24.40813623046875,-0.015189170837402344,-0.0002472996711730957,0.005897581577301025
1772789064712234200,24.428234130859376,-0.03374671936035156,-0.009761273860931396,-0.00856509804725647
1772789064732332000,24.44833203125,-0.02897167205810547,0.00919950008392334,-0.00851583480834961
1772789064752430000,24.46843017578125,-0.02897357940673828,0.004380404949188232,-0.008508026599884033
1772789064772527900,24.48852783203125,-0.028955459594726562,0.009499788284301758,-0.008332908153533936
1772789064792626000,24.5086259765625,-0.015193939208984375,0.014078319072723389,0.0011852383613586426
1772789064812723700,24.5287236328125,-0.015189170837402344,0.009348869323730469,-0.008436858654022217
1772789064832821800,24.54882177734375,0.003971099853515625,0.004475235939025879,-0.02768227458000183
1772789064852919600,24.56891943359375,-0.005620002746582031,-0.000382840633392334,-0.026906192302703857
1772789064873017600,24.589017578125,-0.014609336853027344,0.01866888999938965,-0.003033846616744995
1772789064893115400,24.609115478515626,-0.02418804168701172,-0.00040137767791748047,-0.0028736889362335205
1772789064913213400,24.62921337890625,-0.028967857360839844,-0.0002608299255371094,-0.00293770432472229
1772789064933311500,24.6493115234375,-0.04333019256591797,-0.00006252527236938477,0.00676804780960083
1772789064953409300,24.6694091796875,-0.014588356018066406,0.004748880863189697,0.002165079116821289
1772789064973507300,24.68950732421875,-0.019385337829589844,0.0094984769821167,-0.0024702847003936768
1772789064993605000,24.709605224609376,-0.028939247131347656,-0.009444952011108398,0.006605207920074463
1772789065013703000,24.729702880859374,-0.028921127319335938,-0.004494190216064453,-0.0032310783863067627
1772789065033801000,24.749801025390624,-0.014529228210449219,-0.0042882561683654785,0.0013908445835113525
1772789065053899000,24.76989892578125,-0.038471221923828125,-0.0041838884353637695,-0.004807174205780029
1772789065073996800,24.789996826171876,-0.02409648895263672,-0.008957445621490479,-0.00006258487701416016
1772789065094094800,24.8100947265625,-0.028876304626464844,-0.013077318668365479,0.004486262798309326
1772789065114192600,24.830192626953124,-0.024671554565429688,0.0014899969100952148,-0.009808003902435303
1772789065134290700,24.850290771484374,-0.028850555419921875,-0.007925033569335938,-0.014671146869659424
1772789065154388500,24.870388427734376,-0.01987743377685547,-0.008073925971984863,-0.014690220355987549
1772789065174486300,24.890486328125,-0.01988983154296875,-0.008275866508483887,-0.009935468435287476
1772789065194584300,24.910584228515624,-0.01989459991455078,0.0012357234954833984,-0.0003609955310821533
1772789065214682000,24.93068212890625,-0.010300636291503906,0.0013202428817749023,-0.010183513164520264
1772789065234780000,24.95077978515625,-0.024677276611328125,0.006076037883758545,-0.014899402856826782
1772789065254878000,24.9708779296875,-0.033669471740722656,0.01012277603149414,0.00001043081283569336
1772789065274975700,24.990975830078124,-0.02407360076904297,0.0007358193397521973,0.014389753341674805
1772789065295073500,25.011073486328126,-0.024074554443359375,0.01494663953781128,0.004416167736053467
1772789065315171300,25.03117138671875,-0.024069786071777344,-0.008945763111114502,-0.005163460969924927
1772789065335269000,25.05126904296875,-0.019270896911621094,0.0006691813468933105,0.004233628511428833
1772789065355367200,25.0713671875,-0.024074554443359375,0.010154902935028076,-0.014743834733963013
1772789065375465000,25.09146484375,-0.03365898132324219,0.0006088614463806152,-0.004955172538757324
1772789065395562800,25.111562744140624,-0.005501747131347656,-0.013632476329803467,0.004568725824356079
1772789065415660500,25.13166064453125,0.0040645599365234375,0.0054457783699035645,0.00008878111839294434
1772789065435758600,25.151758544921876,-0.014496803283691406,-0.008870899677276611,-0.019043534994125366
1772789065455856400,25.1718564453125,-0.015089035034179688,-0.008752644062042236,-0.009431988000869751
1772789065475954200,25.1919541015625,-0.010300636291503906,0.005538821220397949,-0.014287590980529785
