time,seconds_elapsed,z,y,x
1772789040453532700,0.16953271484375,10.005913734436035,-0.6785193085670471,0.9306434392929077
1772789040473630200,0.189630126953125,9.935247421264648,-0.6689373850822449,0.9545981884002686
1772789040493727700,0.209727783203125,10.039450645446777,-0.673728346824646,0.9354343414306641
1772789040513825300,0.2298251953125,9.954411506652832,-0.6881012320518494,0.9545981884002686
1772789040533922800,0.2499228515625,10.005913734436035,-0.6647452712059021,0.9450162649154663
1772789040554020400,0.270020263671875,9.987348556518555,-0.6551634073257446,0.9498072266578674
1772789040574118000,0.290117919921875,9.963394165039062,-0.6785193085670471,0.9498072266578674
1772789040594215400,0.31021533203125,10.005913734436035,-0.6833102703094482,0.9545981884002686
1772789040614313000,0.33031298828125,9.987348556518555,-0.6785193085670471,0.9402253031730652
1772789040634410500,0.350410400390625,9.99213981628418,-0.6785193085670471,0.9450162649154663
1772789040654508000,0.370508056640625,10.001721382141113,-0.673728346824646,0.9258524775505066
1772789040674606300,0.3906064453125,9.977766990661621,-0.6641464233398438,0.9300445318222046
1772789040694705400,0.410705322265625,9.972975730895996,-0.6785193085670471,0.9396264553070068
1772789040714804700,0.4308046875,9.996931076049805,-0.673728346824646,0.9348354935646057
1772789040734903800,0.45090380859375,9.987348556518555,-0.6833102703094482,0.9635812640190125
1772789040755003000,0.4710029296875,9.963394165039062,-0.673728346824646,0.9492083787918091
1772789040775102200,0.491102294921875,9.977766990661621,-0.6593554615974426,0.9348354935646057
1772789040795201300,0.511201171875,9.99213981628418,-0.6928921937942505,0.9492083787918091
1772789040815300600,0.531300537109375,9.996332168579102,-0.6928921937942505,0.9587903022766113
1772789040835399700,0.551399658203125,9.996332168579102,-0.6833102703094482,0.9396264553070068
1772789040855499000,0.5714990234375,9.987348556518555,-0.673728346824646,0.944417417049408
1772789040875598000,0.59159814453125,10.00112247467041,-0.6689373850822449,0.9300445318222046
1772789040895697400,0.611697509765625,9.982558250427246,-0.6449825763702393,0.9539993405342102
1772789040915796500,0.63179638671875,9.982558250427246,-0.6689373850822449,0.9492083787918091
1772789040935895800,0.651895751953125,9.987348556518555,-0.6881012320518494,0.9492083787918091
1772789040955995000,0.671994873046875,10.00112247467041,-0.6833102703094482,0.9492083787918091
1772789040976094000,0.692093994140625,10.005913734436035,-0.6689373850822449,0.9396264553070068
1772789040996193300,0.712193359375,9.991540908813477,-0.6689373850822449,0.944417417049408
1772789041016292400,0.732292236328125,9.982558250427246,-0.6881012320518494,0.9348354935646057
1772789041036391700,0.7523916015625,9.977766990661621,-0.6833102703094482,0.9348354935646057
1772789041056490800,0.77249072265625,9.996332168579102,-0.6689373850822449,0.944417417049408
1772789041076590000,0.792590087890625,10.005913734436035,-0.6833102703094482,0.9348354935646057
1772789041096689200,0.812689208984375,10.015496253967285,-0.673728346824646,0.9492083787918091
1772789041116788500,0.83278857421875,9.987348556518555,-0.673728346824646,0.9587903022766113
1772789041136887600,0.852887451171875,9.982558250427246,-0.6641464233398438,0.9348354935646057
1772789041156986600,0.872986572265625,9.991540908813477,-0.673728346824646,0.9396264553070068
1772789041177085000,0.8930849609375,9.982558250427246,-0.6593554615974426,0.944417417049408
1772789041197182700,0.9131826171875,9.972975730895996,-0.673728346824646,0.9539993405342102
1772789041217280300,0.9332802734375,9.996332168579102,-0.6689373850822449,0.9396264553070068
1772789041237377800,0.953377685546875,9.991540908813477,-0.673728346824646,0.9348354935646057
1772789041257475600,0.9734755859375,9.991540908813477,-0.673728346824646,0.944417417049408
1772789041277573000,0.993572998046875,9.982558250427246,-0.6689373850822449,0.9486095309257507
1772789041297671000,1.0136708984375,9.982558250427246,-0.6785193085670471,0.9581913948059082
1772789041317768400,1.0337685546875,9.982558250427246,-0.6833102703094482,0.9438185691833496
1772789041337866000,1.053865966796875,10.00112247467041,-0.6833102703094482,0.9294456839561462
1772789041378061300,1.094061279296875,9.991540908813477,-0.6833102703094482,0.9342366456985474
1772789041398158800,1.114158935546875,9.963394165039062,-0.6641464233398438,0.9342366456985474
1772789041418256600,1.134256591796875,9.986749649047852,-0.6545644998550415,0.9438185691833496
1772789041438354200,1.154354248046875,10.01070499420166,-0.673728346824646,0.9342366456985474
1772789041458452000,1.174451904296875,9.996332168579102,-0.6689373850822449,0.9390276074409485
1772789041478549500,1.194549560546875,9.982558250427246,-0.6833102703094482,0.9348354935646057
1772789041498647000,1.21464697265625,10.00112247467041,-0.6641464233398438,0.9300445318222046
1772789041518744800,1.234744873046875,10.020286560058594,-0.6833102703094482,0.9539993405342102
1772789041538842400,1.25484228515625,10.005913734436035,-0.673728346824646,0.944417417049408
1772789041558940000,1.27493994140625,9.968185424804688,-0.6593554615974426,0.9348354935646057
1772789041579037700,1.29503759765625,9.987348556518555,-0.673728346824646,0.9348354935646057
1772789041599135200,1.31513525390625,9.987348556518555,-0.6881012320518494,0.9354343414306641
1772789041619232800,1.335232666015625,9.987348556518555,-0.673728346824646,0.9545981884002686
1772789041639330600,1.35533056640625,9.977766990661621,-0.6641464233398438,0.9498072266578674
1772789041659428000,1.375427978515625,9.987348556518555,-0.6881012320518494,0.9354343414306641
1772789041679525600,1.395525634765625,9.991540908813477,-0.6881012320518494,0.9629823565483093
1772789041699623000,1.415622802734375,9.977766990661621,-0.673728346824646,0.9438185691833496
1772789041719720200,1.43572021484375,9.991540908813477,-0.6731294989585876,0.9438185691833496
1772789041739817500,1.4558173828125,9.996332168579102,-0.6875023245811462,0.9294456839561462
1772789041759914800,1.475914794921875,9.981959342956543,-0.6827113628387451,0.9390276074409485
1772789041780012300,1.49601220703125,9.981959342956543,-0.6587566137313843,0.9486095309257507
1772789041800109600,1.516109619140625,9.986749649047852,-0.6635475754737854,0.9528015851974487
1772789041820206800,1.536206787109375,9.977168083190918,-0.6827113628387451,0.9575925469398499
1772789041840304000,1.55630419921875,9.972376823425293,-0.6683385372161865,0.9480106234550476
1772789041860401400,1.5764013671875,9.981959342956543,-0.6635475754737854,0.9384286999702454
1772789041880498700,1.596498779296875,9.977766990661621,-0.6635475754737854,0.9438185691833496
1772789041900596000,1.616595947265625,9.996332168579102,-0.677920401096344,0.9390276074409485
1772789041920693200,1.636693359375,9.991540908813477,-0.6875023245811462,0.9438185691833496
1772789041940790500,1.65679052734375,9.986749649047852,-0.677920401096344,0.9486095309257507
1772789041960888000,1.67688818359375,9.996332168579102,-0.6635475754737854,0.9390276074409485
1772789041980985300,1.6969853515625,9.991540908813477,-0.6875023245811462,0.9342366456985474
1772789042001082600,1.71708251953125,9.986749649047852,-0.6731294989585876,0.9486095309257507
1772789042021180000,1.737179931640625,9.972975730895996,-0.6635475754737854,0.9438185691833496
1772789042041277200,1.757277099609375,9.977168083190918,-0.6635475754737854,0.9528015851974487
1772789042061374500,1.77737451171875,9.972975730895996,-0.6683385372161865,0.9480106234550476
1772789042081471700,1.7974716796875,9.963394165039062,-0.677920401096344,0.9438185691833496
1772789042101569300,1.8175693359375,9.986749649047852,-0.6827113628387451,0.9480106234550476
1772789042121666600,1.83766650390625,9.981959342956543,-0.677920401096344,0.9480106234550476
1772789042141763800,1.857763916015625,9.981959342956543,-0.6827113628387451,0.9384286999702454
1772789042161861000,1.877861083984375,10.015496253967285,-0.6683385372161865,0.9432196617126465
1772789042181959000,1.897958984375,9.986749649047852,-0.677920401096344,0.9288467764854431
1772789042202056700,1.918056640625,9.981959342956543,-0.6875023245811462,0.9528015851974487
1772789042222154500,1.938154541015625,9.977168083190918,-0.677920401096344,0.9528015851974487
1772789042242252500,1.95825244140625,9.991540908813477,-0.677920401096344,0.9384286999702454
1772789042262350300,1.978350341796875,9.981959342956543,-0.6827113628387451,0.9336377382278442
1772789042282448100,1.9984482421875,9.972376823425293,-0.6827113628387451,0.9480106234550476
1772789042302546000,2.0185458984375,9.986749649047852,-0.6683385372161865,0.9432196617126465
1772789042322644000,2.03864404296875,10.00112247467041,-0.677920401096344,0.9384286999702454
1772789042342741800,2.05874169921875,10.005913734436035,-0.6683385372161865,0.9192649126052856
1772789042362839600,2.078839599609375,9.977168083190918,-0.6731294989585876,0.9336377382278442
1772789042382937300,2.098937255859375,9.981959342956543,-0.6827113628387451,0.9384286999702454
1772789042403035400,2.119035400390625,9.977168083190918,-0.6875023245811462,0.9432196617126465
1772789042423133200,2.13913330078125,9.986749649047852,-0.6731294989585876,0.9384286999702454
1772789042443231000,2.15923095703125,9.977168083190918,-0.6731294989585876,0.9432196617126465
1772789042463328800,2.179328857421875,9.991540908813477,-0.673728346824646,0.9486095309257507
1772789042503524600,2.219524658203125,9.972975730895996,-0.6833102703094482,0.9534004330635071
1772789042523622400,2.239622314453125,9.986749649047852,-0.6641464233398438,0.9486095309257507
1772789042543720200,2.25972021484375,9.968185424804688,-0.6689373850822449,0.9534004330635071
1772789042563818000,2.27981787109375,9.986749649047852,-0.6833102703094482,0.9534004330635071
1772789042583916000,2.299916015625,10.01070499420166,-0.6689373850822449,0.9438185691833496
1772789042604013800,2.320013916015625,9.996332168579102,-0.6497735381126404,0.9438185691833496
1772789042624111600,2.340111572265625,9.996332168579102,-0.6641464233398438,0.9581913948059082
1772789042644209400,2.36020947265625,9.982558250427246,-0.6785193085670471,0.9539993405342102
1772789042664307500,2.380307373046875,9.977168083190918,-0.677920401096344,0.9480106234550476
1772789042684405500,2.400405517578125,9.991540908813477,-0.6635475754737854,0.962383508682251
1772789042704503600,2.420503662109375,10.005913734436035,-0.6731294989585876,0.9528015851974487
1772789042724601900,2.440601806640625,9.967586517333984,-0.677920401096344,0.9480106234550476
1772789042744700000,2.460699951171875,9.977168083190918,-0.6683385372161865,0.9575925469398499
1772789042764798200,2.480798095703125,9.981959342956543,-0.6587566137313843,0.9528015851974487
1772789042784896300,2.500896240234375,9.967586517333984,-0.6587566137313843,0.9528015851974487
1772789042804994300,2.520994384765625,9.981959342956543,-0.677920401096344,0.9432196617126465
1772789042825092600,2.541092529296875,9.991540908813477,-0.677920401096344,0.9432196617126465
1772789042845190700,2.561190673828125,9.986749649047852,-0.6683385372161865,0.9528015851974487
1772789042865289000,2.5812890625,9.981959342956543,-0.6731294989585876,0.9426208138465881
1772789042885387000,2.601386962890625,9.986749649047852,-0.6731294989585876,0.9426208138465881
1772789042905485000,2.621485107421875,9.991540908813477,-0.6731294989585876,0.9474117755889893
1772789042925583400,2.641583251953125,9.977168083190918,-0.6821125149726868,0.9426208138465881
1772789042945681400,2.661681396484375,9.972376823425293,-0.6629486680030823,0.9282479286193848
1772789042965779700,2.68177978515625,9.977168083190918,-0.6629486680030823,0.937829852104187
1772789042985877800,2.701877685546875,9.995733261108398,-0.6629486680030823,0.9426208138465881
1772789043005975800,2.721975830078125,9.995733261108398,-0.6677396297454834,0.9468128681182861
1772789043026074000,2.74207421875,10.000524520874023,-0.6773215532302856,0.9468128681182861
1772789043046172200,2.762172119140625,9.990942001342773,-0.6773215532302856,0.9516038298606873
1772789043066271000,2.78227099609375,9.996332168579102,-0.6635475754737854,0.9522027373313904
1772789043086370000,2.8023701171875,9.986749649047852,-0.677920401096344,0.9474117755889893
1772789043106468900,2.82246875,9.981959342956543,-0.6827113628387451,0.937829852104187
1772789043126568000,2.84256787109375,9.981959342956543,-0.6827113628387451,0.937829852104187
1772789043146666800,2.862666748046875,10.010106086730957,-0.6827113628387451,0.9426208138465881
1772789043186864600,2.90286474609375,9.977168083190918,-0.6731294989585876,0.9522027373313904
1772789043206963700,2.922963623046875,9.991540908813477,-0.6731294989585876,0.9384286999702454
1772789043227062500,2.9430625,9.991540908813477,-0.6827113628387451,0.9569936990737915
1772789043247161600,2.96316162109375,9.986749649047852,-0.6827113628387451,0.9432196617126465
1772789043267260400,2.983260498046875,10.000524520874023,-0.6731294989585876,0.9522027373313904
1772789043307458300,3.023458251953125,9.972376823425293,-0.6683385372161865,0.9522027373313904
1772789043327557000,3.04355712890625,9.981959342956543,-0.6683385372161865,0.9569936990737915
1772789043347656200,3.06365625,9.996332168579102,-0.6731294989585876,0.9474117755889893
1772789043367755000,3.083755126953125,9.991540908813477,-0.6827113628387451,0.9474117755889893
1772789043387854000,3.10385400390625,9.977168083190918,-0.6635475754737854,0.9426208138465881
1772789043407953000,3.123952880859375,9.977168083190918,-0.6683385372161865,0.9617846608161926
1772789043428052000,3.144052001953125,10.005314826965332,-0.6683385372161865,0.9617846608161926
1772789043448150800,3.16415087890625,9.986749649047852,-0.6875023245811462,0.9522027373313904
1772789043468249900,3.184249755859375,9.977168083190918,-0.6821125149726868,0.9516038298606873
1772789043488348700,3.2043486328125,9.977168083190918,-0.6821125149726868,0.9468128681182861
1772789043508447700,3.22444775390625,9.995733261108398,-0.6869034767150879,0.9611857533454895
1772789043528546600,3.244546630859375,9.98136043548584,-0.6725305914878845,0.9468128681182861
1772789043548645600,3.264645751953125,9.967586517333984,-0.6485758423805237,0.95579594373703
1772789043568744400,3.284744384765625,10.000524520874023,-0.6677396297454834,0.95579594373703
1772789043588843500,3.304843505859375,9.98136043548584,-0.6725305914878845,0.9462140202522278
1772789043608942300,3.3249423828125,9.976569175720215,-0.6821125149726868,0.9462140202522278
1772789043629041200,3.345041259765625,10.000524520874023,-0.6677396297454834,0.9414230585098267
1772789043649140200,3.36514013671875,9.98136043548584,-0.6719317436218262,0.95579594373703
1772789043669239000,3.385239013671875,9.977168083190918,-0.6731294989585876,0.937829852104187
1772789043689337600,3.405337646484375,9.967586517333984,-0.6875023245811462,0.9474117755889893
1772789043709436000,3.425435791015625,9.986749649047852,-0.677920401096344,0.9522027373313904
1772789043729534200,3.4455341796875,9.981959342956543,-0.6731294989585876,0.9426208138465881
1772789043749632800,3.4656328125,9.967586517333984,-0.6683385372161865,0.9336377382278442
1772789043769731000,3.48573095703125,9.972376823425293,-0.6587566137313843,0.9288467764854431
1772789043789829600,3.50582958984375,9.986749649047852,-0.6683385372161865,0.9384286999702454
1772789043830026500,3.546026611328125,10.00112247467041,-0.6683385372161865,0.962383508682251
1772789043850124800,3.566124755859375,9.981959342956543,-0.6725305914878845,0.9426208138465881
1772789043870223400,3.586223388671875,9.991540908813477,-0.6677396297454834,0.9474117755889893
1772789043890321700,3.60632177734375,9.977168083190918,-0.6725305914878845,0.9426208138465881
1772789043910420000,3.626419921875,9.981959342956543,-0.6629486680030823,0.9516038298606873
1772789043930518500,3.6465185546875,10.000524520874023,-0.6677396297454834,0.9372310042381287
1772789043950616800,3.666616943359375,9.995733261108398,-0.6725305914878845,0.9420219659805298
1772789043970715400,3.68671533203125,9.972376823425293,-0.6869034767150879,0.9420219659805298
1772789043990813700,3.706813720703125,9.990942001342773,-0.6869034767150879,0.9420219659805298
1772789044031010600,3.747010498046875,10.010106086730957,-0.6821125149726868,0.9420219659805298
1772789044051109000,3.767109130859375,9.972376823425293,-0.6485758423805237,0.9372310042381287
1772789044071207400,3.78720751953125,10.01968765258789,-0.6629486680030823,0.9324400424957275
1772789044091306000,3.807305908203125,10.000524520874023,-0.6677396297454834,0.9420219659805298
1772789044111404300,3.827404296875,9.981959342956543,-0.6725305914878845,0.9516038298606873
1772789044131502800,3.8475029296875,9.990942001342773,-0.6773215532302856,0.9372310042381287
1772789044151601200,3.86760107421875,9.967586517333984,-0.6821125149726868,0.9420219659805298
1772789044171699500,3.887699462890625,9.977168083190918,-0.6773215532302856,0.9420219659805298
1772789044191797200,3.90779736328125,9.990942001342773,-0.6821125149726868,0.9420219659805298
1772789044231993000,3.9479931640625,9.967586517333984,-0.6581577062606812,0.9516038298606873
1772789044252091000,3.9680908203125,9.990942001342773,-0.6773215532302856,0.9563947916030884
1772789044272188700,3.988188720703125,10.000524520874023,-0.6821125149726868,0.9372310042381287
1772789044292286700,4.00828662109375,9.990942001342773,-0.6725305914878845,0.9468128681182861
1772789044312384500,4.028384521484375,9.986749649047852,-0.6677396297454834,0.9468128681182861
1772789044332482300,4.048482421875,9.967586517333984,-0.6725305914878845,0.9420219659805298
1772789044352580400,4.068580322265625,9.981959342956543,-0.6725305914878845,0.9324400424957275
1772789044372678100,4.08867822265625,9.967586517333984,-0.6773215532302856,0.9468128681182861
1772789044392776000,4.10877587890625,10.010106086730957,-0.6869034767150879,0.9468128681182861
1772789044412874000,4.1288740234375,9.977168083190918,-0.6821125149726868,0.9420219659805298
1772789044432971800,4.1489716796875,9.986749649047852,-0.6677396297454834,0.9420219659805298
1772789044453069600,4.169069580078125,9.98136043548584,-0.6581577062606812,0.9563947916030884
1772789044473167600,4.189167724609375,9.977168083190918,-0.6725305914878845,0.9276490807533264
1772789044493265400,4.209265380859375,9.976569175720215,-0.6725305914878845,0.9372310042381287
1772789044533461000,4.2494609375,9.990942001342773,-0.6629486680030823,0.9414230585098267
1772789044553559000,4.26955908203125,9.990942001342773,-0.6677396297454834,0.9366320967674255
1772789044573656800,4.28965673828125,10.010106086730957,-0.6821125149726868,0.9366320967674255
1772789044593755000,4.3097548828125,9.972376823425293,-0.6725305914878845,0.95579594373703
1772789044613852700,4.329852783203125,9.990942001342773,-0.691694438457489,0.9462140202522278
1772789044633950500,4.349950439453125,9.98136043548584,-0.6677396297454834,0.9414230585098267
1772789044654048300,4.37004833984375,9.98136043548584,-0.6773215532302856,0.9468128681182861
1772789044674146800,4.390146728515625,10.000524520874023,-0.6773215532302856,0.9468128681182861
1772789044694246000,4.410245849609375,10.005314826965332,-0.6821125149726868,0.9420219659805298
1772789044714345200,4.43034521484375,10.000524520874023,-0.6725305914878845,0.9605869054794312
1772789044734444300,4.4504443359375,9.986150741577148,-0.6629486680030823,0.9420219659805298
1772789044754543600,4.470543701171875,9.98136043548584,-0.6725305914878845,0.9372310042381287
1772789044774642700,4.490642578125,9.976569175720215,-0.6821125149726868,0.95579594373703
1772789044794742000,4.510741943359375,10.005314826965332,-0.6773215532302856,0.9468128681182861
1772789044814841000,4.530841064453125,9.976569175720215,-0.6773215532302856,0.9372310042381287
1772789044834940200,4.550940185546875,9.972376823425293,-0.6629486680030823,0.9462140202522278
1772789044855039500,4.57103955078125,9.990942001342773,-0.6719317436218262,0.95579594373703
1772789044875138600,4.591138671875,9.990942001342773,-0.667140781879425,0.9408242106437683
1772789044895238000,4.61123779296875,9.990942001342773,-0.6767227053642273,0.9408242106437683
1772789044915337000,4.6313369140625,9.98136043548584,-0.6767227053642273,0.9551970958709717
1772789044935436300,4.651436279296875,9.986150741577148,-0.667140781879425,0.9408242106437683
1772789044955535400,4.671535400390625,10.004715919494629,-0.6623498201370239,0.9456151723861694
1772789044975634700,4.691634765625,9.995733261108398,-0.6719317436218262,0.9504061341285706
1772789044995733800,4.711733642578125,9.990942001342773,-0.6767227053642273,0.9504061341285706
1772789045015833000,4.7318330078125,9.986150741577148,-0.6815136671066284,0.9647789597511292
1772789045035932200,4.75193212890625,9.990942001342773,-0.6815136671066284,0.9504061341285706
1772789045056031200,4.77203125,10.028671264648438,-0.695886492729187,0.9456151723861694
1772789045076130600,4.792130615234375,10.000524520874023,-0.667140781879425,0.9504061341285706
1772789045096229600,4.812229736328125,9.990942001342773,-0.667140781879425,0.9504061341285706
1772789045116329000,4.832328857421875,9.97177791595459,-0.6719317436218262,0.9360332489013672
1772789045136428000,4.852427978515625,9.976569175720215,-0.6623498201370239,0.9551970958709717
1772789045156527400,4.87252734375,9.98136043548584,-0.667140781879425,0.9504061341285706
1772789045176625400,4.89262548828125,9.98136043548584,-0.6815136671066284,0.9456151723861694
1772789045196722700,4.91272265625,9.966987609863281,-0.6719317436218262,0.9408242106437683
1772789045216819700,4.93281982421875,9.986150741577148,-0.667140781879425,0.9360332489013672
1772789045236917000,4.9529169921875,9.976569175720215,-0.667140781879425,0.9360332489013672
1772789045257014300,4.97301416015625,9.976569175720215,-0.6815136671066284,0.9456151723861694
1772789045297208800,5.013208740234375,9.986150741577148,-0.6767227053642273,0.9414230585098267
1772789045317305900,5.033305908203125,9.995733261108398,-0.6863046288490295,0.9414230585098267
1772789045357500400,5.07350048828125,9.97177791595459,-0.667140781879425,0.9510049819946289
1772789045377597700,5.09359765625,9.966987609863281,-0.667140781879425,0.959987998008728
1772789045397695000,5.113695068359375,9.976569175720215,-0.6575588583946228,0.9510049819946289
1772789045417792300,5.133792236328125,9.995733261108398,-0.6767227053642273,0.9510049819946289
1772789045437889300,5.15388916015625,9.986150741577148,-0.6863046288490295,0.9605869054794312
1772789045457986600,5.173986572265625,9.99992561340332,-0.6719317436218262,0.9456151723861694
1772789045478083800,5.194083740234375,9.99992561340332,-0.6863046288490295,0.9408242106437683
1772789045498181000,5.21418115234375,10.004715919494629,-0.6863046288490295,0.9551970958709717
1772789045518278400,5.2342783203125,9.976569175720215,-0.6575588583946228,0.9551970958709717
1772789045538375700,5.254375732421875,9.98136043548584,-0.6815136671066284,0.9456151723861694
1772789045558473000,5.274472900390625,9.97177791595459,-0.6719317436218262,0.9456151723861694
1772789045578570000,5.294570068359375,9.995733261108398,-0.6623498201370239,0.9264513254165649
1772789045598667300,5.314667236328125,9.98136043548584,-0.6767227053642273,0.9551970958709717
1772789045618764500,5.3347646484375,9.990942001342773,-0.6575588583946228,0.9551970958709717
1772789045638861800,5.35486181640625,10.004715919494629,-0.6527678966522217,0.9264513254165649
1772789045658959000,5.374958984375,9.976569175720215,-0.6863046288490295,0.9456151723861694
1772789045679057000,5.395056884765625,9.986150741577148,-0.6815136671066284,0.9312422871589661
1772789045699155200,5.4151552734375,9.986150741577148,-0.6767227053642273,0.9551970958709717
1772789045719253200,5.435253173828125,10.004715919494629,-0.6815136671066284,0.9408242106437683
1772789045739351600,5.4553515625,9.995733261108398,-0.6719317436218262,0.9408242106437683
1772789045759449600,5.47544970703125,9.976569175720215,-0.6767227053642273,0.9360332489013672
1772789045779548000,5.4955478515625,9.98136043548584,-0.6719317436218262,0.9408242106437683
1772789045799646000,5.51564599609375,9.97177791595459,-0.6719317436218262,0.9551970958709717
1772789045819744300,5.535744140625,9.966987609863281,-0.6719317436218262,0.9360332489013672
1772789045839842600,5.555842529296875,10.000524520874023,-0.6910955309867859,0.9504061341285706
1772789045859940600,5.575940673828125,10.004715919494629,-0.6767227053642273,0.9456151723861694
1772789045880039000,5.596038818359375,9.990942001342773,-0.667140781879425,0.9504061341285706
1772789045900137000,5.616136962890625,9.986150741577148,-0.6719317436218262,0.9456151723861694
1772789045920235300,5.6362353515625,9.995134353637695,-0.6719317436218262,0.9504061341285706
1772789045940333600,5.65633349609375,9.97177791595459,-0.6575588583946228,0.9504061341285706
1772789045960431600,5.676431640625,9.976569175720215,-0.6719317436218262,0.9312422871589661
1772789045980530000,5.696530029296875,9.990942001342773,-0.667140781879425,0.9408242106437683
1772789046000628000,5.7166279296875,9.98136043548584,-0.667140781879425,0.9504061341285706
1772789046020726300,5.736726318359375,9.995134353637695,-0.667140781879425,0.9456151723861694
1772789046040824300,5.75682421875,9.990942001342773,-0.6767227053642273,0.9402253031730652
1772789046081021000,5.79702099609375,9.995134353637695,-0.6623498201370239,0.9402253031730652
1772789046101119000,5.817118896484375,9.99034309387207,-0.6815136671066284,0.9593891501426697
1772789046121217300,5.83721728515625,9.985551834106445,-0.6809147596359253,0.9354343414306641
1772789046141315300,5.8573154296875,9.966987609863281,-0.6527678966522217,0.9354343414306641
1772789046161413600,5.87741357421875,9.98136043548584,-0.6575588583946228,0.9641801118850708
1772789046181512400,5.897512451171875,9.995134353637695,-0.6479769349098206,0.9545981884002686
1772789046201611500,5.917611572265625,9.98136043548584,-0.6617509722709656,0.9450162649154663
1772789046221710300,5.93771044921875,9.99034309387207,-0.6521690487861633,0.9306434392929077
1772789046241809400,5.957809326171875,9.980761528015137,-0.6809147596359253,0.9402253031730652
1772789046261908500,5.977908447265625,9.976569175720215,-0.6863046288490295,0.9360332489013672
1772789046302106400,6.0181064453125,9.966987609863281,-0.6719317436218262,0.9551970958709717
1772789046322205400,6.038205322265625,9.986150741577148,-0.6767227053642273,0.9456151723861694
1772789046362403600,6.078403564453125,9.986150741577148,-0.6719317436218262,0.9551970958709717
1772789046382502400,6.09850244140625,9.990942001342773,-0.6910955309867859,0.9408242106437683
1772789046402601500,6.1186015625,10.014298439025879,-0.6910955309867859,0.9360332489013672
1772789046422700500,6.138700439453125,10.000524520874023,-0.667140781879425,0.9360332489013672
1772789046442799600,6.158799560546875,9.990942001342773,-0.6623498201370239,0.9456151723861694
1772789046462898700,6.178898681640625,10.009507179260254,-0.6863046288490295,0.9312422871589661
1772789046482997500,6.19899755859375,9.995733261108398,-0.6719317436218262,0.9360332489013672
1772789046503096600,6.2190966796875,9.986150741577148,-0.6767227053642273,0.9360332489013672
1772789046523195600,6.239195556640625,9.99992561340332,-0.6815136671066284,0.9360332489013672
1772789046543294700,6.259294677734375,9.990942001342773,-0.6623498201370239,0.9360332489013672
1772789046583492600,6.29949267578125,9.986150741577148,-0.6815136671066284,0.9551970958709717
1772789046623690800,6.339690673828125,9.990942001342773,-0.6719317436218262,0.9312422871589661
1772789046663888600,6.379888671875,9.98136043548584,-0.6863046288490295,0.9450162649154663
1772789046683987200,6.3999873046875,9.97177791595459,-0.6719317436218262,0.9354343414306641
1772789046704086000,6.4200859375,9.976569175720215,-0.6719317436218262,0.9498072266578674
1772789046724184600,6.4401845703125,9.985551834106445,-0.6719317436218262,0.9450162649154663
1772789046744283100,6.460283203125,9.99034309387207,-0.671332836151123,0.9545981884002686
1772789046764382000,6.4803818359375,9.995134353637695,-0.6617509722709656,0.9450162649154663
1772789046784480500,6.50048046875,9.99034309387207,-0.6809147596359253,0.9498072266578674
1772789046804579000,6.5205791015625,9.97177791595459,-0.671332836151123,0.9450162649154663
1772789046824678000,6.540677978515625,9.980761528015137,-0.671332836151123,0.9545981884002686
1772789046844776400,6.5607763671875,9.985551834106445,-0.6665419340133667,0.9450162649154663
1772789046864875000,6.580875,9.962196350097656,-0.6521690487861633,0.9348354935646057
1772789046905072400,6.621072265625,9.99992561340332,-0.6761237978935242,0.9348354935646057
1772789046925171000,6.6411708984375,9.980761528015137,-0.6665419340133667,0.9348354935646057
1772789046945269800,6.661269775390625,9.975970268249512,-0.6857057213783264,0.9396264553070068
1772789046965368300,6.681368408203125,9.975970268249512,-0.6761237978935242,0.9348354935646057
1772789046985467000,6.701466796875,9.985551834106445,-0.671332836151123,0.9300445318222046
1772789047005565700,6.721565673828125,10.013699531555176,-0.6809147596359253,0.9348354935646057
1772789047025664300,6.741664306640625,9.975970268249512,-0.6809147596359253,0.9438185691833496
1772789047045762800,6.7617626953125,9.980761528015137,-0.671332836151123,0.9438185691833496
1772789047065861600,6.781861572265625,9.99992561340332,-0.671332836151123,0.9402253031730652
1772789047085960200,6.801960205078125,9.99992561340332,-0.6617509722709656,0.9545981884002686
1772789047106058800,6.822058837890625,9.985551834106445,-0.6617509722709656,0.9258524775505066
1772789047146256100,6.862256103515625,9.966987609863281,-0.671332836151123,0.9498072266578674
1772789047166354700,6.882354736328125,9.985551834106445,-0.6761237978935242,0.9402253031730652
1772789047186453500,6.90245361328125,9.995134353637695,-0.6761237978935242,0.9402253031730652
1772789047226651000,6.94265087890625,9.957405090332031,-0.6623498201370239,0.9402253031730652
1772789047266848300,6.98284814453125,10.004715919494629,-0.6761237978935242,0.9539993405342102
1772789047307045400,7.02304541015625,9.99034309387207,-0.671332836151123,0.9492083787918091
1772789047327144200,7.043144287109375,9.985551834106445,-0.6521690487861633,0.9300445318222046
1772789047347242800,7.06324267578125,9.985551834106445,-0.6521690487861633,0.944417417049408
1772789047367341600,7.083341552734375,9.985551834106445,-0.6904966831207275,0.9300445318222046
1772789047387440000,7.103440185546875,9.966388702392578,-0.6952876448631287,0.9252535700798035
1772789047407539000,7.1235390625,9.995134353637695,-0.6761237978935242,0.9390276074409485
1772789047427637500,7.143637451171875,10.013699531555176,-0.6665419340133667,0.9390276074409485
1772789047467835000,7.1838349609375,10.004715919494629,-0.6665419340133667,0.9492083787918091
1772789047508032300,7.2240322265625,9.957405090332031,-0.6761237978935242,0.9306434392929077
1772789047528131000,7.244131103515625,9.995134353637695,-0.6761237978935242,0.9402253031730652
1772789047548229600,7.264229736328125,9.976569175720215,-0.671332836151123,0.9450162649154663
1772789047568328200,7.284328125,9.980761528015137,-0.6617509722709656,0.9258524775505066
1772789047588427000,7.304427001953125,9.99034309387207,-0.6761237978935242,0.9498072266578674
1772789047608525600,7.324525634765625,9.995134353637695,-0.6809147596359253,0.9498072266578674
1772789047628624400,7.344624267578125,10.004715919494629,-0.6665419340133667,0.9402253031730652
1772789047648723000,7.364722900390625,10.004715919494629,-0.6665419340133667,0.9545981884002686
1772789047668821500,7.384821533203125,10.004715919494629,-0.6809147596359253,0.9492083787918091
1772789047709015800,7.425015869140625,9.985551834106445,-0.6857057213783264,0.9539993405342102
1772789047729112800,7.44511279296875,9.980761528015137,-0.6473780870437622,0.9396264553070068
1772789047749210000,7.465210205078125,9.985551834106445,-0.6569600105285645,0.9300445318222046
1772789047769307400,7.485307373046875,9.980761528015137,-0.6857057213783264,0.9300445318222046
1772789047789404400,7.505404296875,9.980761528015137,-0.6665419340133667,0.944417417049408
1772789047809501700,7.525501708984375,9.995134353637695,-0.6761237978935242,0.944417417049408
1772789047829598700,7.5455986328125,9.980761528015137,-0.671332836151123,0.9539993405342102
1772789047849696000,7.565696044921875,9.99992561340332,-0.6761237978935242,0.9492083787918091
1772789047869793300,7.585793212890625,10.004715919494629,-0.6809147596359253,0.9498072266578674
1772789047909987600,7.625987548828125,9.99034309387207,-0.671332836151123,0.9450162649154663
1772789047930084600,7.646084716796875,9.99034309387207,-0.6761237978935242,0.9450162649154663
1772789047950182000,7.666181884765625,9.995134353637695,-0.6761237978935242,0.9498072266578674
1772789047970279200,7.686279052734375,9.985551834106445,-0.6623498201370239,0.9450162649154663
1772789047990376200,7.706376220703125,9.99034309387207,-0.667140781879425,0.9402253031730652
1772789048010473500,7.726473388671875,9.99034309387207,-0.671332836151123,0.9402253031730652
1772789048030570800,7.74657080078125,9.995134353637695,-0.6623498201370239,0.9306434392929077
1772789048050667800,7.766667724609375,10.019088745117188,-0.6767227053642273,0.9498072266578674
1772789048070765000,7.78676513671875,9.99034309387207,-0.671332836151123,0.9396264553070068
1772789048090862000,7.806862060546875,9.99992561340332,-0.6665419340133667,0.9348354935646057
1772789048110959400,7.82695947265625,9.99034309387207,-0.6665419340133667,0.9246547222137451
1772789048131056600,7.847056640625,9.971179008483887,-0.6857057213783264,0.9246547222137451
1772789048151153700,7.867153564453125,9.995134353637695,-0.6617509722709656,0.9438185691833496
1772789048171251000,7.8872509765625,9.99034309387207,-0.671332836151123,0.9486095309257507
1772789048191348700,7.9073486328125,10.013699531555176,-0.6755249500274658,0.9438185691833496
1772789048211446300,7.9274462890625,10.018489837646484,-0.6755249500274658,0.9438185691833496
1772789048231543800,7.947543701171875,9.999326705932617,-0.6803159117698669,0.9342366456985474
1772789048271739100,7.9877392578125,9.99034309387207,-0.6857057213783264,0.9402253031730652
1772789048291836700,8.007836669921875,9.995134353637695,-0.6809147596359253,0.9450162649154663
1772789048311934500,8.0279345703125,9.985551834106445,-0.6575588583946228,0.9402253031730652
1772789048332032000,8.048031982421875,9.995134353637695,-0.6623498201370239,0.9402253031730652
1772789048352129800,8.0681298828125,9.99034309387207,-0.6767227053642273,0.9641801118850708
1772789048372227300,8.088227294921875,10.004715919494629,-0.667140781879425,0.9402253031730652
1772789048392324900,8.108324951171875,10.014298439025879,-0.6719317436218262,0.9402253031730652
1772789048412422700,8.128422607421875,9.99034309387207,-0.6910955309867859,0.9450162649154663
1772789048432520200,8.148520263671875,9.986150741577148,-0.6767227053642273,0.9450162649154663
1772789048452617700,8.16861767578125,10.004715919494629,-0.6857057213783264,0.9486095309257507
1772789048472715500,8.188715576171875,10.004715919494629,-0.6857057213783264,0.9342366456985474
1772789048492813000,8.20881298828125,10.018489837646484,-0.6521690487861633,0.9390276074409485
1772789048512910800,8.228910888671875,10.00890827178955,-0.6665419340133667,0.9438185691833496
1772789048533008400,8.24900830078125,9.975970268249512,-0.6803159117698669,0.9390276074409485
1772789048553106000,8.26910595703125,9.99992561340332,-0.6851068735122681,0.9629823565483093
1772789048573203700,8.28920361328125,9.999326705932617,-0.6803159117698669,0.9438185691833496
1772789048593301200,8.30930126953125,9.975970268249512,-0.6707339882850647,0.9390276074409485
1772789048613399000,8.32939892578125,9.985551834106445,-0.6659430265426636,0.9390276074409485
1772789048653594000,8.369593994140626,9.99992561340332,-0.6761237978935242,0.944417417049408
1772789048673692200,8.389692138671874,10.004715919494629,-0.6904966831207275,0.9348354935646057
1772789048693790200,8.409790283203124,9.995134353637695,-0.6761237978935242,0.9539993405342102
1772789048733986800,8.44998681640625,9.99034309387207,-0.6569600105285645,0.9539993405342102
1772789048754085000,8.470085205078124,9.980761528015137,-0.671332836151123,0.9402253031730652
1772789048774183400,8.490183349609374,9.980761528015137,-0.6665419340133667,0.9402253031730652
1772789048794281500,8.510281494140624,9.98136043548584,-0.6761237978935242,0.9306434392929077
1772789048814379800,8.5303798828125,9.99034309387207,-0.7000786066055298,0.9402253031730652
1772789048834478000,8.55047802734375,10.004715919494629,-0.6665419340133667,0.9402253031730652
1772789048854576400,8.570576416015625,9.99034309387207,-0.6665419340133667,0.9450162649154663
1772789048874674400,8.59067431640625,10.004715919494629,-0.6809147596359253,0.9450162649154663
1772789048894772700,8.610772705078125,9.995134353637695,-0.6904966831207275,0.9450162649154663
1772789048914871000,8.63087109375,9.99992561340332,-0.6809147596359253,0.9498072266578674
1772789048934969300,8.65096923828125,9.99992561340332,-0.6665419340133667,0.9306434392929077
1772789048955067600,8.671067626953125,9.985551834106445,-0.6575588583946228,0.9354343414306641
1772789048975165700,8.691165771484375,9.985551834106445,-0.6761237978935242,0.9402253031730652
1772789048995264000,8.711263916015625,9.98136043548584,-0.667140781879425,0.9593891501426697
1772789049015362300,8.7313623046875,9.995134353637695,-0.6719317436218262,0.9258524775505066
1772789049035460600,8.751460693359375,9.986150741577148,-0.6767227053642273,0.9450162649154663
1772789049055558700,8.77155859375,9.99992561340332,-0.671332836151123,0.9587903022766113
1772789049075657000,8.791656982421875,9.99034309387207,-0.6761237978935242,0.9396264553070068
1772789049095755300,8.81175537109375,9.99034309387207,-0.6665419340133667,0.9252535700798035
1772789049115853600,8.831853515625,9.975970268249512,-0.6617509722709656,0.9539993405342102
1772789049135952000,8.851951904296875,10.009507179260254,-0.6617509722709656,0.9539993405342102
1772789049176149200,8.892149169921876,9.99992561340332,-0.671332836151123,0.9486095309257507
1772789049196249300,8.912249267578124,10.004715919494629,-0.6809147596359253,0.9390276074409485
1772789049216349400,8.932349365234375,10.00890827178955,-0.6809147596359253,0.9486095309257507
1772789049236449500,8.952449462890625,10.004715919494629,-0.671332836151123,0.9342366456985474
1772789049256549400,8.97254931640625,10.009507179260254,-0.6761237978935242,0.9300445318222046
1772789049276649500,8.9926494140625,10.004715919494629,-0.6857057213783264,0.9396264553070068
1772789049296749600,9.01274951171875,9.985551834106445,-0.6761237978935242,0.9396264553070068
1772789049316849700,9.032849609375,10.009507179260254,-0.6617509722709656,0.9348354935646057
1772789049357049900,9.0730498046875,9.99992561340332,-0.671332836151123,0.9348354935646057
1772789049377150000,9.09314990234375,10.013699531555176,-0.671332836151123,0.9396264553070068
1772789049397250000,9.11325,9.99992561340332,-0.6761237978935242,0.9348354935646057
1772789049417350000,9.133349853515625,9.99034309387207,-0.6761237978935242,0.9396264553070068
1772789049437450000,9.153449951171876,9.985551834106445,-0.6665419340133667,0.9539993405342102
1772789049457550000,9.173550048828124,9.99992561340332,-0.6719317436218262,0.9593891501426697
1772789049477650200,9.193650146484375,9.990942001342773,-0.667140781879425,0.9450162649154663
1772789049497750300,9.213750244140625,9.986150741577148,-0.6815136671066284,0.9360332489013672
1772789049537950500,9.253950439453124,9.995733261108398,-0.6527678966522217,0.9647789597511292
1772789049558050300,9.27405029296875,9.995733261108398,-0.6719317436218262,0.9264513254165649
1772789049598250500,9.31425048828125,9.990942001342773,-0.6910955309867859,0.9360332489013672
1772789049618350600,9.3343505859375,10.000524520874023,-0.6719317436218262,0.9264513254165649
1772789049638450700,9.35445068359375,10.005314826965332,-0.6815136671066284,0.9414230585098267
1772789049658550500,9.374550537109375,9.995134353637695,-0.667140781879425,0.9306434392929077
1772789049678649300,9.3946494140625,9.99034309387207,-0.6719317436218262,0.9545981884002686
1772789049698747400,9.414747314453125,9.995134353637695,-0.6623498201370239,0.9306434392929077
1772789049718845200,9.43484521484375,10.004715919494629,-0.6767227053642273,0.9450162649154663
1772789049738943200,9.454943115234375,9.98136043548584,-0.6719317436218262,0.9545981884002686
1772789049759041300,9.475041259765625,9.98136043548584,-0.6719317436218262,0.9354343414306641
1772789049779139000,9.49513916015625,9.995134353637695,-0.6719317436218262,0.9450162649154663
1772789049799237000,9.515237060546875,10.014298439025879,-0.6527678966522217,0.9354343414306641
1772789049819335000,9.5353349609375,10.009507179260254,-0.6623498201370239,0.9450162649154663
1772789049839433000,9.555432861328125,9.985551834106445,-0.6719317436218262,0.9545981884002686
1772789049859531000,9.575531005859375,9.985551834106445,-0.6527678966522217,0.9354343414306641
1772789049879635700,9.5956357421875,9.98136043548584,-0.6623498201370239,0.9402253031730652
1772789049899733800,9.615733642578125,9.995134353637695,-0.6809147596359253,0.9354343414306641
1772789049919831600,9.63583154296875,9.99034309387207,-0.6719317436218262,0.9402253031730652
1772789049939929600,9.6559296875,9.985551834106445,-0.667140781879425,0.9498072266578674
1772789049960027400,9.67602734375,10.004715919494629,-0.6809147596359253,0.9498072266578674
1772789050000223500,9.716223388671875,9.99034309387207,-0.667140781879425,0.9402253031730652
1772789050020321500,9.736321533203125,9.99992561340332,-0.6761237978935242,0.9593891501426697
1772789050040419300,9.75641943359375,10.004715919494629,-0.6809147596359253,0.9402253031730652
1772789050080615200,9.796615234375,9.99034309387207,-0.6623498201370239,0.9450162649154663
1772789050100713200,9.816713134765624,9.97177791595459,-0.6719317436218262,0.9450162649154663
1772789050140909000,9.856908935546874,9.986150741577148,-0.6719317436218262,0.9306434392929077
1772789050161007000,9.877007080078124,9.98136043548584,-0.6815136671066284,0.9306434392929077
1772789050181105000,9.89710498046875,9.99034309387207,-0.6623498201370239,0.9402253031730652
1772789050201202700,9.91720263671875,9.98136043548584,-0.6623498201370239,0.9354343414306641
1772789050221300700,9.93730078125,9.995134353637695,-0.6719317436218262,0.9258524775505066
1772789050241398500,9.9573984375,10.004715919494629,-0.667140781879425,0.9258524775505066
1772789050281594000,9.997593994140624,9.98136043548584,-0.667140781879425,0.9306434392929077
1772789050301692200,10.017692138671874,9.986150741577148,-0.6767227053642273,0.9498072266578674
1772789050321790000,10.0377900390625,9.990942001342773,-0.6719317436218262,0.9312422871589661
1772789050361985500,10.077985595703124,9.99992561340332,-0.6575588583946228,0.9360332489013672
1772789050382083300,10.098083251953126,9.990942001342773,-0.667140781879425,0.9360332489013672
1772789050402181400,10.118181396484376,9.990942001342773,-0.6815136671066284,0.9551970958709717
1772789050422279200,10.138279052734376,10.004715919494629,-0.6910955309867859,0.9456151723861694
1772789050462474800,10.178474853515626,10.019088745117188,-0.667140781879425,0.9456151723861694
1772789050502670600,10.218670654296876,9.98136043548584,-0.6479769349098206,0.9456151723861694
1772789050542866200,10.2588662109375,9.976569175720215,-0.6719317436218262,0.9456151723861694
1772789050583062000,10.29906201171875,9.986150741577148,-0.6767227053642273,0.9456151723861694
1772789050603159800,10.319159912109376,10.009507179260254,-0.6815136671066284,0.9360332489013672
1772789050623257600,10.339257568359375,9.995134353637695,-0.6575588583946228,0.9456151723861694
1772789050663453400,10.379453369140625,10.004715919494629,-0.6815136671066284,0.9504061341285706
1772789050683552500,10.399552490234376,9.995733261108398,-0.6719317436218262,0.9408242106437683
1772789050703651600,10.419651611328124,9.99992561340332,-0.6479769349098206,0.9360332489013672
1772789050723751000,10.4397509765625,9.986150741577148,-0.6719317436218262,0.9312422871589661
1772789050743850200,10.459850341796875,9.990942001342773,-0.667140781879425,0.9360332489013672
1772789050763949600,10.479949462890625,10.000524520874023,-0.6479769349098206,0.9408242106437683
1772789050784048600,10.500048583984375,9.98136043548584,-0.6815136671066284,0.9504061341285706
1772789050804148000,10.52014794921875,10.000524520874023,-0.6815136671066284,0.959987998008728
1772789050824247300,10.540247314453126,10.004715919494629,-0.6575588583946228,0.9504061341285706
1772789050844346400,10.560346435546874,9.990942001342773,-0.6575588583946228,0.9264513254165649
1772789050864445700,10.58044580078125,9.98136043548584,-0.6725305914878845,0.9366320967674255
1772789050884545000,10.600544921875,10.005314826965332,-0.6725305914878845,0.9462140202522278
1772789050904644400,10.620644287109375,9.98136043548584,-0.6773215532302856,0.9414230585098267
1772789050924743400,10.640743408203125,9.990942001342773,-0.6821125149726868,0.9318411350250244
1772789050944842800,10.6608427734375,10.000524520874023,-0.6629486680030823,0.95579594373703
1772789050964942000,10.680942138671876,9.98136043548584,-0.6677396297454834,0.9462140202522278
1772789050985041200,10.701041259765624,9.990942001342773,-0.6821125149726868,0.9372310042381287
1772789051005140500,10.721140380859374,10.005314826965332,-0.6725305914878845,0.9563947916030884
1772789051025239800,10.74123974609375,10.000524520874023,-0.6725305914878845,0.9420219659805298
1772789051045339100,10.761339111328125,10.000524520874023,-0.6725305914878845,0.9276490807533264
1772789051065438200,10.781438232421875,9.995733261108398,-0.6767227053642273,0.9504061341285706
1772789051085537500,10.80153759765625,9.995733261108398,-0.6767227053642273,0.9456151723861694
1772789051105636900,10.821636962890626,9.976569175720215,-0.6767227053642273,0.9456151723861694
1772789051125736000,10.84173583984375,9.99992561340332,-0.6767227053642273,0.9264513254165649
1772789051145835300,10.861835205078124,10.009507179260254,-0.667140781879425,0.9360332489013672
1772789051165934600,10.8819345703125,9.995134353637695,-0.6575588583946228,0.9545981884002686
1772789051186033400,10.902033447265625,10.004715919494629,-0.6575588583946228,0.9354343414306641
1772789051226231600,10.9422314453125,9.98136043548584,-0.6479769349098206,0.9402253031730652
1772789051266429400,10.982429443359376,10.019088745117188,-0.6629486680030823,0.9510049819946289
1772789051286528300,11.0025283203125,10.033461570739746,-0.6725305914878845,0.9462140202522278
1772789051306627300,11.02262744140625,9.990942001342773,-0.6821125149726868,0.95579594373703
1772789051326726100,11.04272607421875,9.97177791595459,-0.6677396297454834,0.9462140202522278
1772789051346825200,11.0628251953125,10.005314826965332,-0.6773215532302856,0.9366320967674255
1772789051387023000,11.103023193359375,9.986150741577148,-0.6821125149726868,0.9510049819946289
1772789051407122200,11.1231220703125,9.995733261108398,-0.6629486680030823,0.9510049819946289
1772789051427221000,11.143220947265625,9.990942001342773,-0.6773215532302856,0.9420219659805298
1772789051447320000,11.163320068359376,9.98136043548584,-0.6725305914878845,0.9324400424957275
1772789051467419000,11.1834189453125,10.009507179260254,-0.6623498201370239,0.9360332489013672
1772789051507616800,11.22361669921875,9.98136043548584,-0.6767227053642273,0.9551970958709717
1772789051527715800,11.2437158203125,10.000524520874023,-0.6863046288490295,0.9456151723861694
1772789051547815000,11.26381494140625,9.986150741577148,-0.6863046288490295,0.9408242106437683
1772789051567913700,11.283913818359375,9.986150741577148,-0.6623498201370239,0.9456151723861694
1772789051588012800,11.3040126953125,10.014298439025879,-0.6623498201370239,0.9551970958709717
1772789051608111600,11.324111572265625,9.97177791595459,-0.6623498201370239,0.959987998008728
1772789051628210700,11.344210693359376,9.962196350097656,-0.6719317436218262,0.9360332489013672
1772789051648309500,11.3643095703125,9.986150741577148,-0.6719317436218262,0.9312422871589661
1772789051668408300,11.384408203125,9.986150741577148,-0.667140781879425,0.9414230585098267
1772789051688505600,11.404505615234376,9.990942001342773,-0.6623498201370239,0.9270501732826233
1772789051708603100,11.42460302734375,9.995733261108398,-0.6623498201370239,0.9414230585098267
1772789051748798000,11.4647978515625,10.005314826965332,-0.6815136671066284,0.9318411350250244
1772789051788992500,11.504992431640625,10.009507179260254,-0.6719317436218262,0.9510049819946289
1772789051809090000,11.525090087890625,9.990942001342773,-0.667140781879425,0.9366320967674255
1772789051829187300,11.545187255859375,10.005314826965332,-0.6767227053642273,0.9510049819946289
1772789051869382100,11.585382080078125,10.009507179260254,-0.667140781879425,0.9318411350250244
1772789051889479400,11.6054794921875,9.990942001342773,-0.6815136671066284,0.9366320967674255
1772789051909577000,11.625576904296874,9.98136043548584,-0.6719317436218262,0.9414230585098267
1772789051929674200,11.64567431640625,10.000524520874023,-0.6719317436218262,0.9510049819946289
1772789051949771500,11.665771484375,10.000524520874023,-0.6767227053642273,0.9366320967674255
1772789051969869000,11.685869140625,9.976569175720215,-0.667140781879425,0.9510049819946289
1772789051989966300,11.70596630859375,9.98136043548584,-0.667140781879425,0.9510049819946289
1772789052030161200,11.7461611328125,10.019088745117188,-0.6815136671066284,0.9270501732826233
1772789052050258400,11.766258544921875,9.986150741577148,-0.6815136671066284,0.9366320967674255
1772789052070356000,11.78635595703125,10.000524520874023,-0.6629486680030823,0.9318411350250244
1772789052090453200,11.806453369140625,10.005314826965332,-0.6629486680030823,0.9366320967674255
1772789052110550500,11.826550537109375,10.005314826965332,-0.6773215532302856,0.9462140202522278
1772789052150745300,11.866745361328125,9.990942001342773,-0.6629486680030823,0.9462140202522278
1772789052170843100,11.886843017578125,9.990942001342773,-0.6773215532302856,0.9510049819946289
1772789052190941700,11.906941650390625,9.986150741577148,-0.6773215532302856,0.9414230585098267
1772789052231138800,11.947138916015625,9.986150741577148,-0.6629486680030823,0.9462140202522278
1772789052251237400,11.9672373046875,9.995733261108398,-0.6773215532302856,0.9653778672218323
1772789052271336000,11.9873359375,9.986150741577148,-0.65336674451828,0.9468128681182861
1772789052291434500,12.0074345703125,10.000524520874023,-0.6725305914878845,0.9516038298606873
1772789052311533300,12.027533203125,9.990942001342773,-0.6773215532302856,0.9516038298606873
1772789052351730400,12.06773046875,9.995733261108398,-0.6629486680030823,0.9468128681182861
1772789052371829000,12.0878291015625,9.995733261108398,-0.6725305914878845,0.9468128681182861
1772789052391927600,12.107927490234376,9.990942001342773,-0.6581577062606812,0.9516038298606873
1772789052412026000,12.128026123046874,9.986150741577148,-0.6725305914878845,0.9611857533454895
1772789052432124700,12.148124755859374,10.005314826965332,-0.6821125149726868,0.9516038298606873
1772789052452223200,12.16822314453125,10.000524520874023,-0.6725305914878845,0.9420219659805298
1772789052492420400,12.20842041015625,9.990942001342773,-0.6773215532302856,0.9516038298606873
1772789052512519000,12.228518798828125,9.990942001342773,-0.6725305914878845,0.9228581190109253
1772789052552716300,12.26871630859375,10.010106086730957,-0.6725305914878845,0.9516038298606873
1772789052572814800,12.28881494140625,10.010106086730957,-0.6629486680030823,0.9420219659805298
1772789052592913400,12.308913330078125,9.986150741577148,-0.6773215532302856,0.9468128681182861
1772789052613012000,12.329011962890625,10.005314826965332,-0.6725305914878845,0.9420219659805298
1772789052633110500,12.349110595703126,10.010106086730957,-0.6773215532302856,0.9468128681182861
1772789052653209000,12.369208984375,10.005314826965332,-0.6725305914878845,0.9462140202522278
1772789052693404400,12.409404296875,9.98136043548584,-0.6581577062606812,0.9510049819946289
1772789052733599000,12.449598876953125,10.000524520874023,-0.6910955309867859,0.9462140202522278
1772789052753696300,12.4696962890625,10.000524520874023,-0.6725305914878845,0.9414230585098267
1772789052773793500,12.48979345703125,9.995733261108398,-0.6677396297454834,0.9414230585098267
1772789052793890800,12.509890869140625,10.005314826965332,-0.6863046288490295,0.9462140202522278
1772789052813988000,12.529988037109375,9.990942001342773,-0.6863046288490295,0.9462140202522278
1772789052834085000,12.550085205078124,9.990942001342773,-0.6623498201370239,0.9462140202522278
1772789052854182400,12.570182373046874,9.990942001342773,-0.6629486680030823,0.9372310042381287
1772789052894377000,12.610376953125,9.995733261108398,-0.6581577062606812,0.9420219659805298
1772789052914474200,12.63047412109375,10.000524520874023,-0.6629486680030823,0.9563947916030884
1772789052934571500,12.650571533203125,10.005314826965332,-0.6725305914878845,0.9324400424957275
1772789052954668800,12.670668701171875,9.990942001342773,-0.6821125149726868,0.9330388903617859
1772789052974766000,12.69076611328125,9.991540908813477,-0.6725305914878845,0.9282479286193848
1772789052994863400,12.71086328125,9.991540908813477,-0.6581577062606812,0.937829852104187
1772789053014960600,12.730960693359375,10.005314826965332,-0.6629486680030823,0.9426208138465881
1772789053035058000,12.751057861328125,9.991540908813477,-0.6869034767150879,0.9282479286193848
1772789053055155000,12.771155029296875,10.005314826965332,-0.691694438457489,0.9516038298606873
1772789053075252500,12.79125244140625,9.995733261108398,-0.6677396297454834,0.9372310042381287
1772789053095349500,12.811349609375,9.981959342956543,-0.6725305914878845,0.9420219659805298
1772789053115446800,12.83144677734375,9.977168083190918,-0.6821125149726868,0.9324400424957275
1772789053135544000,12.8515439453125,10.014897346496582,-0.6725305914878845,0.9372310042381287
1772789053175739400,12.891739501953126,10.000524520874023,-0.6773215532302856,0.9516038298606873
1772789053215936500,12.9319365234375,9.990942001342773,-0.6725305914878845,0.9516038298606873
1772789053236035300,12.952035400390624,10.000524520874023,-0.6677396297454834,0.9372310042381287
1772789053256134000,12.9721337890625,9.990942001342773,-0.6629486680030823,0.9516038298606873
1772789053276232400,12.992232421875,9.990942001342773,-0.6773215532302856,0.9372310042381287
1772789053296331300,13.012331298828125,9.986749649047852,-0.6677396297454834,0.9420219659805298
1772789053316429800,13.032429931640625,9.981959342956543,-0.6677396297454834,0.9372310042381287
1772789053336528400,13.0525283203125,9.981959342956543,-0.6725305914878845,0.9372310042381287
1772789053356627200,13.072627197265625,10.014897346496582,-0.6677396297454834,0.9468128681182861
1772789053376725800,13.092725830078125,9.990942001342773,-0.6677396297454834,0.9420219659805298
1772789053416923100,13.132923095703125,9.972376823425293,-0.6725305914878845,0.9372310042381287
1772789053437021700,13.153021728515625,9.981959342956543,-0.6725305914878845,0.9468128681182861
1772789053457120500,13.17312060546875,9.981959342956543,-0.6635475754737854,0.9474117755889893
1772789053477219000,13.193218994140626,9.995733261108398,-0.6821125149726868,0.9522027373313904
1772789053497317600,13.213317626953126,9.986749649047852,-0.6731294989585876,0.937829852104187
1772789053517416400,13.23341650390625,9.991540908813477,-0.6869034767150879,0.9522027373313904
1772789053537515000,13.253514892578124,10.005314826965332,-0.6731294989585876,0.9426208138465881
1772789053557613600,13.273613525390624,9.986749649047852,-0.6635475754737854,0.9426208138465881
1772789053577712400,13.29371240234375,9.996332168579102,-0.6683385372161865,0.9474117755889893
1772789053597811000,13.31381103515625,9.991540908813477,-0.6922932863235474,0.937829852104187
1772789053638008300,13.35400830078125,9.986749649047852,-0.677920401096344,0.9426208138465881
1772789053658107000,13.37410693359375,10.005314826965332,-0.6773215532302856,0.9468128681182861
1772789053678205200,13.394205078125,9.995733261108398,-0.6773215532302856,0.9324400424957275
1772789053698303200,13.41430322265625,9.995733261108398,-0.6773215532302856,0.9372310042381287
1772789053718401300,13.4344013671875,9.990942001342773,-0.6773215532302856,0.95579594373703
1772789053738499000,13.4544990234375,9.995733261108398,-0.6725305914878845,0.9414230585098267
1772789053758597000,13.47459716796875,9.986150741577148,-0.6773215532302856,0.9318411350250244
1772789053778695200,13.494695068359375,9.990942001342773,-0.6629486680030823,0.9366320967674255
1772789053818891300,13.534891357421875,9.98136043548584,-0.6629486680030823,0.9366320967674255
1772789053838989300,13.5549892578125,9.986150741577148,-0.6677396297454834,0.9510049819946289
1772789053859087400,13.57508740234375,9.991540908813477,-0.6773215532302856,0.9522027373313904
1772789053879185200,13.59518505859375,10.000524520874023,-0.6731294989585876,0.9426208138465881
1772789053899283200,13.615283203125,10.010106086730957,-0.6731294989585876,0.9522027373313904
1772789053919381200,13.63538134765625,9.991540908813477,-0.677920401096344,0.9426208138465881
1772789053939479300,13.655479248046875,9.991540908813477,-0.6922932863235474,0.937829852104187
1772789053959577300,13.675577392578125,10.00112247467041,-0.6731294989585876,0.9474117755889893
1772789053979675400,13.69567529296875,9.991540908813477,-0.677920401096344,0.9480106234550476
1772789053999773400,13.7157734375,10.014897346496582,-0.6875023245811462,0.9432196617126465
1772789054019871200,13.735871337890625,10.01968765258789,-0.6875023245811462,0.9432196617126465
1772789054039969300,13.75596923828125,9.986749649047852,-0.6635475754737854,0.9288467764854431
1772789054060067300,13.7760673828125,10.005314826965332,-0.6677396297454834,0.9468128681182861
1772789054100263400,13.816263427734375,10.000524520874023,-0.6629486680030823,0.9563947916030884
1772789054120361500,13.836361572265625,9.990942001342773,-0.691694438457489,0.9420219659805298
1772789054140459300,13.856459228515625,9.995733261108398,-0.6773215532302856,0.9372310042381287
1772789054160557300,13.876557373046875,9.98136043548584,-0.6725305914878845,0.9420219659805298
1772789054180655900,13.89665576171875,9.977168083190918,-0.6821125149726868,0.9420219659805298
1772789054200754400,13.91675439453125,10.000524520874023,-0.6677396297454834,0.9324400424957275
1772789054220853200,13.936853271484376,10.014897346496582,-0.6677396297454834,0.9366320967674255
1772789054240951800,13.956951904296876,9.990942001342773,-0.6725305914878845,0.95579594373703
1772789054261050400,13.97705029296875,9.972376823425293,-0.6683385372161865,0.937829852104187
1772789054281149200,13.997149169921874,9.996332168579102,-0.6635475754737854,0.9480106234550476
1772789054301247700,14.017247802734374,9.991540908813477,-0.6587566137313843,0.9480106234550476
1772789054321346300,14.03734619140625,10.005913734436035,-0.6587566137313843,0.9528015851974487
1772789054341444900,14.05744482421875,10.005913734436035,-0.6683385372161865,0.9528015851974487
1772789054361543700,14.077543701171875,10.00112247467041,-0.6731294989585876,0.9336377382278442
1772789054401740800,14.11774072265625,9.986749649047852,-0.6731294989585876,0.9384286999702454
1772789054421839600,14.137839599609375,9.986749649047852,-0.6827113628387451,0.9480106234550476
1772789054462036700,14.17803662109375,9.990942001342773,-0.6773215532302856,0.9420219659805298
1772789054482135600,14.198135498046875,9.972376823425293,-0.6677396297454834,0.9372310042381287
1772789054502234000,14.218234130859376,10.000524520874023,-0.6677396297454834,0.9372310042381287
1772789054542431500,14.258431396484376,9.990942001342773,-0.6725305914878845,0.9372310042381287
1772789054562530000,14.278530029296874,10.010106086730957,-0.6725305914878845,0.9420219659805298
1772789054582628600,14.298628662109374,9.977168083190918,-0.6677396297454834,0.9468128681182861
1772789054622826000,14.338825927734375,9.990942001342773,-0.6821125149726868,0.9414230585098267
1772789054642924500,14.358924560546875,10.000524520874023,-0.6821125149726868,0.9510049819946289
1772789054663023000,14.379023193359375,10.005314826965332,-0.6725305914878845,0.9426208138465881
1772789054683122200,14.3991220703125,9.991540908813477,-0.649174690246582,0.937829852104187
1772789054723320600,14.439320556640626,10.014897346496582,-0.6731294989585876,0.9569936990737915
1772789054743419600,14.459419677734376,10.005314826965332,-0.6683385372161865,0.937829852104187
1772789054763518700,14.479518798828124,9.981959342956543,-0.677920401096344,0.9474117755889893
1772789054783617800,14.49961767578125,9.981959342956543,-0.677920401096344,0.937829852104187
1772789054803716900,14.519716796875,10.014897346496582,-0.6683385372161865,0.937829852104187
1772789054823816200,14.539816162109375,10.000524520874023,-0.6827113628387451,0.9474117755889893
1772789054843915300,14.559915283203125,10.005314826965332,-0.6635475754737854,0.9426208138465881
1772789054864014300,14.580014404296875,9.996332168579102,-0.6683385372161865,0.9426208138465881
1772789054884113400,14.600113525390626,10.01968765258789,-0.6635475754737854,0.937829852104187
1772789054904212500,14.62021240234375,10.005314826965332,-0.677920401096344,0.9474117755889893
1772789054924311800,14.640311767578124,9.981959342956543,-0.6731294989585876,0.9522027373313904
1772789054944411000,14.660410888671874,10.005314826965332,-0.6821125149726868,0.9330388903617859
1772789054964510000,14.680510009765625,10.005314826965332,-0.6731294989585876,0.9474117755889893
1772789054984609000,14.700609130859375,9.986749649047852,-0.6587566137313843,0.9234569668769836
1772789055004708000,14.7207080078125,10.000524520874023,-0.6731294989585876,0.937829852104187
1772789055024807400,14.740807373046875,10.005314826965332,-0.6731294989585876,0.9713665246963501
1772789055044906500,14.760906494140626,9.991540908813477,-0.6635475754737854,0.9426208138465881
1772789055065005600,14.781005615234376,9.981959342956543,-0.6539656519889832,0.9288467764854431
1772789055085104600,14.801104736328124,9.986749649047852,-0.6683385372161865,0.9384286999702454
1772789055105203700,14.82120361328125,9.996332168579102,-0.6635475754737854,0.9384286999702454
1772789055125303000,14.841302978515625,9.996332168579102,-0.6683385372161865,0.9528015851974487
1772789055145402000,14.861402099609375,9.991540908813477,-0.6635475754737854,0.9336377382278442
1772789055165501200,14.881501220703125,10.005913734436035,-0.677920401096344,0.9480106234550476
1772789055185598700,14.9015986328125,10.010106086730957,-0.6827113628387451,0.9432196617126465
1772789055205696500,14.921696533203125,9.986749649047852,-0.6683385372161865,0.9432196617126465
1772789055225794000,14.9417939453125,9.996332168579102,-0.6635475754737854,0.9240558743476868
1772789055245891800,14.961891845703125,9.977168083190918,-0.6683385372161865,0.9480106234550476
1772789055265989400,14.9819892578125,9.981959342956543,-0.6677396297454834,0.9426208138465881
1772789055286087200,15.002087158203125,10.005314826965332,-0.6485758423805237,0.9282479286193848
1772789055306184700,15.022184814453125,10.000524520874023,-0.6725305914878845,0.937829852104187
1772789055326282500,15.042282470703125,10.01968765258789,-0.6725305914878845,0.9372310042381287
1772789055346380000,15.062380126953125,10.000524520874023,-0.6677396297454834,0.9468128681182861
1772789055366477800,15.082477783203124,9.986749649047852,-0.6773215532302856,0.9372310042381287
1772789055386575400,15.102575439453124,10.010106086730957,-0.6677396297454834,0.9468128681182861
1772789055406673200,15.122673095703124,9.986150741577148,-0.6677396297454834,0.9468128681182861
1772789055426770700,15.142770751953124,10.000524520874023,-0.6677396297454834,0.9372310042381287
1772789055446868500,15.162868408203124,10.005314826965332,-0.6629486680030823,0.9372310042381287
1772789055466966000,15.182966064453124,9.996332168579102,-0.677920401096344,0.9234569668769836
1772789055487063800,15.203063720703126,9.977168083190918,-0.6875023245811462,0.9522027373313904
1772789055507161300,15.223161376953126,9.986749649047852,-0.6731294989585876,0.9282479286193848
1772789055527259100,15.243259033203126,9.986749649047852,-0.677920401096344,0.9426208138465881
1772789055547356700,15.263356689453126,10.014897346496582,-0.6875023245811462,0.9528015851974487
1772789055567454500,15.283454345703126,10.005913734436035,-0.677920401096344,0.9480106234550476
1772789055587552000,15.303552001953125,9.991540908813477,-0.6539656519889832,0.9384286999702454
1772789055607649800,15.32364990234375,9.996332168579102,-0.6635475754737854,0.9432196617126465
1772789055627747300,15.343747314453125,10.014897346496582,-0.677920401096344,0.9384286999702454
1772789055647845000,15.36384521484375,10.00112247467041,-0.6827113628387451,0.9288467764854431
1772789055667942700,15.383942626953125,9.981959342956543,-0.6677396297454834,0.937829852104187
1772789055688041200,15.404041259765625,10.005314826965332,-0.6581577062606812,0.9330388903617859
1772789055708139500,15.424139404296875,10.000524520874023,-0.6725305914878845,0.937829852104187
1772789055748336400,15.46433642578125,9.995733261108398,-0.6629486680030823,0.9330388903617859
1772789055768434700,15.4844345703125,9.986749649047852,-0.6773215532302856,0.9372310042381287
1772789055788533000,15.504532958984376,10.000524520874023,-0.6773215532302856,0.9420219659805298
1772789055808631300,15.52463134765625,10.005314826965332,-0.6773215532302856,0.9276490807533264
1772789055828729900,15.544729736328126,9.995733261108398,-0.65336674451828,0.9180671572685242
1772789055848828200,15.564828125,10.005314826965332,-0.6869034767150879,0.9372310042381287
1772789055868926500,15.584926513671874,10.005314826965332,-0.6875023245811462,0.9522027373313904
1772789055889025000,15.60502490234375,9.981959342956543,-0.6683385372161865,0.9432196617126465
1772789055909123300,15.625123291015624,10.00112247467041,-0.6587566137313843,0.9384286999702454
1772789055929221600,15.6452216796875,10.014897346496582,-0.6587566137313843,0.9384286999702454
1772789055949320200,15.6653203125,10.005913734436035,-0.6731294989585876,0.9336377382278442
1772789055969418500,15.68541845703125,9.986749649047852,-0.6827113628387451,0.9288467764854431
1772789055989516800,15.705516845703125,9.991540908813477,-0.6731294989585876,0.962383508682251
1772789056009615000,15.725614990234375,9.996332168579102,-0.6683385372161865,0.9480106234550476
1772789056029713700,15.745713623046875,9.981959342956543,-0.6635475754737854,0.9432196617126465
1772789056049812000,15.76581201171875,9.977168083190918,-0.6635475754737854,0.9240558743476868
1772789056069910300,15.78591015625,10.00112247467041,-0.6827113628387451,0.9384286999702454
1772789056090008800,15.8060087890625,9.986749649047852,-0.6827113628387451,0.9480106234550476
1772789056110107100,15.826107177734375,9.968185424804688,-0.6731294989585876,0.9480106234550476
1772789056130205400,15.846205322265625,9.996332168579102,-0.6827113628387451,0.9336377382278442
1772789056150303700,15.8663037109375,9.981959342956543,-0.6731294989585876,0.9288467764854431
1772789056170402000,15.886402099609375,9.977168083190918,-0.6635475754737854,0.9480106234550476
1772789056190499800,15.906499755859375,9.996332168579102,-0.6683385372161865,0.9336377382278442
1772789056210597400,15.926597412109375,9.977168083190918,-0.6635475754737854,0.9246547222137451
1772789056230695200,15.946695068359375,10.00112247467041,-0.6683385372161865,0.9438185691833496
1772789056250792700,15.966792724609375,9.995733261108398,-0.6773215532302856,0.9420219659805298
1772789056270890500,15.986890380859375,9.98136043548584,-0.6677396297454834,0.9276490807533264
1772789056290988300,16.00698828125,9.986150741577148,-0.6677396297454834,0.9318411350250244
1772789056311085800,16.0270859375,10.014897346496582,-0.6629486680030823,0.9414230585098267
1772789056331183600,16.04718359375,10.005314826965332,-0.6725305914878845,0.9414230585098267
1772789056351281400,16.067281494140627,10.009507179260254,-0.6623498201370239,0.9414230585098267
1772789056371379200,16.087379150390625,9.990942001342773,-0.6815136671066284,0.9408242106437683
1772789056391476700,16.107476806640626,9.995733261108398,-0.6767227053642273,0.9360332489013672
1772789056411574500,16.127574462890625,9.98136043548584,-0.6863046288490295,0.9264513254165649
1772789056431672000,16.147672119140626,9.976569175720215,-0.667140781879425,0.9312422871589661
1772789056451769900,16.167769775390624,9.986749649047852,-0.6725305914878845,0.9330388903617859
1772789056471867600,16.18786767578125,9.981959342956543,-0.6773215532302856,0.9330388903617859
1772789056491965200,16.207965087890624,9.972376823425293,-0.6773215532302856,0.9426208138465881
1772789056512063000,16.22806298828125,9.996332168579102,-0.6587566137313843,0.937829852104187
1772789056532160800,16.248160888671876,9.986749649047852,-0.6587566137313843,0.937829852104187
1772789056552258300,16.26825830078125,9.972376823425293,-0.6683385372161865,0.9426208138465881
1772789056572356000,16.288356201171876,10.005314826965332,-0.6539656519889832,0.937829852104187
1772789056592454000,16.308453857421874,9.986749649047852,-0.6587566137313843,0.937829852104187
1772789056612551400,16.328551513671876,10.010106086730957,-0.6731294989585876,0.937829852104187
1772789056632649200,16.348649169921874,9.977168083190918,-0.6683385372161865,0.9426208138465881
1772789056652747000,16.3687470703125,9.977168083190918,-0.6773215532302856,0.937829852104187
1772789056672844800,16.3888447265625,9.986749649047852,-0.6821125149726868,0.937829852104187
1772789056692943000,16.408943115234376,9.977168083190918,-0.6869034767150879,0.9468128681182861
1772789056713041700,16.429041748046874,9.986749649047852,-0.6725305914878845,0.9186660051345825
1772789056733140000,16.449139892578124,9.986749649047852,-0.6677396297454834,0.9282479286193848
1772789056753238300,16.46923828125,9.995733261108398,-0.6725305914878845,0.9372310042381287
1772789056773336600,16.489336669921876,9.981959342956543,-0.6773215532302856,0.9276490807533264
1772789056793435100,16.50943505859375,10.000524520874023,-0.6581577062606812,0.9420219659805298
1772789056813533400,16.529533447265624,9.981959342956543,-0.6677396297454834,0.9372310042381287
1772789056833631700,16.5496318359375,9.990942001342773,-0.6677396297454834,0.9372310042381287
1772789056853730000,16.56972998046875,10.000524520874023,-0.6629486680030823,0.9366320967674255
1772789056873828400,16.589828369140626,9.98136043548584,-0.6773215532302856,0.9366320967674255
1772789056893927000,16.609927001953125,9.990942001342773,-0.6581577062606812,0.9318411350250244
1772789056914025200,16.630025146484375,9.98136043548584,-0.667140781879425,0.9174683094024658
1772789056934123500,16.65012353515625,9.976569175720215,-0.6719317436218262,0.9366320967674255
1772789056954221800,16.670221923828127,9.986150741577148,-0.6815136671066284,0.9270501732826233
1772789056974320400,16.6903203125,9.986150741577148,-0.667140781879425,0.9264513254165649
1772789056994418700,16.710418701171875,10.000524520874023,-0.6719317436218262,0.9168694019317627
1772789057014517000,16.73051708984375,9.98136043548584,-0.6767227053642273,0.9216603636741638
1772789057034615300,16.750615234375,9.986150741577148,-0.695886492729187,0.9408242106437683
1772789057054713600,16.770713623046873,9.977168083190918,-0.6821125149726868,0.9468128681182861
1772789057074812200,16.790812255859375,9.990942001342773,-0.6581577062606812,0.9468128681182861
1772789057094910500,16.810910400390625,9.995733261108398,-0.6725305914878845,0.9228581190109253
1772789057115008800,16.8310087890625,9.990942001342773,-0.691694438457489,0.9276490807533264
1772789057135107300,16.851107421875,10.005314826965332,-0.6725305914878845,0.9324400424957275
1772789057155205600,16.87120556640625,10.005314826965332,-0.6821125149726868,0.9228581190109253
1772789057175303700,16.8913037109375,9.990942001342773,-0.6725305914878845,0.9372310042381287
1772789057195401700,16.911401611328124,9.981959342956543,-0.6677396297454834,0.9468128681182861
1772789057215499800,16.931499755859374,9.967586517333984,-0.6773215532302856,0.937829852104187
1772789057235597800,16.951597900390624,9.991540908813477,-0.6869034767150879,0.9330388903617859
1772789057255696100,16.971696044921874,9.990942001342773,-0.6719317436218262,0.95579594373703
1772789057275794200,16.991794189453124,9.986150741577148,-0.667140781879425,0.9414230585098267
1772789057295892200,17.011892333984374,9.995733261108398,-0.6815136671066284,0.9318411350250244
1772789057315990300,17.031990234375,9.98136043548584,-0.6623498201370239,0.9318411350250244
1772789057336088300,17.05208837890625,9.97177791595459,-0.667140781879425,0.9312422871589661
1772789057356186400,17.072186279296876,9.995733261108398,-0.6815136671066284,0.9360332489013672
1772789057376284400,17.092284423828126,9.995733261108398,-0.6575588583946228,0.9456151723861694
1772789057396382500,17.112382568359376,9.98136043548584,-0.6863046288490295,0.9312422871589661
1772789057416480500,17.13248046875,9.990942001342773,-0.6719317436218262,0.9456151723861694
1772789057436578600,17.15257861328125,9.990942001342773,-0.6767227053642273,0.9312422871589661
1772789057456676600,17.172676513671874,9.990942001342773,-0.6821125149726868,0.9324400424957275
1772789057476774700,17.192774658203124,9.986749649047852,-0.6821125149726868,0.9138750433921814
1772789057496872700,17.212872802734374,9.981959342956543,-0.6725305914878845,0.9234569668769836
1772789057516970800,17.232970703125,9.991540908813477,-0.6773215532302856,0.9522027373313904
1772789057537068800,17.25306884765625,9.972376823425293,-0.6539656519889832,0.9474117755889893
1772789057557167000,17.2731669921875,9.991540908813477,-0.6827113628387451,0.9426208138465881
1772789057577265200,17.29326513671875,9.986749649047852,-0.677920401096344,0.9330388903617859
1772789057617461200,17.333461181640626,9.996332168579102,-0.6731294989585876,0.9384286999702454
1772789057637559300,17.353559326171876,9.977168083190918,-0.6635475754737854,0.9432196617126465
1772789057657657300,17.3736572265625,9.986150741577148,-0.6863046288490295,0.9408242106437683
1772789057677755600,17.393755615234376,9.97177791595459,-0.6767227053642273,0.9264513254165649
1772789057697854200,17.413854248046874,9.976569175720215,-0.6719317436218262,0.9408242106437683
1772789057717953000,17.433953125,9.97177791595459,-0.6767227053642273,0.9456151723861694
1772789057738051600,17.454051513671875,9.986150741577148,-0.667140781879425,0.9408242106437683
1772789057758150100,17.474150146484376,9.99034309387207,-0.6767227053642273,0.9210615158081055
1772789057778248700,17.494248779296875,9.966987609863281,-0.6815136671066284,0.9402253031730652
1772789057798347300,17.51434716796875,9.995134353637695,-0.671332836151123,0.9498072266578674
1772789057818445800,17.53444580078125,9.98136043548584,-0.6569600105285645,0.9450162649154663
1772789057838544400,17.55454443359375,9.966987609863281,-0.6761237978935242,0.9354343414306641
1772789057858643200,17.574643310546875,9.98136043548584,-0.6767227053642273,0.9360332489013672
1772789057878741800,17.59474169921875,9.986150741577148,-0.6575588583946228,0.9360332489013672
1772789057898840300,17.61484033203125,9.97177791595459,-0.6527678966522217,0.9456151723861694
1772789057918939000,17.63493896484375,9.98136043548584,-0.667140781879425,0.9408242106437683
1772789057939037400,17.655037353515624,9.98136043548584,-0.6719317436218262,0.9264513254165649
1772789057959136000,17.675135986328126,9.995733261108398,-0.6815136671066284,0.9312422871589661
1772789057979234800,17.69523486328125,9.986150741577148,-0.6623498201370239,0.9360332489013672
1772789057999333400,17.71533349609375,9.986150741577148,-0.6623498201370239,0.9216603636741638
1772789058019432000,17.735431884765624,9.966987609863281,-0.667140781879425,0.9312422871589661
1772789058039530500,17.755530517578126,9.958003997802734,-0.6719317436218262,0.9312422871589661
1772789058059629000,17.775629150390625,9.98136043548584,-0.6767227053642273,0.9216603636741638
1772789058079727600,17.7957275390625,9.986150741577148,-0.667140781879425,0.9264513254165649
1772789058099826400,17.815826416015625,10.000524520874023,-0.6767227053642273,0.9408242106437683
1772789058119925000,17.835925048828123,9.995733261108398,-0.6910955309867859,0.9360332489013672
1772789058140023600,17.8560234375,9.97177791595459,-0.6815136671066284,0.9360332489013672
1772789058160122000,17.8761220703125,9.966987609863281,-0.6623498201370239,0.9408242106437683
1772789058180220400,17.896220458984374,9.98136043548584,-0.6767227053642273,0.9366320967674255
1772789058200319000,17.916319091796876,9.986150741577148,-0.6767227053642273,0.9318411350250244
1772789058220417300,17.936417236328126,9.98136043548584,-0.6623498201370239,0.9270501732826233
1772789058240515600,17.956515625,9.986150741577148,-0.667140781879425,0.9366320967674255
1772789058260614100,17.9766142578125,9.990942001342773,-0.6719317436218262,0.9360332489013672
1772789058280712400,17.99671240234375,9.990942001342773,-0.6719317436218262,0.9408242106437683
1772789058300810800,18.016810791015626,9.966987609863281,-0.6623498201370239,0.9456151723861694
1772789058320909300,18.036909423828124,9.976569175720215,-0.6623498201370239,0.9264513254165649
1772789058341007600,18.057007568359374,9.97177791595459,-0.667140781879425,0.9312422871589661
1772789058361106000,18.07710595703125,10.000524520874023,-0.6863046288490295,0.9360332489013672
1772789058381204500,18.09720458984375,9.986150741577148,-0.6575588583946228,0.9360332489013672
1772789058401302800,18.117302734375,9.97177791595459,-0.6863046288490295,0.9216603636741638
1772789058421401000,18.137401123046875,9.98136043548584,-0.6815136671066284,0.9216603636741638
1772789058441499600,18.157499755859376,9.990942001342773,-0.6767227053642273,0.9408242106437683
1772789058461598000,18.177597900390627,9.986150741577148,-0.667140781879425,0.9354343414306641
1772789058481696300,18.1976962890625,9.98136043548584,-0.667140781879425,0.9162705540657043
1772789058501794800,18.217794921875,9.985551834106445,-0.6761237978935242,0.9210615158081055
1772789058521893000,18.23789306640625,9.995134353637695,-0.6617509722709656,0.9258524775505066
1772789058541991400,18.257991455078123,9.976569175720215,-0.6521690487861633,0.9402253031730652
1772789058562090000,18.278090087890625,9.985551834106445,-0.6761237978935242,0.9354343414306641
1772789058582188300,18.298188232421875,9.97177791595459,-0.6761237978935242,0.9396264553070068
1772789058602286600,18.31828662109375,9.975970268249512,-0.671332836151123,0.9204626083374023
1772789058622385200,18.33838525390625,9.980761528015137,-0.671332836151123,0.9108807444572449
1772789058642483500,18.3584833984375,9.99992561340332,-0.6857057213783264,0.944417417049408
1772789058662581800,18.378581787109376,9.995134353637695,-0.6863046288490295,0.9258524775505066
1772789058682680600,18.3986806640625,9.976569175720215,-0.6815136671066284,0.9306434392929077
1772789058702779600,18.418779541015624,9.97177791595459,-0.6719317436218262,0.9402253031730652
1772789058722878500,18.43887841796875,9.976569175720215,-0.6719317436218262,0.9354343414306641
1772789058742977500,18.4589775390625,9.98136043548584,-0.6575588583946228,0.9114795923233032
1772789058763076400,18.479076416015626,9.976569175720215,-0.6815136671066284,0.9354343414306641
1772789058783175200,18.499175048828125,9.97177791595459,-0.667140781879425,0.9402253031730652
1772789058803274200,18.519274169921875,9.986150741577148,-0.6575588583946228,0.9258524775505066
1772789058823373000,18.539373046875,9.98136043548584,-0.667140781879425,0.9258524775505066
1772789058843472000,18.559471923828124,9.986150741577148,-0.6623498201370239,0.9545981884002686
1772789058863571000,18.579571044921874,9.966987609863281,-0.6761237978935242,0.9545981884002686
1772789058883669800,18.599669677734376,9.97177791595459,-0.6761237978935242,0.9258524775505066
1772789058903768600,18.6197685546875,9.980761528015137,-0.671332836151123,0.9258524775505066
1772789058923867600,18.63986767578125,9.980761528015137,-0.6665419340133667,0.9258524775505066
1772789058943966500,18.659966552734375,9.980761528015137,-0.6809147596359253,0.9258524775505066
1772789058964065300,18.680065185546876,9.995134353637695,-0.6904966831207275,0.9252535700798035
1772789058984164400,18.700164306640627,9.985551834106445,-0.6617509722709656,0.944417417049408
1772789059004263200,18.72026318359375,9.980761528015137,-0.6617509722709656,0.9396264553070068
1772789059024362000,18.740362060546875,9.947823524475098,-0.6761237978935242,0.9300445318222046
1772789059044461000,18.7604609375,9.962196350097656,-0.6761237978935242,0.9204626083374023
1772789059064559900,18.780559814453124,9.985551834106445,-0.671332836151123,0.9252535700798035
1772789059084658700,18.80065869140625,9.99992561340332,-0.6761237978935242,0.9348354935646057
1772789059104757800,18.8207578125,9.99034309387207,-0.6761237978935242,0.9300445318222046
1772789059124856600,18.840856689453126,9.985551834106445,-0.6809147596359253,0.9300445318222046
1772789059144955600,18.86095556640625,9.99034309387207,-0.6761237978935242,0.9204626083374023
1772789059165054500,18.881054443359375,9.99992561340332,-0.671332836151123,0.9492083787918091
1772789059185152000,18.901152099609376,9.975970268249512,-0.6521690487861633,0.9492083787918091
1772789059205249800,18.921249755859375,9.985551834106445,-0.6761237978935242,0.9252535700798035
1772789059225347300,18.941347412109376,9.99992561340332,-0.6904966831207275,0.9204626083374023
1772789059245444900,18.96144482421875,9.985551834106445,-0.6809147596359253,0.9300445318222046
1772789059265542400,18.98154248046875,9.980761528015137,-0.6809147596359253,0.9156716465950012
1772789059285640200,19.00164013671875,9.985551834106445,-0.6809147596359253,0.9300445318222046
1772789059305737700,19.02173779296875,9.99034309387207,-0.671332836151123,0.9252535700798035
1772789059345932800,19.061932861328124,9.966987609863281,-0.6665419340133667,0.9252535700798035
1772789059366030300,19.0820302734375,9.957405090332031,-0.671332836151123,0.9348354935646057
1772789059386128100,19.102128173828124,9.975970268249512,-0.6857057213783264,0.9300445318222046
1772789059406225700,19.1222255859375,9.975970268249512,-0.6952876448631287,0.9348354935646057
1772789059426323200,19.1423232421875,9.962196350097656,-0.671332836151123,0.9348354935646057
1772789059466518300,19.182518310546875,10.004117012023926,-0.6665419340133667,0.9246547222137451
1772789059486616000,19.202615966796873,9.966388702392578,-0.6898978352546692,0.9390276074409485
1772789059506713600,19.222713623046875,9.99034309387207,-0.6665419340133667,0.9342366456985474
1772789059526811100,19.24281103515625,9.985551834106445,-0.6569600105285645,0.9390276074409485
1772789059546908700,19.26290869140625,9.966388702392578,-0.6803159117698669,0.9486095309257507
1772789059567006200,19.283006103515625,9.966388702392578,-0.6803159117698669,0.9390276074409485
1772789059587104000,19.30310400390625,9.985551834106445,-0.6563611030578613,0.9342366456985474
1772789059607201500,19.323201416015625,9.99034309387207,-0.6851068735122681,0.9294456839561462
1772789059627299000,19.343299072265626,9.975970268249512,-0.6563611030578613,0.9390276074409485
1772789059647396600,19.363396728515625,9.975970268249512,-0.6563611030578613,0.9390276074409485
1772789059667494100,19.383494140625,9.985551834106445,-0.6665419340133667,0.9438185691833496
1772789059687591700,19.403591796875,9.985551834106445,-0.6707339882850647,0.919863760471344
1772789059707689200,19.423689208984374,9.99992561340332,-0.6707339882850647,0.919863760471344
1772789059727786800,19.443786865234376,9.985551834106445,-0.6569600105285645,0.919863760471344
1772789059747884000,19.463884033203126,9.971179008483887,-0.6659430265426636,0.9294456839561462
1772789059767981600,19.483981689453124,9.99034309387207,-0.6611520648002625,0.9246547222137451
1772789059788079000,19.5040791015625,9.975970268249512,-0.6707339882850647,0.919863760471344
1772789059808176600,19.5241767578125,9.971179008483887,-0.6755249500274658,0.9390276074409485
1772789059828274000,19.54427392578125,9.966388702392578,-0.6898978352546692,0.9342366456985474
1772789059848371500,19.564371337890623,9.99034309387207,-0.6611520648002625,0.9438185691833496
1772789059868469000,19.584468994140625,9.994535446166992,-0.6611520648002625,0.9144739508628845
1772789059888566500,19.60456640625,9.975970268249512,-0.6707339882850647,0.9288467764854431
1772789059908663800,19.624663818359377,9.980761528015137,-0.6611520648002625,0.9384286999702454
1772789059928761300,19.64476123046875,9.984953880310059,-0.6755249500274658,0.9336377382278442
1772789059948859000,19.66485888671875,9.989744186401367,-0.6755249500274658,0.9384286999702454
1772789059968956400,19.684956298828126,9.966388702392578,-0.6707339882850647,0.9192649126052856
1772789059989053700,19.7050537109375,9.984953880310059,-0.6611520648002625,0.9282479286193848
1772789060009151200,19.725151123046874,9.989744186401367,-0.6659430265426636,0.9282479286193848
1772789060029248800,19.745248779296876,9.966388702392578,-0.6611520648002625,0.937829852104187
1772789060049346000,19.765345947265626,9.989744186401367,-0.6755249500274658,0.9282479286193848
1772789060069443600,19.785443603515624,9.985551834106445,-0.6707339882850647,0.9390276074409485
1772789060089541000,19.805541015625,9.99034309387207,-0.6803159117698669,0.9294456839561462
1772789060109638700,19.825638671875,9.99034309387207,-0.6659430265426636,0.9390276074409485
1772789060129736000,19.84573583984375,9.980761528015137,-0.6707339882850647,0.9294456839561462
1772789060149833500,19.86583349609375,9.980761528015137,-0.6803159117698669,0.9342366456985474
1772789060169931300,19.88593115234375,9.985551834106445,-0.6755249500274658,0.9342366456985474
1772789060190030300,19.9060302734375,9.961597442626953,-0.6707339882850647,0.9438185691833496
1772789060210129700,19.926129638671874,9.956806182861328,-0.6755249500274658,0.9342366456985474
1772789060230228700,19.946228759765624,9.985551834106445,-0.671332836151123,0.9342366456985474
1772789060250327800,19.966327880859374,9.980761528015137,-0.6803159117698669,0.9384286999702454
1772789060270427100,19.98642724609375,9.971179008483887,-0.6611520648002625,0.9336377382278442
1772789060290526200,20.006526123046875,9.985551834106445,-0.6707339882850647,0.9288467764854431
1772789060310625500,20.02662548828125,9.989744186401367,-0.6515701413154602,0.9336377382278442
1772789060330724600,20.046724609375,9.985551834106445,-0.6515701413154602,0.9480106234550476
1772789060350824000,20.066823974609374,9.966388702392578,-0.6803159117698669,0.9336377382278442
1772789060370923000,20.086923095703124,9.971179008483887,-0.6755249500274658,0.9240558743476868
1772789060391022000,20.10702197265625,9.966388702392578,-0.6563611030578613,0.9288467764854431
1772789060411121400,20.127121337890625,9.980761528015137,-0.6851068735122681,0.9288467764854431
1772789060431220500,20.147220458984375,9.971179008483887,-0.6707339882850647,0.9336377382278442
1772789060451319600,20.167319580078125,9.980761528015137,-0.6707339882850647,0.9480106234550476
1772789060471419000,20.1874189453125,9.980761528015137,-0.6755249500274658,0.9480106234550476
1772789060491518000,20.20751806640625,9.975970268249512,-0.6707339882850647,0.9384286999702454
1772789060511617000,20.227616943359376,9.966388702392578,-0.6611520648002625,0.9240558743476868
1772789060531716400,20.24771630859375,9.975970268249512,-0.6755249500274658,0.937829852104187
1772789060551815400,20.2678154296875,9.971179008483887,-0.6707339882850647,0.9234569668769836
1772789060571914800,20.287914794921875,9.961597442626953,-0.6659430265426636,0.9330388903617859
1772789060592013800,20.308013916015625,9.984953880310059,-0.6611520648002625,0.937829852104187
1772789060612113200,20.328113037109375,9.994535446166992,-0.6803159117698669,0.9234569668769836
1772789060632212200,20.348212158203125,9.999326705932617,-0.6845079660415649,0.9330388903617859
1772789060652311300,20.368311279296876,9.984953880310059,-0.6611520648002625,0.9432196617126465
1772789060672410600,20.38841064453125,9.971179008483887,-0.6563611030578613,0.9240558743476868
1772789060692509700,20.408509765625,9.975970268249512,-0.6803159117698669,0.9240558743476868
1772789060712609000,20.428609130859375,9.984953880310059,-0.6851068735122681,0.9192649126052856
1772789060732708000,20.4487080078125,9.975970268249512,-0.6659430265426636,0.9336377382278442
1772789060752807400,20.468807373046875,9.989744186401367,-0.6707339882850647,0.9288467764854431
1772789060772906800,20.48890673828125,9.966388702392578,-0.6755249500274658,0.9336377382278442
1772789060793005800,20.509005859375,9.984953880310059,-0.6898978352546692,0.9384286999702454
1772789060813105200,20.529105224609374,9.975970268249512,-0.6611520648002625,0.9288467764854431
1772789060833204200,20.549204345703124,9.989744186401367,-0.6803159117698669,0.9192649126052856
1772789060853303600,20.569303466796875,9.970580101013184,-0.6797170639038086,0.9330388903617859
1772789060873403000,20.58940283203125,9.961597442626953,-0.6653441786766052,0.9420219659805298
1772789060893502000,20.609501953125,9.984953880310059,-0.6845079660415649,0.9324400424957275
1772789060913601300,20.629601318359374,9.989744186401367,-0.6749261021614075,0.9276490807533264
1772789060933700400,20.649700439453124,9.989744186401367,-0.6797170639038086,0.9276490807533264
1772789060953799700,20.669799560546874,9.984953880310059,-0.6701351404190063,0.9372310042381287
1772789060973899000,20.68989892578125,9.980162620544434,-0.6605532169342041,0.9324400424957275
1772789060993998000,20.709998046875,9.998727798461914,-0.655762255191803,0.9372310042381287
1772789061014097400,20.730097412109377,9.984953880310059,-0.6845079660415649,0.9228581190109253
1772789061034196500,20.750196533203123,9.975371360778809,-0.6605532169342041,0.9366320967674255
1772789061054295800,20.7702958984375,9.989744186401367,-0.6755249500274658,0.9282479286193848
1772789061074395100,20.79039501953125,9.980162620544434,-0.6707339882850647,0.9282479286193848
1772789061094494200,20.810494140625,9.980162620544434,-0.6994797587394714,0.937829852104187
1772789061114593500,20.830593505859376,9.980162620544434,-0.6898978352546692,0.9240558743476868
1772789061134692600,20.850692626953126,9.961597442626953,-0.6659430265426636,0.9384286999702454
1772789061154792000,20.8707919921875,9.956806182861328,-0.6659430265426636,0.9288467764854431
1772789061174890500,20.890890380859375,9.961597442626953,-0.6803159117698669,0.9240558743476868
1772789061194988000,20.910988037109377,9.984953880310059,-0.6611520648002625,0.9336377382278442
1772789061215085300,20.931085205078126,9.989744186401367,-0.6755249500274658,0.9240558743476868
1772789061235183000,20.95118310546875,9.971179008483887,-0.6707339882850647,0.9288467764854431
1772789061255280400,20.9712802734375,9.975371360778809,-0.6653441786766052,0.9186660051345825
1772789061275378000,20.9913779296875,9.980162620544434,-0.6605532169342041,0.9324400424957275
1772789061295475500,21.011475341796874,9.989744186401367,-0.6749261021614075,0.9324400424957275
1772789061315573000,21.031572998046876,9.970580101013184,-0.6797170639038086,0.913276195526123
1772789061335670500,21.05167041015625,9.980162620544434,-0.6653441786766052,0.913276195526123
1772789061355768000,21.07176806640625,9.989744186401367,-0.6605532169342041,0.9036942720413208
1772789061375865600,21.091865478515626,9.970580101013184,-0.6749261021614075,0.9228581190109253
1772789061395963100,21.111963134765624,9.980162620544434,-0.6892989277839661,0.9228581190109253
1772789061416060700,21.132060791015626,9.975371360778809,-0.6605532169342041,0.9324400424957275
1772789061436158200,21.152158203125,9.970580101013184,-0.6749261021614075,0.9228581190109253
1772789061456255700,21.172255859375,9.984953880310059,-0.6892989277839661,0.9180671572685242
1772789061476353300,21.192353271484375,9.984953880310059,-0.6653441786766052,0.9180671572685242
1772789061496450800,21.212450927734373,9.970580101013184,-0.6749261021614075,0.9180671572685242
1772789061516548000,21.232548095703127,9.970580101013184,-0.6749261021614075,0.9228581190109253
1772789061536645600,21.252645751953125,9.984953880310059,-0.6701351404190063,0.9324400424957275
1772789061556743200,21.2727431640625,9.999326705932617,-0.6797170639038086,0.9324400424957275
1772789061576840700,21.2928408203125,9.984953880310059,-0.6653441786766052,0.9276490807533264
1772789061596938200,21.312938232421875,9.975371360778809,-0.6509712934494019,0.9180671572685242
1772789061617035800,21.333035888671876,9.994535446166992,-0.655762255191803,0.9276490807533264
1772789061637133300,21.35313330078125,9.984953880310059,-0.6701351404190063,0.9180671572685242
1772789061657230800,21.37323095703125,10.003518104553223,-0.6653441786766052,0.9324400424957275
1772789061677329000,21.393328857421874,9.984953880310059,-0.6749261021614075,0.9180671572685242
1772789061697427500,21.413427490234376,9.975371360778809,-0.6653441786766052,0.9366320967674255
1772789061717525800,21.43352587890625,9.975371360778809,-0.6701351404190063,0.9318411350250244
1772789061737624300,21.453624267578125,9.980162620544434,-0.6653441786766052,0.9318411350250244
1772789061757723000,21.473722900390626,9.975371360778809,-0.6509712934494019,0.9366320967674255
1772789061777821200,21.4938212890625,9.965789794921875,-0.6701351404190063,0.9366320967674255
1772789061797919700,21.513919677734375,9.980162620544434,-0.6839091181755066,0.9222592115402222
1772789061818018000,21.53401806640625,9.984953880310059,-0.6695362329483032,0.9270501732826233
1772789061838116600,21.55411669921875,9.975371360778809,-0.6695362329483032,0.9366320967674255
1772789061858215200,21.574215087890625,9.965789794921875,-0.6653441786766052,0.9420219659805298
1772789061878313500,21.5943134765625,9.970580101013184,-0.6749261021614075,0.913276195526123
1772789061898412000,21.614412109375,9.984953880310059,-0.6797170639038086,0.9228581190109253
1772789061918510600,21.634510498046875,9.998727798461914,-0.6749261021614075,0.9276490807533264
1772789061938609000,21.65460888671875,9.970580101013184,-0.6749261021614075,0.9324400424957275
1772789061958707500,21.67470751953125,9.970580101013184,-0.655762255191803,0.9228581190109253
1772789061978805800,21.6948056640625,9.984953880310059,-0.6701351404190063,0.9276490807533264
1772789061998904300,21.714904296875,9.984953880310059,-0.6749261021614075,0.9180671572685242
1772789062019003000,21.7350029296875,10.003518104553223,-0.6653441786766052,0.9180671572685242
1772789062039101200,21.75510107421875,9.998727798461914,-0.6605532169342041,0.9414230585098267
1772789062059199700,21.77519970703125,9.965789794921875,-0.6701351404190063,0.9420219659805298
1772789062079298000,21.795298095703124,9.965789794921875,-0.6797170639038086,0.937829852104187
1772789062099396600,21.815396728515626,9.980162620544434,-0.6701351404190063,0.9330388903617859
1772789062119495200,21.8354951171875,9.975371360778809,-0.6749261021614075,0.9330388903617859
1772789062139593500,21.855593505859375,9.966388702392578,-0.6653441786766052,0.9282479286193848
1772789062159692000,21.875692138671877,9.989744186401367,-0.6701351404190063,0.9330388903617859
1772789062179790300,21.895790283203127,9.989744186401367,-0.6797170639038086,0.9330388903617859
1772789062199888600,21.915888671875,9.975371360778809,-0.6659430265426636,0.9234569668769836
1772789062219987000,21.935987060546875,9.984953880310059,-0.6707339882850647,0.9426208138465881
1772789062240085000,21.9560849609375,9.975371360778809,-0.6611520648002625,0.9186660051345825
1772789062260183300,21.976183349609375,9.970580101013184,-0.6749261021614075,0.9228581190109253
1772789062280281600,21.996281494140625,9.975371360778809,-0.6653441786766052,0.9276490807533264
1772789062300380000,22.0163798828125,9.998727798461914,-0.6605532169342041,0.9180671572685242
1772789062320478200,22.036478271484373,9.980162620544434,-0.6605532169342041,0.9372310042381287
1772789062340576300,22.056576171875,9.980162620544434,-0.6701351404190063,0.9414230585098267
1772789062360674600,22.076674560546873,10.003518104553223,-0.6749261021614075,0.9318411350250244
1772789062380772900,22.09677294921875,9.970580101013184,-0.6605532169342041,0.9366320967674255
1772789062400871200,22.11687109375,9.956207275390625,-0.6701351404190063,0.9318411350250244
1772789062420969500,22.136969482421875,9.975371360778809,-0.6749261021614075,0.9318411350250244
1772789062441067800,22.15706787109375,9.980162620544434,-0.6701351404190063,0.9366320967674255
1772789062461165800,22.177165771484376,9.984953880310059,-0.6797170639038086,0.9366320967674255
1772789062481264000,22.19726416015625,9.980162620544434,-0.6749261021614075,0.9270501732826233
1772789062501362400,22.217362548828124,9.970580101013184,-0.6653441786766052,0.9270501732826233
1772789062521460700,22.237460693359374,9.998727798461914,-0.6797170639038086,0.9270501732826233
1772789062541559000,22.25755908203125,9.984953880310059,-0.6749261021614075,0.9222592115402222
1772789062561657300,22.2776572265625,9.980162620544434,-0.6701351404190063,0.9270501732826233
1772789062581755400,22.29775537109375,9.984953880310059,-0.6701351404190063,0.9270501732826233
1772789062601853700,22.317853759765626,9.975371360778809,-0.6797170639038086,0.9318411350250244
1772789062621952000,22.337951904296876,9.965789794921875,-0.6701351404190063,0.9318411350250244
1772789062642050300,22.35805029296875,9.984953880310059,-0.6509712934494019,0.9318411350250244
1772789062662148600,22.378148681640624,9.969982147216797,-0.6647452712059021,0.9312422871589661
1772789062682247700,22.39824755859375,9.984354972839355,-0.6743271946907043,0.9306434392929077
1772789062702347300,22.41834716796875,9.993936538696289,-0.6695362329483032,0.9258524775505066
1772789062722446600,22.438446533203123,9.984354972839355,-0.6647452712059021,0.9210615158081055
1772789062742546200,22.458546142578125,9.974772453308105,-0.673728346824646,0.9162705540657043
1772789062782744800,22.498744873046874,9.993936538696289,-0.6689373850822449,0.9354343414306641
1772789062802844400,22.518844482421876,9.989145278930664,-0.6497735381126404,0.9348354935646057
1772789062822943700,22.53894384765625,9.993936538696289,-0.6593554615974426,0.9300445318222046
1772789062843043000,22.55904296875,9.974772453308105,-0.6593554615974426,0.9300445318222046
1772789062863142700,22.579142578125,9.96099853515625,-0.6551634073257446,0.9216603636741638
1772789062883242000,22.599241943359374,9.97956371307373,-0.6743271946907043,0.9312422871589661
1772789062903341600,22.619341552734376,9.975371360778809,-0.6839091181755066,0.9168694019317627
1772789062923441000,22.63944091796875,9.956207275390625,-0.6743271946907043,0.9264513254165649
1772789062943540200,22.659540283203125,9.984354972839355,-0.6791181564331055,0.9312422871589661
1772789062963639800,22.679639892578123,9.97956371307373,-0.6743271946907043,0.9408242106437683
1772789062983739100,22.6997392578125,9.984354972839355,-0.659954309463501,0.9312422871589661
1772789063003838700,22.719838623046876,9.993936538696289,-0.6743271946907043,0.9264513254165649
1772789063023938000,22.73993798828125,10.003518104553223,-0.6743271946907043,0.9360332489013672
1772789063044037400,22.760037353515624,9.993936538696289,-0.659954309463501,0.9264513254165649
1772789063064137000,22.780136962890627,10.003518104553223,-0.6743271946907043,0.9360332489013672
1772789063084236300,22.800236328125,9.970580101013184,-0.6695362329483032,0.9318411350250244
1772789063104335600,22.820335693359375,9.998727798461914,-0.6743271946907043,0.9270501732826233
1772789063124435200,22.840435302734374,9.984354972839355,-0.6551634073257446,0.9414230585098267
1772789063144534500,22.860534423828124,9.970580101013184,-0.6647452712059021,0.9318411350250244
1772789063164634000,22.880634033203126,9.984953880310059,-0.6647452712059021,0.9462140202522278
1772789063184732200,22.900732177734376,9.975371360778809,-0.6743271946907043,0.9318411350250244
1772789063204830500,22.92083056640625,9.980162620544434,-0.6647452712059021,0.9318411350250244
1772789063224928500,22.940928466796876,9.984953880310059,-0.6695362329483032,0.9414230585098267
1772789063245026800,22.96102685546875,9.989145278930664,-0.6791181564331055,0.9318411350250244
1772789063265124900,22.981124755859376,9.989145278930664,-0.6695362329483032,0.9120784401893616
1772789063285223000,23.001222900390626,10.003518104553223,-0.6647452712059021,0.9312422871589661
1772789063305321200,23.0213212890625,9.998727798461914,-0.6695362329483032,0.9216603636741638
1772789063325419300,23.041419189453126,9.998727798461914,-0.6791181564331055,0.9168694019317627
1772789063345517600,23.061517578125,9.989145278930664,-0.6743271946907043,0.9264513254165649
1772789063365615600,23.08161572265625,10.003518104553223,-0.6647452712059021,0.9216603636741638
1772789063385714000,23.1017138671875,9.993936538696289,-0.6503724455833435,0.9408242106437683
1772789063405812000,23.12181201171875,9.989145278930664,-0.6551634073257446,0.9312422871589661
1772789063425910000,23.141909912109377,9.989145278930664,-0.6743271946907043,0.9402253031730652
1772789063446008300,23.16200830078125,9.984354972839355,-0.6695362329483032,0.9402253031730652
1772789063466106400,23.1821064453125,9.993936538696289,-0.6743271946907043,0.9456151723861694
1772789063486204700,23.20220458984375,9.984354972839355,-0.6791181564331055,0.9216603636741638
1772789063506302700,23.222302734375,9.97956371307373,-0.6839091181755066,0.9264513254165649
1772789063526401000,23.242401123046875,9.993936538696289,-0.659954309463501,0.9216603636741638
1772789063546499000,23.2624990234375,9.989145278930664,-0.659954309463501,0.9360332489013672
1772789063566597000,23.28259716796875,9.975371360778809,-0.6647452712059021,0.9360332489013672
1772789063586695400,23.3026953125,9.993936538696289,-0.6839091181755066,0.9360332489013672
1772789063606793500,23.32279345703125,9.989145278930664,-0.6647452712059021,0.9174683094024658
1772789063626891800,23.342891845703125,9.975371360778809,-0.6791181564331055,0.9222592115402222
1772789063646989800,23.36298974609375,9.984354972839355,-0.6695362329483032,0.9360332489013672
1772789063667088000,23.383087890625,9.984354972839355,-0.6647452712059021,0.9216603636741638
1772789063687186400,23.4031865234375,9.984354972839355,-0.659954309463501,0.9264513254165649
1772789063707284700,23.42328466796875,9.974772453308105,-0.6647452712059021,0.9168694019317627
1772789063727383000,23.443383056640624,9.974772453308105,-0.659954309463501,0.9216603636741638
1772789063747481300,23.4634814453125,9.989145278930664,-0.6743271946907043,0.9450162649154663
1772789063767579600,23.48357958984375,9.974772453308105,-0.6695362329483032,0.9258524775505066
1772789063787678000,23.503677978515626,9.989145278930664,-0.6743271946907043,0.9306434392929077
1772789063807776300,23.5237763671875,9.969982147216797,-0.6743271946907043,0.9306434392929077
1772789063827874600,23.54387451171875,9.974772453308105,-0.6695362329483032,0.9258524775505066
1772789063847972900,23.563972900390624,9.965190887451172,-0.6647452712059021,0.9162705540657043
1772789063868071200,23.5840712890625,9.989145278930664,-0.6647452712059021,0.9114795923233032
1772789063888169500,23.60416943359375,9.97956371307373,-0.6743271946907043,0.9162705540657043
1772789063908268000,23.62426806640625,9.97956371307373,-0.6695362329483032,0.9258524775505066
1772789063928366300,23.644366455078124,9.984354972839355,-0.6743271946907043,0.9258524775505066
1772789063948464600,23.664464599609374,9.965190887451172,-0.6695362329483032,0.9258524775505066
1772789063968563000,23.68456298828125,9.984354972839355,-0.6785193085670471,0.9258524775505066
1772789063988661200,23.7046611328125,9.97956371307373,-0.6647452712059021,0.9162705540657043
1772789064008759600,23.724759521484376,9.974772453308105,-0.6455814838409424,0.9210615158081055
1772789064028857900,23.74485791015625,9.974772453308105,-0.6689373850822449,0.9258524775505066
1772789064048956200,23.7649560546875,9.974772453308105,-0.6689373850822449,0.9354343414306641
1772789064069054700,23.7850546875,10.003518104553223,-0.6791181564331055,0.9222592115402222
1772789064089152800,23.80515283203125,9.993936538696289,-0.6743271946907043,0.9222592115402222
1772789064109251300,23.825251220703127,9.989145278930664,-0.6839091181755066,0.9414230585098267
1772789064129349600,23.845349609375,9.96099853515625,-0.6791181564331055,0.9318411350250244
1772789064149448000,23.865447998046875,9.970580101013184,-0.6605532169342041,0.9366320967674255
1772789064169546500,23.88554638671875,9.984953880310059,-0.6509712934494019,0.9318411350250244
1772789064189646000,23.90564599609375,9.998727798461914,-0.6845079660415649,0.9414230585098267
1772789064209746000,23.925745849609374,9.984953880310059,-0.6605532169342041,0.9318411350250244
1772789064229845500,23.945845458984376,9.956207275390625,-0.6605532169342041,0.9228581190109253
1772789064249945300,23.9659453125,9.969982147216797,-0.6833102703094482,0.9396264553070068
1772789064270045000,23.986044921875,9.988546371459961,-0.6689373850822449,0.9204626083374023
1772789064290144800,24.006144775390624,9.993337631225586,-0.6689373850822449,0.9246547222137451
1772789064310244400,24.026244384765626,10.00291919708252,-0.6731294989585876,0.919863760471344
1772789064330344200,24.04634423828125,9.965190887451172,-0.6731294989585876,0.9246547222137451
1772789064350443800,24.06644384765625,9.960399627685547,-0.6587566137313843,0.9246547222137451
1772789064370543400,24.08654345703125,9.988546371459961,-0.6587566137313843,0.9384286999702454
1772789064390643200,24.106643310546875,9.988546371459961,-0.6683385372161865,0.9240558743476868
1772789064410742800,24.12674267578125,9.988546371459961,-0.6731294989585876,0.9240558743476868
1772789064430842600,24.146842529296876,9.974173545837402,-0.677920401096344,0.9288467764854431
1772789064450942200,24.166942138671875,9.989145278930664,-0.673728346824646,0.9402253031730652
1772789064471042000,24.1870419921875,9.969982147216797,-0.673728346824646,0.9450162649154663
1772789064491141600,24.2071416015625,9.974772453308105,-0.6833102703094482,0.9306434392929077
1772789064511241500,24.227241455078126,9.969982147216797,-0.6833102703094482,0.9210615158081055
1772789064531341000,24.247341064453124,9.956207275390625,-0.6689373850822449,0.9210615158081055
1772789064551440600,24.267440673828126,9.96099853515625,-0.659954309463501,0.9354343414306641
1772789064571540500,24.28754052734375,9.969982147216797,-0.6647452712059021,0.9162705540657043
1772789064591640000,24.30764013671875,9.989145278930664,-0.6928921937942505,0.9306434392929077
1772789064611740000,24.327739990234374,9.97956371307373,-0.6887000799179077,0.9402253031730652
1772789064631839500,24.347839599609376,9.989145278930664,-0.6743271946907043,0.9354343414306641
1772789064651939300,24.367939208984374,9.97956371307373,-0.6641464233398438,0.9252535700798035
1772789064672038400,24.388038330078125,9.974772453308105,-0.6593554615974426,0.944417417049408
1772789064692136200,24.40813623046875,9.988546371459961,-0.673728346824646,0.9396264553070068
1772789064712234200,24.428234130859376,9.969982147216797,-0.6833102703094482,0.9252535700798035
1772789064732332000,24.44833203125,9.974772453308105,-0.6641464233398438,0.9252535700798035
1772789064752430000,24.46843017578125,9.974772453308105,-0.6689373850822449,0.9252535700798035
1772789064772527900,24.48852783203125,9.974772453308105,-0.6641464233398438,0.9252535700798035
1772789064792626000,24.5086259765625,9.988546371459961,-0.6593554615974426,0.9348354935646057
1772789064812723700,24.5287236328125,9.988546371459961,-0.6641464233398438,0.9252535700798035
1772789064832821800,24.54882177734375,10.007710456848145,-0.6689373850822449,0.9060897827148438
1772789064852919600,24.56891943359375,9.998128890991211,-0.673728346824646,0.9066886305809021
1772789064873017600,24.589017578125,9.989145278930664,-0.6545644998550415,0.9306434392929077
1772789064893115400,24.609115478515626,9.97956371307373,-0.673728346824646,0.9306434392929077
1772789064913213400,24.62921337890625,9.974772453308105,-0.673728346824646,0.9306434392929077
1772789064933311500,24.6493115234375,9.960399627685547,-0.673728346824646,0.9402253031730652
1772789064953409300,24.6694091796875,9.989145278930664,-0.6689373850822449,0.9354343414306641
1772789064973507300,24.68950732421875,9.984354972839355,-0.6641464233398438,0.9306434392929077
1772789064993605000,24.709605224609376,9.974772453308105,-0.6833102703094482,0.9402253031730652
1772789065013703000,24.729702880859374,9.974772453308105,-0.6785193085670471,0.9306434392929077
1772789065033801000,24.749801025390624,9.989145278930664,-0.6785193085670471,0.9354343414306641
1772789065053899000,24.76989892578125,9.965190887451172,-0.6785193085670471,0.9294456839561462
1772789065073996800,24.789996826171876,9.97956371307373,-0.6833102703094482,0.9342366456985474
1772789065094094800,24.8100947265625,9.974772453308105,-0.6875023245811462,0.9390276074409485
1772789065114192600,24.830192626953124,9.978964805603027,-0.6731294989585876,0.9246547222137451
1772789065134290700,24.850290771484374,9.974772453308105,-0.6827113628387451,0.919863760471344
1772789065154388500,24.870388427734376,9.983756065368652,-0.6827113628387451,0.919863760471344
1772789065174486300,24.890486328125,9.983756065368652,-0.6827113628387451,0.9246547222137451
1772789065194584300,24.910584228515624,9.983756065368652,-0.6731294989585876,0.9342366456985474
1772789065214682000,24.93068212890625,9.993337631225586,-0.6731294989585876,0.9246547222137451
1772789065234780000,24.95077978515625,9.978964805603027,-0.6683385372161865,0.919863760471344
1772789065254878000,24.9708779296875,9.969982147216797,-0.6641464233398438,0.9348354935646057
1772789065274975700,24.990975830078124,9.97956371307373,-0.673728346824646,0.9492083787918091
1772789065295073500,25.011073486328126,9.97956371307373,-0.6593554615974426,0.9396264553070068
1772789065315171300,25.03117138671875,9.97956371307373,-0.6833102703094482,0.9300445318222046
1772789065335269000,25.05126904296875,9.984354972839355,-0.673728346824646,0.9396264553070068
1772789065355367200,25.0713671875,9.97956371307373,-0.6641464233398438,0.9204626083374023
1772789065375465000,25.09146484375,9.969982147216797,-0.673728346824646,0.9300445318222046
1772789065395562800,25.111562744140624,9.998128890991211,-0.6881012320518494,0.9396264553070068
1772789065415660500,25.13166064453125,10.007710456848145,-0.6689373850822449,0.9348354935646057
1772789065435758600,25.151758544921876,9.989145278930664,-0.6833102703094482,0.9156716465950012
1772789065455856400,25.1718564453125,9.988546371459961,-0.6833102703094482,0.9252535700798035
1772789065475954200,25.1919541015625,9.993337631225586,-0.6689373850822449,0.9204626083374023
1772789065496052200,25.21205224609375,9.960399627685547,-0.6689373850822449,0.9300445318222046
1772789065516150000,25.23214990234375,9.974772453308105,-0.6689373850822449,0.9348354935646057
1772789065536247800,25.252247802734374,9.97956371307373,-0.6689373850822449,0.9252535700798035
1772789065556345600,25.272345703125,9.984354972839355,-0.6545644998550415,0.9396264553070068
1772789065576443400,25.292443359375,9.974772453308105,-0.6497735381126404,0.944417417049408
1772789065596541400,25.31254150390625,9.993337631225586,-0.6641464233398438,0.944417417049408
1772789065616639200,25.33263916015625,9.974772453308105,-0.6689373850822449,0.9396264553070068
1772789065636737000,25.352737060546875,9.974772453308105,-0.6593554615974426,0.9204626083374023
1772789065656834800,25.372834716796874,9.974772453308105,-0.6785193085670471,0.9156716465950012
1772789065676933000,25.39293310546875,9.969982147216797,-0.6785193085670471,0.9300445318222046
1772789065697031400,25.413031494140625,9.960399627685547,-0.6881012320518494,0.9300445318222046
1772789065717129700,25.433129638671875,9.969982147216797,-0.6689373850822449,0.9300445318222046
1772789065737228000,25.45322802734375,9.969982147216797,-0.6689373850822449,0.9252535700798035
1772789065757326300,25.473326416015624,9.969982147216797,-0.6497735381126404,0.9396264553070068
1772789065777424600,25.493424560546874,9.974772453308105,-0.6689373850822449,0.9396264553070068
1772789065797523200,25.513523193359376,9.988546371459961,-0.6785193085670471,0.9348354935646057
1772789065817621500,25.53362158203125,9.974772453308105,-0.6593554615974426,0.9348354935646057
1772789065837719800,25.5537197265625,9.97956371307373,-0.6785193085670471,0.9539993405342102
1772789065857818000,25.573818115234374,9.988546371459961,-0.673728346824646,0.9204626083374023
1772789065877916400,25.59391650390625,9.988546371459961,-0.6545644998550415,0.9348354935646057
1772789065898014700,25.6140146484375,9.97956371307373,-0.6641464233398438,0.9348354935646057
1772789065918113000,25.634113037109376,9.983756065368652,-0.673728346824646,0.9204626083374023
1772789065938211300,25.65421142578125,9.97956371307373,-0.6833102703094482,0.9294456839561462
1772789065958309600,25.6743095703125,9.988546371459961,-0.6833102703094482,0.9246547222137451
1772789065978408200,25.694408203125,9.969982147216797,-0.673728346824646,0.9294456839561462
1772789065998506500,25.714506591796876,9.969982147216797,-0.6785193085670471,0.9246547222137451
1772789066018604800,25.734604736328127,9.983756065368652,-0.6641464233398438,0.9246547222137451
1772789066038703000,25.754703125,9.97956371307373,-0.6641464233398438,0.9294456839561462
1772789066058801400,25.774801513671875,9.974772453308105,-0.6593554615974426,0.9246547222137451
1772789066078899700,25.794899658203125,9.965190887451172,-0.6689373850822449,0.919863760471344
1772789066098998000,25.814998046875,9.969982147216797,-0.6785193085670471,0.9246547222137451
1772789066119096600,25.8350966796875,9.97956371307373,-0.6827113628387451,0.9246547222137451
1772789066139195000,25.85519482421875,9.998128890991211,-0.677920401096344,0.919863760471344
1772789066159293200,25.875293212890625,9.969982147216797,-0.6641464233398438,0.9342366456985474
1772789066179392300,25.895392333984375,9.974772453308105,-0.6827113628387451,0.9390276074409485
1772789066199491800,25.915491943359374,9.978964805603027,-0.6593554615974426,0.9150727987289429
1772789066219591200,25.935591064453124,9.965190887451172,-0.6641464233398438,0.9342366456985474
1772789066239690800,25.955690673828126,9.974772453308105,-0.6731294989585876,0.9246547222137451
1772789066259790300,25.975790283203125,9.978964805603027,-0.6731294989585876,0.9102818369865417
1772789066279889700,25.9958896484375,9.993337631225586,-0.6683385372161865,0.9150727987289429
1772789066299989200,26.0159892578125,9.965190887451172,-0.677920401096344,0.9288467764854431
1772789066320088800,26.0360888671875,9.974173545837402,-0.6635475754737854,0.9192649126052856
1772789066340188200,26.056188232421874,9.978964805603027,-0.6731294989585876,0.9336377382278442
1772789066360287700,26.076287841796876,9.978964805603027,-0.6827113628387451,0.9528015851974487
1772789066380387000,26.096386962890627,9.983756065368652,-0.6827113628387451,0.9336377382278442
1772789066400486700,26.116486572265625,10.00291919708252,-0.649174690246582,0.9192649126052856
1772789066420586000,26.1365859375,9.978964805603027,-0.677920401096344,0.9240558743476868
1772789066440685600,26.156685546875,9.974173545837402,-0.6731294989585876,0.9336377382278442
1772789066460785200,26.17678515625,9.978964805603027,-0.6683385372161865,0.9342366456985474
1772789066480884500,26.196884521484375,9.983756065368652,-0.6731294989585876,0.9246547222137451
1772789066500984000,26.216984130859377,9.960399627685547,-0.6587566137313843,0.9294456839561462
1772789066521083600,26.237083740234375,9.983756065368652,-0.6635475754737854,0.9342366456985474
1772789066541183000,26.257182861328126,9.993337631225586,-0.6635475754737854,0.9246547222137451
1772789066561282600,26.277282470703124,9.983756065368652,-0.677920401096344,0.9294456839561462
1772789066581382000,26.2973818359375,9.988546371459961,-0.6683385372161865,0.9246547222137451
1772789066601481500,26.3174814453125,9.974173545837402,-0.649174690246582,0.9294456839561462
1772789066621581000,26.3375810546875,9.969982147216797,-0.6731294989585876,0.9246547222137451
1772789066641680400,26.357680419921873,9.988546371459961,-0.6635475754737854,0.9246547222137451
1772789066661780000,26.377780029296876,9.969383239746094,-0.6539656519889832,0.9432196617126465
1772789066681879300,26.39787939453125,9.969383239746094,-0.6683385372161865,0.9288467764854431
1772789066701978600,26.417978515625,9.993337631225586,-0.6827113628387451,0.9192649126052856
1772789066722078000,26.438077880859375,9.993337631225586,-0.6683385372161865,0.9240558743476868
1772789066742177000,26.458177001953125,9.978964805603027,-0.6635475754737854,0.9336377382278442
1772789066762276400,26.4782763671875,9.978964805603027,-0.6587566137313843,0.9384286999702454
1772789066782375700,26.498375732421874,9.988546371459961,-0.677920401096344,0.9336377382278442
1772789066822574300,26.53857421875,9.969383239746094,-0.6731294989585876,0.9144739508628845
1772789066842673700,26.558673583984376,9.964591979980469,-0.6875023245811462,0.9384286999702454
1772789066862773000,26.57877294921875,9.965190887451172,-0.677920401096344,0.9294456839561462
1772789066882872300,26.598872314453125,9.988546371459961,-0.6827113628387451,0.919863760471344
1772789066902971600,26.6189716796875,9.993337631225586,-0.6731294989585876,0.9246547222137451
1772789066943170000,26.659170166015624,9.983756065368652,-0.6731294989585876,0.9294456839561462
1772789066963269400,26.679269287109374,9.965190887451172,-0.6683385372161865,0.9294456839561462
1772789066983368700,26.69936865234375,9.998128890991211,-0.6731294989585876,0.9294456839561462
1772789067023567400,26.7395673828125,9.974173545837402,-0.6635475754737854,0.9246547222137451
1772789067043666700,26.759666748046875,9.998128890991211,-0.6683385372161865,0.9438185691833496
1772789067063766000,26.77976611328125,9.974772453308105,-0.6683385372161865,0.9150727987289429
1772789067103964700,26.819964599609374,9.983756065368652,-0.6731294989585876,0.919863760471344
1772789067144163000,26.8601630859375,9.969982147216797,-0.6593554615974426,0.9294456839561462
1772789067184360700,26.900360595703123,9.97956371307373,-0.6689373850822449,0.9294456839561462
1772789067224557300,26.940557373046875,9.974772453308105,-0.6689373850822449,0.9204626083374023
1772789067264753700,26.980753662109375,9.965190887451172,-0.677920401096344,0.9342366456985474
1772789067304950300,27.0209501953125,9.993337631225586,-0.6731294989585876,0.9246547222137451
1772789067345147000,27.06114697265625,9.988546371459961,-0.6731294989585876,0.919863760471344
1772789067365245000,27.081244873046874,9.965190887451172,-0.677920401096344,0.9246547222137451
1772789067385343200,27.10134326171875,9.978964805603027,-0.6683385372161865,0.9390276074409485
1772789067405441500,27.121441650390626,9.983756065368652,-0.6731294989585876,0.9294456839561462
1772789067425539800,27.141539794921876,9.993337631225586,-0.6635475754737854,0.9240558743476868
1772789067445638100,27.16163818359375,9.974173545837402,-0.6683385372161865,0.9240558743476868
1772789067465736200,27.181736083984376,9.974173545837402,-0.6635475754737854,0.9192649126052856
1772789067485834500,27.20183447265625,9.974173545837402,-0.677920401096344,0.9336377382278442
1772789067505932800,27.221932861328124,9.974173545837402,-0.6875023245811462,0.9288467764854431
1772789067526031000,27.242031005859374,9.993337631225586,-0.6683385372161865,0.9384286999702454
1772789067546129400,27.26212939453125,9.978964805603027,-0.6635475754737854,0.9426208138465881
1772789067566227500,27.2822275390625,9.998128890991211,-0.6731294989585876,0.9282479286193848
1772789067586325800,27.30232568359375,9.997529983520508,-0.6821125149726868,0.9234569668769836
1772789067606424000,27.322424072265626,9.959800720214844,-0.6821125149726868,0.9282479286193848
1772789067626522400,27.3425224609375,9.983756065368652,-0.6677396297454834,0.9330388903617859
