time,seconds_elapsed,z,y,x
1772790211533779700,0.07977978515625,-0.663179246816039,0.692771252003312,-0.4399974642220884
1772790211553814500,0.099814453125,0.2866547953993082,1.2358996395498514,-0.7600120198443532
1772790211573849600,0.119849609375,0.9115811761885881,1.3852899905502796,-1.395438459599018
1772790211593884400,0.139884521484375,0.6019675300061702,0.8766735289365053,-1.2991150973975658
1772790211613919500,0.15991943359375,-0.06699205377697945,0.38527415958344935,-0.37917814426328983
1772790211633955000,0.179955078125,0.29159926606416703,0.4978711957156658,-0.9678593821190297
1772790211653990100,0.199990234375,0.027560207098722457,0.7258563600033521,-1.590505104625225
1772790211674025000,0.22002490234375,0.10051847580373287,0.987155180349946,-1.7164974827729165
1772790211694060000,0.24006005859375,0.4147849162280559,0.5802899512052536,-1.6427273131631315
1772790211714095000,0.26009521484375,0.6034399406462907,0.4713847553282976,-1.5203810364328323
1772790211734131200,0.280131103515625,0.8322042726129293,0.36992110762894154,-1.1610018541496245
1772790211754166000,0.300166015625,1.1106044498860836,0.28969138661623,-1.003026776285842
1772790211774201000,0.320201171875,1.6970488320678472,0.38498949742317196,-1.267181789781153
1772790211794236200,0.340236083984375,2.717628727635741,0.7773632598787545,-1.4177921840958296
1772790211814271000,0.36027099609375,4.150740792068839,0.9082873953402042,-1.3256877547636627
1772790211834307000,0.38030712890625,5.359560116991401,0.9050099811047315,-1.0376930890627205
1772790211854342000,0.400341796875,5.388855769580602,0.45995326073169707,-1.8599188423663378
1772790211874377000,0.420376953125,3.88738094753921,0.35452187844514843,-2.4197882290944457
1772790211894412000,0.440412109375,0.24864450595676899,2.277908692115545,-1.118438504512608
1772790211914447000,0.460447021484375,-1.8325801690638064,2.5466589975118636,0.43979310075640676
1772790211934483000,0.48048291015625,1.1402502310872078,3.412800903300941,0.11995733576714991
1772790211954518000,0.50051806640625,0.9241033886313438,2.6267589546650645,-0.24759178203344342
1772790211974553000,0.520552978515625,1.874180007430911,0.8986091741517186,1.0374836840957402
1772790211994588200,0.540588134765625,3.597835106873512,1.2001271921619772,2.2137556611567732
1772790212014623200,0.560623291015625,4.581689492112398,2.0586945710435507,0.5856307277113199
1772790212034658000,0.580657958984375,2.3561820183634756,3.5302994477391243,0.4143541235953569
1772790212054694100,0.600694091796875,0.014336568388342857,4.080727052383125,0.3070762366592884
1772790212074729000,0.62072900390625,1.4088015067800879,5.02121195923388,-1.7862725913971662
1772790212094764000,0.640763916015625,0.3129632488712668,6.183575822451711,-4.1252714197695255
1772790212114799000,0.660799072265625,0.796441469836235,8.180988241797685,-4.924551912423968
1772790212134834200,0.680834228515625,0.10501337607018649,9.224874778673053,-7.19769149044156
1772790212154870000,0.7008701171875,-0.24858956089913845,9.087843558508157,-6.8928393595725295
1772790212174905000,0.720905029296875,-0.07968202400207519,9.165134887981415,-5.2477013320058585
1772790212194940200,0.740940185546875,-0.844081172889471,9.529834461569786,-4.039903751346468
1772790212214975200,0.760975341796875,-1.7330056961119173,10.36560957840681,-2.134251331809163
1772790212235010000,0.781010009765625,-2.1033657796800136,11.473750853049754,0.9714753806591033
1772790212255046100,0.801046142578125,-1.9909661658160387,12.211440858709812,4.942071202501654
1772790212275081200,0.821081298828125,-1.4137632208406925,13.76146899151802,8.369962999689578
1772790212295116000,0.841115966796875,-1.2396189523339272,12.875406287467479,10.301270084965228
1772790212315151000,0.861151123046875,-0.3780092831470072,10.0957592028141,11.471973906505108
1772790212335186000,0.88118603515625,1.015803182685375,6.078038641703128,12.161866388201712
1772790212355221000,0.901220947265625,2.1412381219565866,2.0407593936413524,12.648735712909698
1772790212375257000,0.921257080078125,2.685184840148687,-1.1554600751787423,13.40042267974019
1772790212395292200,0.941292236328125,3.02134688603878,-3.4760254212379453,12.821383605378866
1772790212415327000,0.961326904296875,3.0284125866413114,-4.704024662926793,10.86315577995181
1772790212435362000,0.981362060546875,2.792988796785474,-4.502922829389572,8.987140373787284
1772790212455397000,1.001397216796875,2.7389725444376465,-3.946757850137353,7.657599158465862
1772790212475432200,1.02143212890625,2.267520569092035,-2.5234376964002845,6.4308636531025165
1772790212495468000,1.041468017578125,1.1355261251747608,-0.9805471603870392,4.681475854249299
1772790212515503000,1.061503173828125,0.6133060856223106,-0.41715106083750725,3.017686025443673
1772790212535538000,1.081537841796875,0.30595278558731076,-0.006073182433843612,1.6929992644160985
1772790212555573000,1.101572998046875,-0.4143242399137467,-0.37144612523913384,0.084611589358747
1772790212575608000,1.121608154296875,-0.6405342112224549,-1.1733750865757464,-0.48577334616482254
1772790212595644000,1.141643798828125,-0.6076536858838051,-1.5340274305999277,-0.8487392278283834
1772790212615679000,1.161678955078125,-1.1540531309902666,-1.8455244063109157,-1.069222930444777
1772790212635714300,1.18171435546875,-1.1277532261509449,-1.959140264096856,-0.7217915947824716
1772790212655749400,1.201749267578125,-0.8139126829884946,-1.6089654749453066,-0.3473670382544398
1772790212675784400,1.221784423828125,-0.5421114655889571,-0.9734674312591552,0.03710340373069048
1772790212695819300,1.2418193359375,-0.6436277202583849,-0.29703064346313474,0.637220337434113
1772790212715855400,1.26185546875,-0.38173122627958656,0.09584288520812988,1.8686212042599915
1772790212735890400,1.281890380859375,0.21902152110934256,-0.01570318056643009,3.588933423015475
1772790212755925500,1.301925537109375,1.4414787646315992,-0.1834352439433336,5.463159023153781
1772790212775960300,1.321960205078125,2.818626511389017,0.04351999277472496,6.436293276935816
1772790212795995100,1.3419951171875,4.355719174778462,0.23945640637278556,6.495477871832251
1772790212816030200,1.3620302734375,5.567337190508842,-0.1977747349411249,6.1630444910764695
1772790212836066300,1.38206640625,5.673287628233433,-0.7389683550328016,5.868612631934881
1772790212856101400,1.402101318359375,4.483826499253511,-1.549196942681074,5.175174440455437
1772790212876136200,1.42213623046875,3.3196669847905635,-1.3927946670919655,4.318881728507578
1772790212896171300,1.442171142578125,2.1807516555689275,-1.097324697074294,3.4634313126027583
1772790212916206300,1.462206298828125,1.1315500611506402,-0.3546984040558338,2.887245874106884
1772790212936241400,1.482241455078125,0.1225441373899579,0.10039338811933994,2.091255070647597
1772790212956277200,1.50227734375,-0.49823827546238897,-0.01550327408015728,1.1564333041250705
1772790212976312300,1.522312255859375,-0.9758381059132516,-0.7077718372583389,0.541390603968501
1772790212996347400,1.542347412109375,-1.1121101782739162,-1.039873209580779,-0.006106500181555748
1772790213016382200,1.56238232421875,-1.1184382122516632,-0.8721779710829257,-0.696838939833641
1772790213036417300,1.582417236328125,-1.4241735556960105,-0.3185550775289535,-1.0878238782793284
1772790213056452400,1.602452392578125,-1.9346258544348178,0.24580314505100248,-1.148811723205447
1772790213076487400,1.6224873046875,-2.3401789780676365,0.7012000576525926,-0.75635320507586
1772790213096523300,1.642523193359375,-2.6251333992898465,1.242427580013871,-0.24653204384744165
1772790213116558300,1.662558349609375,-2.8157857350051403,1.5772200911164282,0.2520493459641933
1772790213136593400,1.682593505859375,-2.7155297095298767,1.8462164802283048,0.7549772405475378
1772790213156628500,1.70262841796875,-2.6839091211244464,1.7972598493576049,1.194474573227763
1772790213176663300,1.722663330078125,-2.6255001867756245,1.3714905977785588,1.5499983221918343
1772790213196698400,1.742698486328125,-2.9155814494922754,0.929714798772335,2.0081290436714885
1772790213216734500,1.762734375,-3.303005772846937,0.4509674057215452,2.265526764926314
1772790213236769300,1.782769287109375,-3.6389354712858792,-0.012688801181316375,2.2616864561110734
1772790213256804400,1.802804443359375,-3.5482322870537635,-0.1938052467882633,2.365545474514365
1772790213276839200,1.822839111328125,-3.383712171460688,-0.29557050778269767,1.9440631064742802
1772790213296874200,1.842874267578125,-3.2249247543007136,0.09561667523682117,1.6038538310199975
1772790213316909300,1.862909423828125,-2.850674969817698,0.6885363909125327,0.8575777833223343
1772790213336945400,1.8829453125,-2.5914436033949255,1.0027420410603285,-0.06833996125459671
1772790213356980200,1.902980224609375,-2.3970365913212297,1.7036615282058716,-0.8613748375177382
1772790213377015300,1.923015380859375,-2.0995289779961106,2.356420503294468,-1.800720803466439
1772790213397050400,1.94305029296875,-1.492068403531611,3.271815392552316,-2.277035416412353
1772790213417085400,1.96308544921875,-0.5950118656493723,4.307691641451418,-3.5032822614759205
1772790213437120300,1.983120361328125,0.43055312485471364,4.618203405517339,-4.299428547757864
1772790213457155300,2.0031552734375,1.414353587949276,4.8345501544594764,-5.018417944601178
1772790213477191200,2.023191162109375,1.8317875573813913,5.313461798161268,-5.439807373660803
1772790213497226200,2.043226318359375,1.6819102996468542,5.206046548581123,-5.920765428498387
1772790213517261300,2.06326123046875,1.5776713420152664,5.148054962861537,-5.830182071253657
1772790213537296400,2.08329638671875,1.848267567539215,5.109399361252785,-5.1492275137722485
1772790213557331200,2.103331298828125,2.27499075884223,5.605333451426029,-4.21579106412828
1772790213577366300,2.1233662109375,1.9671756865143775,5.578647689074278,-4.051998093765974
1772790213597402400,2.14340234375,1.4103952057123184,5.338603838202357,-3.574766950497031
1772790213617437400,2.1634375,1.450793851596117,5.278188240206242,-2.584601482415199
1772790213637471700,2.1834716796875,1.706474101408571,5.007945650425553,-1.5179367120206355
1772790213657506800,2.2035068359375,1.7945593582272528,4.706657934039831,-0.5047440040946006
1772790213677541400,2.223541259765625,1.5304711994230746,4.307449357128143,0.3637964872688055
1772790213697576400,2.243576416015625,1.1867968782067297,3.7952544525057075,1.126186049899459
1772790213717612500,2.263612548828125,0.35804070022106166,2.6039894889742135,1.565250836381316
1772790213737647600,2.283647705078125,0.02385331540480256,1.0711299331098794,2.4165876794874666
1772790213757682700,2.3036826171875,0.0801641084305942,-0.3325742505311966,3.8656379022866485
1772790213777717500,2.323717529296875,-0.009937018255144358,-1.56947692964375,5.160839041110873
1772790213797752600,2.343752685546875,-0.27640871119499205,-2.8220161538273096,6.054187810516357
1772790213817787600,2.36378759765625,-0.322803528753668,-3.358519570276141,6.441862601500749
1772790213837822700,2.38382275390625,-0.23833500112742184,-3.6560353669077155,6.128413907200097
1772790213857858600,2.403858642578125,-0.19693609215989707,-3.5907495325267313,5.346847350412607
1772790213877893600,2.4238935546875,-0.36649259448498483,-3.117353437376022,4.3859173291653395
1772790213897928700,2.4439287109375,-1.127032437595725,-2.3066093014210463,3.6583126641899346
1772790213917963500,2.463963623046875,-1.88692872210592,-1.3332231187045573,2.9049922509387134
1772790213937998600,2.48399853515625,-2.553389182549715,-0.4691968898952007,1.993715318393707
1772790213958033700,2.50403369140625,-3.0336417194664476,-0.10474982976317405,1.0676222172498702
1772790213978068500,2.524068359375,-3.099637455682456,-0.007224106034636497,0.34429566798508165
1772790213998104600,2.5441044921875,-3.0333623180031775,-0.00289221431016922,-0.4013701388597488
1772790214018139600,2.5641396484375,-2.784741485182941,-0.018386136040091514,-1.3089140223562716
1772790214038174700,2.5841748046875,-2.582840902483463,-0.3288777341008186,-1.872229457885027
1772790214058209500,2.60420947265625,-2.1301301602259275,-0.4016144690096378,-2.2662439732849595
1772790214078244600,2.62424462890625,-1.7350214198485017,-0.5973562368184328,-2.427410102275014
1772790214098279700,2.64427978515625,-1.1268659949876367,-0.781532654517889,-2.3806869295448063
1772790214118314500,2.664314453125,-0.5701831293411552,-0.7417565244466066,-2.143961993962526
1772790214138350800,2.684350830078125,-0.2919416497610509,-0.4852016837567091,-1.7125842548519372
1772790214158385400,2.704385498046875,-0.27096812757626176,-0.3849345523655414,-1.212733283495903
1772790214178420500,2.72442041015625,0.2557471775688231,-0.061281274914741515,-0.26168635835945603
1772790214198455600,2.74445556640625,0.7394574537239968,0.4885580084472894,0.9031371729701757
1772790214218490600,2.76449072265625,1.4735415438465773,0.902675985199213,1.8727303931444883
1772790214238525700,2.784525634765625,2.1763759247027337,0.6233546014279127,2.5973551655262708
1772790214258561500,2.8045615234375,2.815105351525545,0.02913432454764843,2.9260183800935744
1772790214278596600,2.8245966796875,3.93719565654397,-0.20392565878629684,3.8988650491058823
1772790214298631700,2.844631591796875,4.708993683511019,0.6509761833250522,5.0440743639051915
1772790214318666800,2.864666748046875,4.233482788163423,0.7026724682927131,5.351847935178876
1772790214338701800,2.884701904296875,2.980326893386245,0.48003451025187965,5.543835903412103
1772790214358736600,2.904736572265625,1.8625157269917427,0.03458382212519646,5.572558724549412
1772790214378771500,2.924771484375,0.9409596847556531,-0.7523883930981159,5.436925680744648
1772790214398807600,2.9448076171875,0.23648586612939834,-1.8910902256995439,5.091554492482543
1772790214418842600,2.964842529296875,-0.14477555068135262,-2.928172927778959,4.37936045486778
1772790214438877700,2.984877685546875,-0.5627333978570997,-3.6780239113539457,3.5356849401697517
1772790214458912500,3.00491259765625,-0.5992670388758182,-3.9616935534626245,2.8499183062314986
1772790214478947600,3.024947509765625,-0.4609302890703082,-3.606262743479013,2.3764064757466317
1772790214498982700,3.044982666015625,-0.44857524988800285,-3.0791590235382316,1.865358695332706
1772790214519017700,3.065017822265625,-0.6776900027275085,-2.2858915075629946,1.4152701182723044
1772790214539053600,3.085053466796875,-1.0742369592145085,-1.4273328965097665,1.074042021164298
1772790214559088600,3.105088623046875,-1.4836825602412222,-0.5995967092216015,1.156637302264571
1772790214579123500,3.12512353515625,-1.8827599119886755,0.24009470427632332,1.504619549807906
1772790214599158500,3.145158447265625,-2.1661332014992833,0.7272644732356071,1.9304384857475756
1772790214619193600,3.165193603515625,-2.2889620010495184,0.893725786024332,2.0979811640322206
1772790214639229200,3.185229248046875,-2.300412492607534,0.8502467097818851,2.275100648957491
1772790214659264300,3.20526416015625,-2.489956867080927,0.9563456160664557,2.7678157770842313
1772790214679300400,3.22530029296875,-2.7597639880537983,0.7436176421433687,2.912264580029249
1772790214699335400,3.24533544921875,-2.8561820428013798,0.765431999066472,2.9125398898392914
1772790214719370200,3.265370361328125,-3.022721681523323,0.9879635741233825,2.773701912513375
1772790214739405300,3.2854052734375,-3.02983239031136,1.3300561791062355,2.29391991571784
1772790214759440400,3.3054404296875,-3.041056087376177,1.8408885632038114,1.7159095998823641
1772790214779475500,3.325475341796875,-3.0460926202386616,2.407832126101851,1.0694470945894718
1772790214799510300,3.34551025390625,-2.9937177053570747,2.8201398385614156,0.31874738523066043
1772790214819546400,3.36554638671875,-2.8939924257576464,3.1893922531485557,-0.37370004164576526
1772790214839581200,3.385581298828125,-2.6051900969356296,3.7235032215029,-0.9356757530033588
1772790214859616300,3.4056162109375,-2.2595681487828494,4.154588115146756,-1.610268374237418
1772790214879651300,3.4256513671875,-1.5470593461304902,4.487535290643573,-2.5247785896152255
1772790214899686400,3.445686279296875,-0.6081494335114955,4.790311784282326,-3.5246944673389193
1772790214919721500,3.465721435546875,-0.12986673536300658,4.897818803799152,-4.346944332170486
1772790214939756300,3.48575634765625,0.16599983275681734,4.905426940715313,-4.980658999571204
1772790214959792400,3.50579248046875,-0.04327390905916691,4.837506958438456,-5.47146157207489
1772790214979827500,3.525827392578125,-0.5323009963229298,4.312870797654986,-5.5895817555427545
1772790214999862500,3.545862548828125,-0.8582841780260205,3.8242622280642387,-5.1819811978608366
1772790215019897300,3.5658974609375,-0.6791396170139312,3.6655543058812614,-3.9006946026206015
1772790215039932200,3.58593212890625,-0.29671587842553854,4.125865294009447,-4.1461721689790485
1772790215059967200,3.60596728515625,-0.34891280639171596,4.477943286433816,-3.9295980410218236
1772790215080002300,3.626002197265625,-0.5701300839796662,4.541564402472972,-4.008822968906164
1772790215100037400,3.646037353515625,-0.4150499969050288,4.297304979732632,-4.577480934506655
1772790215120073200,3.6660732421875,0.6783326845452189,4.015293041703105,-4.065498795852065
1772790215140108300,3.6861083984375,1.8854282544150947,3.4987837810128926,-3.552092177352309
1772790215160143400,3.706143310546875,2.561738493221998,2.735063262039423,-2.8241490742027757
1772790215180178400,3.726178466796875,2.723100437045097,1.7606524124503136,-1.9089029457658528
1772790215200213500,3.746213623046875,2.463098378510773,1.1549527101784944,-0.6073685122668743
1772790215220248600,3.76624853515625,1.9024781734153626,0.9030740446060895,0.9332225146323442
1772790215240283100,3.786283203125,1.311289519315958,0.7778817307949065,2.151970528373122
1772790215260319500,3.806319580078125,0.5516732207909226,0.6158008250474929,3.3218221169978377
1772790215280354300,3.826354248046875,-0.018433482313156127,0.1918061819255352,4.427779617860913
1772790215300389400,3.846389404296875,-0.6685787677720189,-0.24910861633718012,5.399146861970424
1772790215320424200,3.866424072265625,-1.4018462808147072,-0.9608575405329465,5.869451420846581
1772790215340459300,3.886459228515625,-1.9322110483780501,-1.5935902111589908,5.746103858119249
1772790215360494300,3.906494384765625,-2.2016019897654653,-1.8449527439028024,5.075288417336345
1772790215380529400,3.926529296875,-2.3052876974284646,-1.7467735247015952,4.107500200757384
1772790215400565500,3.9465654296875,-2.4440429649069904,-1.4932681347101926,3.0896535295456644
1772790215420600300,3.966600341796875,-2.645951146391034,-1.210877426496148,2.1371189961999653
1772790215440635400,3.986635498046875,-2.699080971293151,-0.8925234244972466,1.258323360542953
1772790215460666400,4.006666259765625,-2.835896210619807,-0.7531143692851067,0.2973421936303377
1772790215480701400,4.026701416015625,-2.918806841279566,-0.7577963896214962,-0.4370990393668413
1772790215500737500,4.046737548828125,-2.8271579006299374,-0.7793775223106145,-0.935466494166851
1772790215520772400,4.0667724609375,-2.5452973537698385,-0.7773118219524622,-1.0253034169584512
1772790215540807200,4.08680712890625,-2.3578330004408956,-0.7259399466335773,-0.9387088370889425
1772790215560842200,4.10684228515625,-2.2985502058669924,-0.696447310167551,-0.6806237180918455
1772790215580877300,4.126877197265625,-2.323502860815823,-0.5428004707664251,-0.4655301840811968
1772790215600912400,4.146912353515625,-2.3722549090251324,-0.5813666405260562,0.03523147237896919
1772790215620947500,4.166947509765625,-1.80684571608752,-0.4697065929830074,0.5291612369924783
1772790215640983300,4.1869833984375,-0.9874565013840794,-0.1967728644222021,1.1548960115551947
1772790215661018400,4.207018310546875,-0.35099516562372446,0.2169067209124565,1.6674100651293993
1772790215681053400,4.227053466796875,-0.26458324884474277,0.5403489859610796,2.3494109167933463
1772790215701088500,4.247088623046875,-0.378107628954947,0.11926292376220225,2.947349337413907
1772790215721123300,4.267123291015625,-0.036837738531827924,-0.6725239982664585,3.6504067133709786
1772790215741158100,4.287158203125,1.3087635079696773,-0.42443478810489177,4.9959541838586325
1772790215761193200,4.307193115234375,2.66818928168416,0.06454349158108234,5.384074380522966
1772790215781228300,4.327228271484375,4.3229274967670435,0.18441840976178644,5.255395978161692
1772790215801264400,4.347264404296875,5.223757561838626,-0.30001638127565383,5.25263878840804
1772790215821299200,4.36729931640625,5.3399967538654804,-1.3021703933149575,5.555397746390104
1772790215841334300,4.387334228515625,4.493577493417263,-1.8339520419389008,5.589307614776492
1772790215861369300,4.407369384765625,3.2317455402314663,-2.06452430011034,4.720525715872645
1772790215881404400,4.427404296875,2.0468191320717333,-1.6486586029082535,3.7071453764200206
1772790215901439500,4.447439453125,0.8007771609529852,-1.5080506933003663,2.410016776664555
1772790215921474300,4.467474365234375,0.06525090919807552,-1.3012865962177513,1.4221967026650906
1772790215941510100,4.48751025390625,-0.3410907344639301,-0.9920558118730783,1.0912351480275393
1772790215961545200,4.507545166015625,-0.692586835347116,-0.6231389128506183,0.7577379374325275
1772790215981580300,4.527580322265625,-1.011491749227047,-0.13864917675554753,0.5378320347040891
1772790216001615400,4.547615478515625,-1.3546104823872447,0.42887949255406854,0.4229483489394188
1772790216021650400,4.567650390625,-1.5202081640839575,0.9161422004938125,0.4780664250493049
1772790216041685200,4.587685302734375,-1.5874378260090947,1.2026537880301476,0.34037001897394653
1772790216061720300,4.60772021484375,-1.5551660802185534,1.335501000508666,0.4212947365134954
1772790216081755400,4.62775537109375,-1.5049232089295983,1.3275322135865688,0.4841401920050382
1772790216101791500,4.64779150390625,-1.657680698275566,1.2692267396122217,0.7564473131000995
1772790216121826300,4.667826416015625,-1.9678318123355507,1.113835686892271,0.9802414554387331
1772790216141861000,4.687861083984375,-2.276543541242182,0.8813654861450195,1.1176654743134975
1772790216161896200,4.707896240234375,-2.42238204497993,0.8690922800272702,1.152952476271987
1772790216181931300,4.72793115234375,-2.455280398236215,1.0210118572443723,0.8372603869587183
1772790216201966300,4.74796630859375,-2.601871766167879,1.2456570634543895,0.36141923674345017
1772790216222001400,4.76800146484375,-2.8455431598871943,1.5310440308749675,-0.21834289119541644
1772790216242037200,4.788037353515625,-3.0619881085067986,1.8454484184652566,-0.6268927124261856
1772790216262072300,4.808072265625,-3.1190441669419404,2.2689766131192446,-1.0174345832794904
1772790216282107400,4.828107421875,-3.0595021369099613,2.6472429397672412,-1.3602315371394156
1772790216302142500,4.848142578125,-2.8575983393400906,3.2044746714681387,-1.609530123090744
1772790216322177500,4.868177490234375,-2.708289236882329,3.6328923917293547,-2.035682236507535
1772790216342212000,4.888212158203125,-2.615803845408559,3.7928801245898005,-2.6424568745344876
1772790216362247200,4.9082470703125,-2.477516779963672,3.7749031538724895,-3.0713433813512325
1772790216382282200,4.9282822265625,-2.21824741961807,3.6134064777538177,-3.3190210881024598
1772790216402318300,4.948318359375,-1.9341922853231428,3.4418937267944214,-3.4641678101837634
1772790216422353200,4.968353271484375,-1.477025148178637,3.780852125404775,-2.9419495241969824
1772790216442388200,4.98838818359375,-1.0264064097642898,4.856046239213645,-2.460277183610201
1772790216462423300,5.00842333984375,-1.2257403568461536,5.127551104015112,-2.611550864139199
1772790216482458400,5.028458251953125,-1.5173121503815055,5.240819755798578,-3.1348136907428503
1772790216502493400,5.048493408203125,-1.3524106342554092,4.914456634867191,-3.5402930184870955
1772790216522528500,5.068528564453125,-0.6350093833863735,4.2188159649074075,-3.5047646089881654
1772790216542563000,5.08856298828125,0.543252013926208,3.197045982772112,-3.2467969788908957
1772790216562599400,5.108599365234375,1.6543965620383618,2.226339248397946,-3.3775007495999336
1772790216582634200,5.12863427734375,2.598852126085758,1.4967968933582305,-3.481934353020787
1772790216602669300,5.14866943359375,3.3388463170349594,0.9127858758032321,-3.162032537057996
1772790216622704400,5.168704345703125,3.9414042141497134,0.62785425093472,-1.9167565818756818
1772790216642739700,5.18873974609375,4.349316321998835,0.3884054433465004,-0.4802431845664978
1772790216662774800,5.20877490234375,4.144352552336454,0.3466471995472908,0.939828781029582
1772790216682809900,5.228809814453125,3.237407511515915,0.10272855306863785,2.075412189349532
1772790216702844700,5.2488447265625,2.0062325624004007,-0.35578912190198897,3.4710979017078873
1772790216722880800,5.268880859375,0.7837301645621657,-0.7785819880187511,4.691748534199595
1772790216742915600,5.28891552734375,-0.28981194425597784,-1.6283616648107766,4.962472770017385
1772790216762950700,5.30895068359375,-0.74014616664052,-1.9206044894754886,5.14167139930427
1772790216782985700,5.32898583984375,-0.9294637466207146,-2.0226725328087807,4.708741170054674
1772790216803020800,5.349020751953125,-0.9292638401344417,-1.7509242146402597,4.094690988066792
1772790216823056000,5.369055908203125,-0.9887862886831164,-1.2825380566060542,3.356777695044875
1772790216843090700,5.389090576171875,-1.3689169478982686,-0.951158568817377,2.347989944079518
1772790216863125800,5.409125732421875,-1.7800760748445987,-0.8548042269557714,1.2772171538442372
1772790216883161900,5.429161865234375,-2.0843293630376456,-0.9753747261852025,0.2229495082080364
1772790216903197000,5.449197021484375,-2.2340581522122025,-1.276363167363405,-0.5046610019862652
1772790216923231700,5.469231689453125,-2.2852996791496873,-1.4209148461610077,-0.9209797036528586
1772790216943266600,5.4892666015625,-2.2724273380950093,-1.479537130999565,-1.2899381037294864
1772790216963301600,5.509301513671875,-2.1507351413592697,-1.3919038557320833,-1.4764531935095786
1772790216983336700,5.529336669921875,-1.8655837362602352,-1.1550240218490362,-1.662587759539485
1772790217003371800,5.549371826171875,-1.5603138183705507,-0.9656091189742088,-1.8043892628461122
1772790217023406800,5.56940673828125,-1.125429240182787,-0.7395914553672075,-1.3434002293258904
1772790217043442700,5.589442626953125,-0.939200127737224,-0.3978133231610059,-0.5095668942064047
1772790217063477800,5.609477783203125,-0.7958136933267116,0.16472060660123825,0.5181465065032244
1772790217083512800,5.629512939453125,-0.8340626138307153,0.308121361798048,1.2018477323442698
1772790217103548000,5.6495478515625,-0.7113572945296764,0.24543080460727212,1.843767333510518
1772790217123582700,5.669582763671875,-0.5311962499514222,-0.03709901981651783,2.296273785367608
1772790217143617500,5.689617431640625,-0.1545467108502984,-0.6369827292859553,2.605981539574265
1772790217163652600,5.709652587890625,0.676370444561541,-0.7183627893775701,3.529247308337688
1772790217183687700,5.729687744140625,1.414053143697977,0.18835282660126684,4.573394541975856
1772790217203723800,5.749723876953125,1.5061317079365253,0.2532692431479692,4.957872582745551
1772790217223758600,5.769758544921875,1.3063503093481064,0.3823655786603689,5.310713376235961
1772790217243793700,5.789793701171875,0.8533734635002911,-0.32638299467563625,5.330640311977267
1772790217263828700,5.809828857421875,0.4378378750354051,-1.2044184596151113,5.268533107632399
1772790217283863800,5.82986376953125,0.02618891874551773,-2.035172533419728,4.981904031196236
1772790217303899000,5.84989892578125,-0.10710077680349349,-2.383258825859427,4.450263836869597
1772790217323934000,5.869933837890625,-0.03696165717244148,-2.275940022391081,3.3645740480095148
1772790217343968500,5.889968505859375,0.12498977697640656,-2.0765835712164638,2.2025784335821865
1772790217364003600,5.910003662109375,0.6132362352564931,-1.4507535195857286,1.3868003951132297
1772790217384039700,5.930039794921875,0.9902756504580378,-0.6714771195620298,0.9643038815945386
1772790217404074800,5.95007470703125,0.8297260459311306,-0.0025537761360406876,0.7494207754641771
1772790217424109800,5.97010986328125,0.19534677714183926,0.7471855637580156,0.8174374961137771
1772790217444144600,5.99014453125,-0.3107669078707695,1.609640013206005,0.7990209649354219
1772790217464179700,6.0101796875,-0.7159202185310423,2.1790455823034045,0.5443009384572506
1772790217484214800,6.03021484375,-0.9628744333133101,2.3699738123506306,0.12147943076789379
1772790217504249900,6.050249755859375,-1.2474059529483317,2.2817852412879467,-0.29270576600134374
1772790217524285000,6.070284912109375,-1.5474340246617793,2.213130222734809,-0.6222948632419109
1772790217544320800,6.09032080078125,-1.9028794476926325,1.94242235352993,-0.8753320511996746
1772790217564355800,6.11035595703125,-2.0528540283218026,1.6905185535162686,-0.9653454996019601
1772790217584390700,6.130390625,-2.0638775266394016,1.4967986469238996,-0.9816367091894149
1772790217604425700,6.15042578125,-1.9941849817320703,1.4272323587447404,-0.9453314700990915
1772790217624460800,6.170460693359375,-1.8685761960744858,1.558531172737479,-1.0464654474526642
1772790217644495000,6.1904951171875,-1.682520540499687,1.686371955230832,-1.4425088383316993
1772790217664530000,6.210530029296875,-1.6229332100212572,1.834979339160025,-1.8276047187387943
1772790217684565000,6.23056494140625,-1.4512895261585712,2.11014214194715,-2.2531635424375533
1772790217704600000,6.25060009765625,-1.467709330561757,2.3193016097337007,-2.532896429619193
1772790217724636200,6.27063623046875,-1.3856164460256695,2.538172324195504,-2.491381346926093
1772790217744671200,6.290671142578125,-1.3558011534765362,2.8687174069866535,-2.3954648119598625
1772790217764706000,6.3107060546875,-1.165610005532205,3.243937205545604,-2.4894442413836715
1772790217784741000,6.3307412109375,-0.9045099226281046,3.4794416594222186,-2.603367557683587
1772790217804776000,6.35077587890625,-0.548569117295742,3.525745437696576,-2.7716537478119134
1772790217824811000,6.37081103515625,-0.3175511611834168,3.415618591070175,-2.8957115046352144
1772790217844846000,6.39084619140625,-0.14112784182876348,3.079499507538974,-3.000693974110484
1772790217864881200,6.410881103515625,0.04446691823601723,2.553401749770343,-3.0447458818048236
1772790217884916000,6.430916015625,0.8975577654026449,2.929243771880865,-2.225056222850084
1772790217904952000,6.4509521484375,1.4333108018755911,4.3774312403708695,-1.8732482795387506
1772790217924987100,6.470987060546875,0.9351067209437489,4.6342555456519126,-2.3471061469823122
1772790217945022200,6.491022216796875,0.38661636797264215,5.231196187406778,-2.4276667073845863
1772790217965057000,6.51105712890625,0.2143102746784687,5.079702726647257,-2.6469623692601916
1772790217985092000,6.531092041015625,0.47087943615466354,4.570462872438132,-2.689327346780896
1772790218005127000,6.551126953125,0.780275640194118,3.7520407492011785,-2.6261440376371143
1772790218025162000,6.571161865234375,1.1412614539563655,2.936468462437391,-2.435837738880515
1772790218045197000,6.591197021484375,1.6218891077958046,2.176801018247008,-2.121464330950379
1772790218065233000,6.61123291015625,1.9795418316125868,1.2938959014445544,-1.6276310124486684
1772790218085268000,6.63126806640625,2.0324808101177214,0.3256698779702186,-0.7776245411634445
1772790218105303000,6.651302978515625,1.8805790608182549,-0.15521628067493437,0.5602379277795553
1772790218125338000,6.671338134765625,1.2927896937683223,-0.4119371255815029,2.0290064120054243
1772790218145373200,6.691373291015625,0.1920437900736928,-0.924293358245492,3.191200763875246
1772790218165408300,6.711408203125,-0.8813809759750961,-1.4412825114071368,4.410059252253174
1772790218185443000,6.731443115234375,-1.7291610033825038,-1.7180559642612934,5.370002600550651
1772790218205478000,6.751477783203125,-2.195351112677157,-2.1086434278219937,5.570524003851413
1772790218225513000,6.771512939453125,-2.221623325791955,-2.337292608976364,5.22248155055344
1772790218245549000,6.791549072265625,-2.0938938947185872,-2.349698501563072,4.335857120966911
1772790218265583900,6.811583984375,-1.6875106038719414,-2.0800702442884442,3.3802345584779974
1772790218285619000,6.831618896484375,-1.4190356082856654,-1.7224959925353527,2.494180622255802
1772790218305654000,6.851654052734375,-1.0918924428924917,-1.3989444218933582,1.4384347207605839
1772790218325689000,6.871689208984375,-0.7747361262455582,-1.0499942061007022,0.5912643496841192
1772790218345724200,6.89172412109375,-0.7249255088940262,-1.1007979261428118,-0.15672434715032577
1772790218365759200,6.91175927734375,-0.9536153143197298,-1.2739601978749036,-0.5665758986294269
1772790218385794000,6.9317939453125,-1.3042965916886924,-1.4613018016070127,-0.8434253393292427
1772790218405828900,6.951828857421875,-1.5306073930233717,-1.4015548966526985,-1.028164651608467
1772790218425865200,6.971865234375,-1.6012164682537315,-1.1764601931095122,-1.1964531798243523
1772790218445900000,6.991900146484375,-1.4792375635311006,-0.8751210387974977,-1.3409873229652642
1772790218465935000,7.01193505859375,-1.4313117370128632,-0.626502251803875,-1.341860598668456
1772790218485970000,7.031969970703125,-1.1548664931997656,-0.3986795846015215,-1.0332423932641743
1772790218506005000,7.0520048828125,-0.7494295432925224,-0.04204349048137664,-0.502964134940505
1772790218526040000,7.0720400390625,-0.41997196347713467,0.33727906722128387,0.08988602263033389
1772790218546075100,7.0920751953125,-0.09736512633934616,0.6838502789229154,0.7332318572074175
1772790218566110200,7.112110107421875,0.25628362253308296,0.8451701371699571,1.164895427522063
1772790218586145300,7.132145263671875,0.5412026801809668,0.6362386329203844,1.5287643955051897
1772790218606181000,7.15218115234375,0.9468567799702287,0.05632102215886116,1.888829879552126
1772790218626216200,7.17221630859375,1.4236232283368706,-0.17395371437072754,2.702428820416331
1772790218646251300,7.192251220703125,1.6317559834241866,0.1175491055816412,3.484560609871149
1772790218666286300,7.212286376953125,1.447535726583004,0.10846212828457355,3.978436598470807
1772790218686321200,7.232321044921875,1.2037339844822883,0.34897418119013307,4.528071299171447
1772790218706356200,7.252356201171875,1.213281565028429,-0.19991934575438497,4.534827787694335
1772790218726391300,7.272391357421875,1.4087711116418242,-1.0556149685919285,4.406102039059997
1772790218746426400,7.29242626953125,1.6863468207895755,-1.824505583679676,4.238978462970256
1772790218766461200,7.312461181640625,1.7735269454620777,-2.3430431353271004,3.8392607674926515
1772790218786497000,7.3324970703125,1.551146030922234,-2.3413316552340984,3.200467773914337
1772790218806532000,7.352531982421875,1.2597662528276443,-2.167247007960081,2.477159929350018
1772790218826567200,7.372567138671875,0.9561597381055355,-2.07405492952168,1.9295511815190314
1772790218846602200,7.392602294921875,0.7350505970671772,-2.062887054297328,1.611806835851073
1772790218866637300,7.41263720703125,0.5452769438825548,-1.9916724143892526,1.335607383492589
1772790218886672400,7.43267236328125,0.44575741598829627,-1.5459008237451315,1.1880682133167981
1772790218906707200,7.452707275390625,0.19220014967918395,-1.0193138211548327,0.9961340210974216
1772790218926742300,7.4727421875,-0.21071239631697533,-0.3160293584436178,0.8827344364106655
1772790218946777300,7.49277734375,-0.7298647188618779,0.3725608084827661,0.9356067794203757
1772790218966812200,7.512812255859375,-0.9545701308265327,0.9714484926521778,1.1888380286455154
1772790218986848000,7.532847900390625,-0.9645292147830128,1.4083265827447176,1.1394213790476322
1772790219006883000,7.552883056640625,-0.9865966696843504,1.7662094620555637,1.0768792904168367
1772790219026918100,7.572918212890625,-1.2283926249206065,1.9568606287270782,1.0112421583801507
1772790219046953200,7.592953125,-1.6804966334566473,1.9776392128616571,0.9998100792616605
1772790219066988300,7.61298828125,-2.0563898012325166,1.9791893649131058,0.9456406821787356
1772790219087023400,7.6330234375,-2.37953279107362,2.1449702942222357,0.8404793490052223
1772790219107058200,7.65305810546875,-2.449142041611671,2.195191830462217,0.2422907530158758
1772790219127093200,7.67309326171875,-2.253070311196148,2.1787381237894294,-0.4099199405401945
1772790219147128300,7.69312841796875,-1.8984858889088034,2.2410943344593046,-0.9502946454644202
1772790219167164400,7.713164306640625,-1.5816569045200943,2.329369999283552,-1.4832979448378085
1772790219187199200,7.73319921875,-1.207215542987734,2.476849548226595,-2.0104905121058225
1772790219207234000,7.753234130859375,-0.8866986638665199,2.6126798681691286,-2.5481933674722907
1772790219227269000,7.77326904296875,-0.5615782364726066,2.9021424144655463,-3.0246131943583485
1772790219247304200,7.79330419921875,-0.1260452773787081,3.2499940213665366,-3.4822079092651603
1772790219267339300,7.81333935546875,0.3865652953725308,3.623085283464193,-3.9165941825419663
1772790219287374300,7.833374267578125,0.8825297076188028,3.9163215030804275,-4.336321815869212
1772790219307409400,7.853409423828125,1.3780349048554896,4.221556788048148,-4.649567096552253
1772790219327444200,7.8734443359375,1.8814976369678973,4.348248108245432,-4.8985699144274
1772790219347480300,7.893480224609375,2.3254396740972996,4.373237588073313,-4.957306765556335
1772790219367515400,7.913515380859375,2.72891409175992,4.337851217393577,-4.804231004041433
1772790219387550200,7.93355029296875,2.9659552536845206,4.1415076842993495,-4.484411021143198
1772790219407585000,7.9535849609375,3.099427320063114,3.9912349975064396,-4.0883407422572375
1772790219427620000,7.9736201171875,3.0339065078824756,3.742621471209824,-3.687611239388585
1772790219447655200,7.9936552734375,3.174005298924446,3.845674433927238,-2.7655051620543003
1772790219467690200,8.013690185546874,3.3338352108746765,5.133621363839507,-1.1945739419490098
1772790219487725300,8.033725341796876,2.7210464271247385,6.082214466083049,-0.40940322318971156
1772790219507760400,8.053760498046875,1.4760335067927837,6.34846184874773,-0.05172551106214523
1772790219527795200,8.073795166015625,0.5313655421037227,6.242365280550718,0.3126268565237522
1772790219547831300,8.093831298828125,-0.0416320601362735,5.654373084405064,0.7730757918179034
1772790219567866400,8.113866455078124,-0.5044866683326661,4.8299300934433935,1.4649199921041727
1772790219587901200,8.133901123046876,-0.9353706325769424,3.8186084400862454,2.283472171461582
1772790219607936300,8.153936279296875,-1.435123988777399,2.5013117893099786,2.865850034856796
1772790219627971000,8.17397119140625,-1.9406082898452877,0.9158733204245567,3.263510213282704
1772790219648006000,8.194005859375,-2.3341472966879606,-0.6050748483717441,3.9673213302165267
1772790219668041000,8.214041015625,-2.6098677333578464,-1.4997159956753252,5.18628386349082
1772790219688076000,8.234075927734375,-2.7711478441163897,-2.245813764196634,6.4374026994824405
1772790219708111000,8.254111083984375,-2.859921229329705,-3.0122020410746333,7.255061729392409
1772790219728146200,8.274146240234375,-2.7512860825657843,-3.557077564549446,7.754076249924301
1772790219748182000,8.29418212890625,-2.565410751993954,-3.7570401649236675,7.498207053411006
1772790219768217000,8.314217041015626,-2.4987302483841773,-3.5342362026661633,6.490517619076371
1772790219788252200,8.334252197265625,-2.505484106558561,-3.151141725209355,5.350144053870439
1772790219808287200,8.354287353515625,-2.6629423209413883,-2.7321359764158726,4.230276393337547
1772790219828322000,8.374322021484375,-2.8803122754514217,-2.249043832159042,3.226536865672469
1772790219848356900,8.39435693359375,-2.7765505799427626,-1.8757038559973238,2.480131638637185
1772790219868392000,8.414391845703125,-2.4220044438391923,-1.436593476808071,1.7115858914643525
1772790219888427000,8.434427001953125,-2.1048402361467478,-0.975644190776348,0.9490835161089897
1772790219908462000,8.454462158203125,-1.5790999135136603,-0.6204723239898682,0.4341092099010944
1772790219928497200,8.4744970703125,-0.8572226862743496,-0.7812848172366619,-0.36277474300563334
1772790219948533000,8.494532958984376,0.07408902630060911,-0.7988163822740316,-0.809205674341321
1772790219968568000,8.514568115234376,0.06345715764909983,-1.238971886602044,-0.9984697705686092
1772790219988603100,8.53460302734375,0.17693448374718426,-1.3574123880654572,-1.2088187404006718
1772790220008638200,8.55463818359375,0.6943184814453125,-0.9897007731795311,-1.5033914693176746
1772790220028673300,8.57467333984375,0.8510112644135952,-0.38238545240461824,-1.6837223175048828
1772790220048707800,8.594707763671876,1.4520327457413076,-0.06876900032162665,-2.0954887626945973
1772790220068743000,8.614742919921875,3.1006279280245304,0.15364976201057434,-2.730635508725047
1772790220088778000,8.634778076171875,5.396980623847246,0.6485691221833229,-2.9058535439431665
1772790220108813000,8.65481298828125,6.593997867295146,0.6729518682897091,-2.3986107087701556
1772790220128849200,8.67484912109375,6.060723934286832,0.3655167351901531,-1.6018986052989959
1772790220148884000,8.694884033203126,4.199955489353835,-0.013744447714090346,-0.8299106087177991
1772790220168919000,8.7149189453125,2.0200278635188935,-0.18624679423272608,0.05473287618458271
1772790220188954000,8.7349541015625,0.27444764025509355,-0.2275023492068052,0.9466250170409679
1772790220208989200,8.7549892578125,-0.5718485783353447,0.6077291622728109,2.4877234089404343
1772790220229024300,8.775024169921876,-1.0545260043114424,1.3934779731810092,3.4667192482322453
1772790220249059000,8.79505908203125,-1.200563830013573,2.161415817588568,4.074201742267609
1772790220269094000,8.815093994140625,-1.3936068602576852,2.3569845669180154,4.034582848584652
1772790220289129000,8.83512890625,-1.3952028972774744,1.501751300895214,3.4490409682005643
1772790220309164000,8.8551640625,-0.8046887814387679,-0.014954408025741576,2.9782033253610134
1772790220329200000,8.8752001953125,-0.26134470531493426,-1.3001444404453038,2.8570377828478812
1772790220349235000,8.89523486328125,-0.15054916564673185,-2.2761434360086916,2.8908529586881397
1772790220369270000,8.91527001953125,-0.1644806603655219,-2.574745274311304,2.651655495512485
1772790220389305000,8.93530517578125,0.05607669200897217,-2.2300930479735133,2.1753087338626385
1772790220409340200,8.955340087890624,0.5888359534934162,-1.5663386316180228,1.3515274216800928
1772790220429375200,8.975375244140626,1.7051999898195265,-0.9135463387817144,0.3589952244669199
1772790220449410000,8.99541015625,2.574275318711996,-0.2855950572133064,-0.0538964253604412
1772790220469444900,9.01544482421875,2.6153660385131836,0.18418693909347056,0.01177753155529499
1772790220489480000,9.03547998046875,2.1415651619538663,0.8713800987035035,0.24065818337798117
1772790220509515000,9.055514892578126,1.6710732638120651,1.743525336560607,0.1581423972547054
1772790220529551000,9.075551025390626,1.1872351234935223,2.4836872852921483,-0.04751753797829151
1772790220549586200,9.095586181640625,0.6931342400968075,3.109477589434385,-0.2757359264999628
1772790220569621000,9.11562109375,0.4386173349753022,3.422088663867116,-0.5429267274945974
1772790220589656000,9.135656005859374,0.22412425107583403,3.4146254883795977,-0.7646195136398076
1772790220609691100,9.155691162109376,0.14955927782654763,3.2682518548518416,-0.9100047206521034
1772790220629726200,9.175726318359375,0.33987639023810623,3.1354487737759946,-1.0851982059508563
1772790220649761000,9.195760986328125,0.6195977331124246,3.0889599943235515,-1.6051432863086461
1772790220669796000,9.215796142578125,0.9649898180320858,3.167744192703068,-2.191880513957143
1772790220689831000,9.235830810546876,1.3488593715146182,3.35107977566421,-2.880458990445733
1772790220709866000,9.255865966796875,1.6408346312843263,3.4640912378162145,-3.501820956751704
1772790220729900800,9.27590087890625,1.9363713829278946,3.59963923368603,-4.039661174762249
1772790220749937200,9.295937255859375,2.125054026005417,3.736767192223668,-4.486984086501598
1772790220769972000,9.315971923828124,2.3132558998286723,3.8290930092215536,-4.835006666055321
1772790220790006800,9.3360068359375,2.446366585548967,4.025053680478036,-4.926587217643856
1772790220810041900,9.356041748046875,2.4994986024081705,4.2577611971125,-4.98877917766273
1772790220830077000,9.376076904296875,2.5825977413773535,4.565344506511092,-4.949993227672577
1772790220850112000,9.396112060546875,2.6881179709911347,4.873373513850569,-4.863559391322732
1772790220870147000,9.41614697265625,2.820394105583429,5.226173975330591,-4.736273904624581
1772790220890182100,9.43618212890625,2.932887681341171,5.446249973928928,-4.503483970403671
1772790220910217000,9.456217041015625,2.6586978152394294,5.54143702557683,-4.214792700740695
1772790220930251800,9.476251708984375,2.1991057890355585,5.533577544248104,-3.799530814650655
1772790220950286800,9.496286865234374,1.569475176078081,5.474993253332376,-3.454934702414274
1772790220970323000,9.516322998046874,1.099078993395716,5.335787027215957,-3.0515923866987227
1772790220990357800,9.536357666015626,0.7298465986832976,5.31782233145833,-2.529047352975607
1772790221010392800,9.556392822265625,0.4376161951087415,5.449258508095145,-1.9270225398242473
1772790221030428000,9.576427978515625,0.06955489000231027,5.755317676666379,-1.3396347393125294
1772790221050463000,9.596462890625,-0.36766806800514457,5.976233633220195,-0.7999819189220666
1772790221070498000,9.616498046875,-0.6891618293344974,6.349180810672045,-0.17759879287481306
1772790221090533000,9.636533203125,-0.6704314099013805,7.454803965014219,1.1027344471633433
1772790221110568000,9.65656787109375,-0.8737912514984607,9.481043250393867,2.5576369031220674
1772790221130602800,9.676602783203125,-1.9297043262541294,10.277533820068836,3.2010838599860665
1772790221150637800,9.696637939453124,-2.9272160654455424,10.909488492059706,3.456577793446183
1772790221170673000,9.7166728515625,-4.4071886652529235,9.257761149230598,2.2569676108956336
1772790221190709000,9.736708984375,-5.454297671306133,8.034902777561545,1.7624568315237759
1772790221210743800,9.756743896484375,-6.357541227260231,7.029222929483652,1.5885779359549284
1772790221230779000,9.77677880859375,-7.324951258176565,6.096134270364046,1.4106763607412576
1772790221250814000,9.79681396484375,-8.053063872674107,5.340289014810323,1.3430582840204237
1772790221270849000,9.81684912109375,-8.488944183900951,4.53209397881627,1.2685370037823915
1772790221290884000,9.836884033203125,-8.431738195601104,3.532848547700047,1.1404618280112744
1772790221310919200,9.856919189453125,-7.878975133746862,2.5971447376459835,1.0839660338073969
1772790221330953700,9.87695361328125,-7.253160279685258,2.007746181833744,1.473610079038143
1772790221350988800,9.89698876953125,-6.869262669152021,1.5703198102086782,2.061719179561734
1772790221371024000,9.91702392578125,-6.798047444722056,1.0924205584198237,2.4942414125323293
1772790221391059000,9.937058837890625,-6.829677093216777,0.6627542994022368,2.768103361853957
1772790221411094800,9.9570947265625,-6.947895476362109,0.43394495925009247,2.923652235484123
1772790221431129900,9.9771298828125,-7.058726087343692,0.30029461369514465,2.76594384573251
1772790221451165000,9.9971650390625,-6.854812703517079,0.2571878778964281,2.6360727264553305
1772790221471200000,10.017199951171875,-6.0632677735507485,0.48992637419104573,2.716024799570441
1772790221491235000,10.037235107421875,-4.984901459446549,0.6443535503149033,2.8008625989004967
1772790221511270100,10.057270263671874,-3.056511722922325,0.6010270342856645,2.5125278875902293
1772790221531305000,10.077304931640626,-0.4051490728765726,0.025016952356696126,1.7189251483112573
1772790221551339800,10.09733984375,0.9034761956661939,-0.5501011491686105,1.2624015697672963
1772790221571374800,10.117374755859375,1.3703349980026482,-1.5903490372806786,1.632657900699973
1772790221591410000,10.137409912109375,0.5613958656430245,-1.9529542689383028,1.8294532692149281
1772790221611445000,10.157445068359374,-0.007310030752420425,-1.6765315292179583,1.6489847661226986
1772790221631480800,10.177480712890626,0.5281932687431573,-1.3164917641341685,0.9601999534070491
1772790221651516000,10.197515869140625,1.6152981850981711,-1.108710598963499,0.9460881336852908
1772790221671551000,10.217551025390625,2.67003578633368,-1.1128910995185375,1.4124766881614923
1772790221691586000,10.2375859375,3.324235607880354,-1.4271668922930956,2.43236947824806
1772790221711621000,10.25762109375,3.5370647040903567,-1.6336282070368526,3.5745018698200584
1772790221731656200,10.27765625,3.2339199616611003,-1.8512702564865349,4.507506942309439
1772790221751691000,10.29769091796875,2.483018592250347,-1.944177672764659,5.386775456175208
1772790221771726000,10.31772607421875,1.5526684181839228,-2.0670669703304765,5.98633358695209
1772790221791761200,10.33776123046875,0.5681359875530004,-2.388322538989782,6.261803555992246
1772790221811796000,10.3577958984375,-0.1415729552477598,-2.7879718454062936,6.572938712653517
1772790221831831000,10.3778310546875,-0.6408890890747309,-3.156701697424054,6.892964447256922
1772790221851866000,10.3978662109375,-1.0571563528150318,-3.4156700289964674,7.038392908889055
1772790221871901000,10.41790087890625,-1.487605286642909,-3.524758764746785,6.807914758741855
1772790221891937000,10.43793701171875,-1.9100369182318448,-3.410827265140414,6.437569872742891
1772790221911972000,10.45797216796875,-2.5066063885867593,-3.2982688074529167,5.911085161483287
1772790221932007200,10.478007080078125,-2.985124064534902,-3.115600456228852,5.520820354005694
1772790221952042000,10.4980419921875,-3.002992898702621,-2.4623405458807945,5.855951887804269
1772790221972077000,10.5180771484375,-2.559170688560605,-0.6250134745508432,6.691835725712775
1772790221992112000,10.538112060546876,-2.5805413933694363,0.7512900764673948,7.22290718024075
1772790222012147000,10.55814697265625,-3.0778730753809214,1.3300368898838757,7.7278598586499685
1772790222032182000,10.57818212890625,-3.388358243700862,1.3177391338467597,8.030931535843015
1772790222052217000,10.598217041015625,-3.3449837968766687,0.5694429784983396,7.324155139362811
1772790222072252200,10.618252197265624,-3.015390023460984,0.055499184381961816,6.3373968493759625
1772790222092287000,10.638286865234376,-2.5686703383117915,0.18517302752137182,5.339457824683189
1772790222112322000,10.658322021484375,-2.182175989283621,0.7891466366529464,4.4564293737620115
1772790222132358100,10.678358154296875,-1.8039628541275858,1.5636352178782225,3.6361470096111295
1772790222152393200,10.698393310546875,-1.2833899972602725,2.5194565178096293,3.1059798104465006
1772790222172428000,10.718427978515624,-0.7065554472059011,3.683142569541931,2.921630958789587
1772790222192463000,10.738463134765626,-0.028946985282003877,4.961283267971873,2.6190491109400984
1772790222212498000,10.758497802734375,0.5274383587226271,6.003637772974372,2.2153350393027065
1772790222232533000,10.778532958984375,0.7574997447624802,6.687236707484722,2.110034005397558
1772790222252568000,10.798568115234374,1.1741931249603628,7.091371050360799,1.9706413167983292
1772790222272603100,10.81860302734375,1.6505565454840658,7.343288878899812,1.314150169444084
1772790222292638000,10.838637939453125,1.9228651278838513,7.383261992847919,0.1707926199913025
1772790222312673000,10.858673095703125,1.9398387667775152,7.383610367894172,-0.6906739874631166
1772790222332708000,10.8787080078125,1.6667711827039717,7.050126601302623,-1.5944295845925807
1772790222352743200,10.8987431640625,1.533825478287041,6.479506395718455,-2.3842016596674918
1772790222372778200,10.9187783203125,1.7292755696728825,5.998985563254356,-3.1746862669259306
1772790222392814000,10.93881396484375,2.0376339550971982,5.712407924744486,-4.0193607295334335
1772790222412849000,10.958848876953125,2.1345102750062943,5.519350865975022,-4.79657142919898
1772790222432884000,10.978884033203125,2.113914938484132,5.379754763758182,-5.203249611338973
1772790222452919000,10.9989189453125,1.9688652470365164,5.1260512208461755,-5.497857411569357
1772790222472954000,11.0189541015625,2.058564514923096,4.990097274523973,-5.785152258437871
1772790222492989200,11.0389892578125,2.3181997859716414,4.994367206928134,-6.289812091380357
1772790222513024000,11.05902392578125,2.416734979003668,4.979992644616961,-6.747966778257489
1772790222533059000,11.07905908203125,2.3828970068097113,5.014527366903424,-7.041093400019407
1772790222553094100,11.09909423828125,2.2437296513989566,5.2016123655259605,-7.212118659722805
1772790222573129200,11.119129150390625,2.1328049323931335,5.408865707430243,-7.348174312853812
1772790222593164000,11.1391640625,1.9338529703661798,5.713826559370756,-7.202692075207829
1772790222613199000,11.15919921875,1.6856828039228915,6.063728376799822,-6.77733783417046
1772790222633234000,11.17923388671875,1.4446449735775588,6.32378742621839,-6.196354640004039
1772790222653270000,11.19927001953125,1.4812076945602892,7.034581826168298,-5.07453321505487
1772790222673305000,11.21930517578125,1.6305238112807272,8.865842729327083,-3.572831013998389
1772790222693340200,11.239340087890625,1.1003472597658635,10.46257357659936,-2.1881173620313406
1772790222713375000,11.259375,0.15816811621785162,11.355476355803011,-0.7352601481646299
1772790222733410000,11.27941015625,-0.6582791998147964,11.086720205187797,0.9741600896984338
1772790222753445000,11.299445068359375,-0.8666483940064906,10.6184129576087,3.02341667805016
1772790222773480200,11.319480224609375,-1.0451707314670085,9.664559742879867,4.715166234666109
1772790222793515300,11.339515380859375,-1.46866414706856,7.9970263436317435,5.82665097451806
1772790222813550000,11.359550048828124,-1.8049138712421058,5.7409308393955225,6.68177493494749
1772790222833585000,11.3795849609375,-2.1274790611952543,3.661389587417245,7.518748906180262
1772790222853620000,11.399619873046875,-2.611107212024927,1.376501119416952,8.156712463197112
1772790222873655000,11.419655029296875,-3.1328543733686205,-0.2161573638498783,9.0430785341084
1772790222893690000,11.439690185546874,-3.583017476969957,-1.0830717153161764,10.011624291056394
1772790222913725200,11.45972509765625,-4.023684437951445,-1.9454484233528375,10.204431174457072
1772790222933760300,11.47976025390625,-4.003471086484193,-2.4473610034137963,9.173709824103117
1772790222953796000,11.499796142578125,-3.831725111290812,-1.9998761791110038,7.585120782232284
1772790222973831200,11.5198310546875,-3.90266473364979,-1.5911550929665566,5.7215124376982445
1772790222993866200,11.5398662109375,-4.03012937630713,-1.1181108799934387,4.304818131841719
1772790223013901000,11.559901123046876,-4.149932398295403,-0.8772504520416259,3.258772078844905
1772790223033936100,11.57993603515625,-3.9569332071930168,-1.0344821641921997,2.519333768212795
1772790223053971000,11.599970947265625,-3.441939319501817,-1.3864233784943818,2.1332225732833145
1772790223074006000,11.620006103515625,-2.9392677377671004,-1.9527625457584856,1.8103253748968242
1772790223094041000,11.640041015625,-2.6155279510766265,-2.4534447072416543,1.9508833078831433
1772790223114076200,11.660076171875,-2.4296610960721967,-2.8364824860751625,2.2620143728911875
1772790223134111200,11.680111328125,-2.339931433047354,-3.242977128341794,2.2134853197827935
1772790223154146300,11.700146240234375,-1.9422364755690096,-3.2478339207232,2.320597202502191
1772790223174181000,11.72018115234375,-1.300047409811616,-3.0901755075931545,2.2471318610578774
1772790223194216000,11.7402158203125,-0.8431611354351043,-2.8244354899287223,2.5328023215949536
1772790223214252000,11.760251953125,-0.34179099168777466,-2.5630039831131697,3.1178932433411477
1772790223234287000,11.780287109375,0.668434975387156,-2.3098089742451906,4.010118853935599
1772790223254322200,11.800322265625,1.772649139714241,-1.815165508404374,4.674243272647261
1772790223274357000,11.82035693359375,2.8254195325300095,-1.6849784550458191,4.966338797795772
1772790223294392000,11.84039208984375,3.9204876828491684,-1.7837170616954563,4.942524791488051
1772790223314427100,11.86042724609375,4.687340654629469,-2.326505842024088,4.643218896569311
1772790223334462200,11.880462158203125,5.108563494950532,-3.111865361353755,3.9901135922610758
1772790223354497300,11.900497314453125,5.4271092201292515,-3.1767285864084958,3.8272929740622637
1772790223374532000,11.920531982421876,5.087426014375686,-2.2463293125033377,3.859618203605711
1772790223394567000,11.94056689453125,3.9050422764360904,-1.5123311470985412,3.8236996257454154
1772790223414602000,11.96060205078125,2.7183038504183292,-0.4694622628331184,4.3384705183357
1772790223434637000,11.980636962890625,1.3962135356247425,-0.338612361651659,4.725726207125186
1772790223454672100,12.000672119140624,0.34733547407239673,-0.7754325840771198,5.164482950571179
1772790223474707200,12.020707275390626,-0.22577596380561588,-1.394617790865898,5.529675860634446
1772790223494742300,12.0407421875,-0.6013634266331791,-1.8167162449777126,5.574142778870463
1772790223514778000,12.060778076171875,-0.787715142545104,-1.8747014009565113,5.313019899612665
1772790223534813200,12.080813232421875,-0.887187031905353,-1.8220295489549636,4.601401908320188
1772790223554848300,12.10084814453125,-0.7855117872819304,-1.3623726408213377,3.881754339829087
1772790223574883300,12.12088330078125,-0.6719438602909446,-0.35882980477213855,3.4926346107333894
1772790223594918000,12.14091796875,-0.9738625680565833,0.690401015740633,3.121048200240731
1772790223614953000,12.160952880859375,-1.1799790148854254,2.0042799670279026,2.9462983670562504
1772790223634988000,12.180988037109374,-1.355658237874508,3.1496728217005727,2.6092408336311577
1772790223655023000,12.201023193359376,-1.606062739241123,4.036812215071916,2.1849358093857765
1772790223675058200,12.22105810546875,-1.807049129705131,4.657882504954934,1.718873710384965
1772790223695093200,12.24109326171875,-1.959349230672419,4.841404258137941,1.1623287919044494
1772790223715128000,12.261128173828125,-2.0953429244831203,4.781851414451003,0.6153343765795231
1772790223735163000,12.281162841796874,-2.3090715998813507,4.525487712419033,-0.05355857170820236
1772790223755198000,12.301197998046876,-2.1889111427575347,4.375091399246454,-0.5579062699615955
1772790223775233000,12.32123291015625,-1.7999521571815014,4.40754025516957,-1.1137193670362233
1772790223795268000,12.34126806640625,-1.2561235124111174,4.571014953362941,-1.8077286364018916
1772790223815304000,12.361303955078125,-0.5187564550951123,4.765514612156152,-2.8323300425708293
1772790223835339000,12.381339111328124,0.17531535811275242,4.797972235907614,-3.889107625201344
1772790223855374000,12.4013740234375,0.6830111977502703,4.548483972603083,-4.598678036314249
1772790223875409200,12.4214091796875,0.9543320842869579,4.164973900082707,-5.022238379672169
1772790223895444200,12.4414443359375,1.2081272510051726,3.9587937403678892,-5.310206595757603
1772790223915479300,12.461479248046874,1.5326277929350733,4.012276324230433,-5.708415640237927
1772790223935513900,12.481513916015626,1.7259318122029303,4.174660304577649,-6.132386317962408
1772790223955549000,12.501548828125,1.8888719651281833,4.484568842053413,-6.416465709915757
1772790223975584000,12.521583984375,2.0458887193538247,4.758283199597895,-6.585439882308244
1772790223995619000,12.541619140625,2.1743431037008762,4.905387777748704,-6.540731556531787
1772790224015654100,12.561654052734376,2.3864577680312093,4.970750184497237,-6.3608595580279825
1772790224035689200,12.581689208984375,2.573958507847786,4.879131054463982,-6.080207217913865
1772790224055724000,12.60172412109375,2.943983075851202,4.786415361365676,-5.52105182467401
1772790224075759000,12.621759033203125,3.9992379789590835,6.336910527163743,-3.922407837256789
1772790224095794000,12.6417939453125,3.8299081249967215,8.488169107875228,-2.787594244265556
1772790224115829000,12.6618291015625,2.391502630330622,9.343066858333348,-2.129814226144552
1772790224135865000,12.681864990234375,0.8568357327833771,8.973862959063053,-0.9042179539442062
1772790224155900000,12.70189990234375,0.10801613808274269,8.245767295700311,0.6616250031113624
1772790224175935000,12.72193505859375,-0.16249153237491845,7.1355872087061405,1.843338294443488
1772790224195970000,12.741969970703124,-0.49176615683883423,5.797491515529155,2.768752181151509
1772790224216005000,12.762005126953126,-0.9101493898198008,3.7833348821312187,3.3458588261455295
1772790224236040200,12.782040283203125,-1.038692767624557,1.826480683144927,4.140142825686931
1772790224256075300,12.8020751953125,-0.9544961888074874,0.861522721555829,5.678026931715011
1772790224276110000,12.822110107421874,-1.2331143927454948,0.02416939561665058,7.144331656175852
1772790224296145000,12.842144775390626,-1.7940175064355135,-1.1373071633726357,8.021925222566724
1772790224316180000,12.862179931640625,-2.1984452793002127,-2.1659797645032404,8.695387962988018
1772790224336215000,12.882215087890625,-2.3109005688741804,-2.630527367287874,8.468885146212576
1772790224356250000,12.90225,-2.412949030724168,-2.513639940485358,7.229108372968435
1772790224376285200,12.92228515625,-2.567994046485424,-1.8069599901169537,5.8791369485586875
1772790224396320000,12.942320068359376,-2.8239538438916205,-0.9379366836726665,4.640006948785484
1772790224416355000,12.96235498046875,-2.993816197295487,-0.5595704037815332,3.227884773150086
1772790224436390100,12.98239013671875,-2.7590006024658678,-0.4887298578828573,1.934143185484409
1772790224456426200,13.00242626953125,-2.3641502207636833,-0.781672355249524,1.205021393944323
1772790224476461000,13.0224609375,-2.1778099030286073,-1.5316314753741025,0.6894084975719451
1772790224496495900,13.042495849609375,-1.957460055924952,-2.221936629524827,0.48888767879307266
1772790224516531000,13.062531005859375,-1.7061808175504207,-2.7746248725771903,0.48635786805450915
1772790224536566000,13.08256591796875,-1.4857128970250486,-3.0069390059798953,1.0422583511516452
1772790224556601000,13.10260107421875,-1.5843232011198995,-3.4341537801921365,1.5957596641525624
1772790224576636200,13.12263623046875,-1.4726543857485055,-3.7605601557433603,2.054438374903798
1772790224596671200,13.142671142578125,-0.8888166789337992,-3.4681355447709556,2.743006037737429
1772790224616706000,13.1627060546875,-0.2516299515083432,-3.185304691573977,3.281991918651759
1772790224636741000,13.1827412109375,0.5534717946454882,-2.714159590220451,3.9765088452786204
1772790224656776700,13.202776611328124,1.2525354247912763,-2.427670799037814,4.645350063379109
1772790224676811500,13.2228115234375,1.903563046042621,-2.221002563545108,5.122534152635931
1772790224696846600,13.2428466796875,2.4279361719757317,-2.103846841195226,5.274360790872573
1772790224716881400,13.26288134765625,2.67479204095006,-2.4117513453722,4.871330025324225
1772790224736916500,13.28291650390625,2.6653558118239045,-2.9503584561020135,4.238480158059299
1772790224756951600,13.30295166015625,2.816686190976202,-2.785437358492613,4.325725310792029
1772790224776986600,13.322986572265625,2.4414152467519044,-1.3150731295078992,4.738690902638435
1772790224797022500,13.3430224609375,1.3713327768683432,-0.2606073309510946,4.822579730680585
1772790224817057500,13.3630576171875,-0.0032844284981489178,0.35143969452083107,5.160507032677531
1772790224837092600,13.383092529296874,-0.9919894686385988,0.090896660977602,5.6167591008037325
1772790224857127700,13.403127685546876,-1.5668398591384292,-0.3590852408379316,5.950932018703222
1772790224877162500,13.42316259765625,-1.970641901320219,-0.8548866445422172,5.981262859559059
1772790224897197600,13.443197509765625,-2.264083872641623,-1.140313359451294,5.400656097489595
1772790224917232600,13.463232666015625,-2.4073723996356127,-1.046930142354965,4.438412655556202
1772790224937267500,13.483267333984376,-2.2298092625960706,-0.1651806253284216,3.8350416884928937
1772790224957302500,13.503302490234375,-2.176042893356085,1.0711328557193278,3.3861733008772132
1772790224977337600,13.523337646484375,-2.2219243545651435,2.2496511504024266,2.8692992985278365
1772790224997372700,13.54337255859375,-2.0572122235313057,3.585402910801768,2.6248089896410702
1772790225017407700,13.56340771484375,-1.8598136284261941,4.570525708541274,2.269257768148184
1772790225037442600,13.583442626953126,-1.7606670254975556,5.078147898420691,1.9376035550713537
1772790225057477400,13.603477294921875,-1.7112886620834469,5.173343717896938,1.2230331437140702
1772790225077512400,13.623512451171875,-1.6467466318070887,5.096435834783315,0.5936000991553068
1772790225097547500,13.643547607421874,-1.8086010353222488,4.8356782817065715,0.14478665659725665
1772790225117582600,13.66358251953125,-2.105948489649594,4.504628756524622,-0.37432431102395053
1772790225137617700,13.68361767578125,-2.0397303428545595,4.42809262933284,-0.9787591079264879
1772790225157652700,13.70365283203125,-1.7067971958830952,4.514987653453648,-1.738474482911825
1772790225177688600,13.7236884765625,-1.2986591703236103,4.536110520981252,-2.43340320520997
1772790225197723600,13.7437236328125,-0.7171352934092283,4.608028048461676,-3.0298581092745063
1772790225217758700,13.7637587890625,-0.08172872739881276,4.831572015431523,-3.8716023636490102
1772790225237793800,13.783793701171875,0.4862123221039772,4.989669404500723,-4.721746197578311
1772790225257828400,13.803828369140625,1.0279738052114844,5.089278948765993,-5.1696086230218405
1772790225277863400,13.823863525390625,1.4688915260836481,5.045163328185677,-5.303206946128607
1772790225297898500,13.8438984375,1.7082450566038487,5.101717574578523,-5.439862903240323
1772790225317933600,13.86393359375,1.8948318964459,5.296678421142697,-5.57207941659987
1772790225337968600,13.88396875,1.9749754004798827,5.356401360699534,-5.96904459849894
1772790225358003700,13.904003662109375,2.1208907688461243,5.457926967719197,-6.2537798240125175
1772790225378038500,13.92403857421875,2.334249734149128,5.294531472241879,-6.5459022371679545
1772790225398073600,13.944073486328126,3.0248446650266647,5.557173523890972,-5.9747290738761425
1772790225418108400,13.9641083984375,3.961666080933809,7.125927399957179,-5.235604651498794
1772790225438143500,13.9841435546875,3.7941409383058544,8.141486252492665,-5.032014508277178
1772790225458178600,14.004178466796875,2.7091230573579668,8.65377701870501,-4.9001200664788485
1772790225478213600,14.024213623046874,1.787157995929569,8.28392722274661,-4.094291175094247
1772790225498248700,14.044248779296876,1.3724220334097743,7.798016513937712,-2.7532746260344982
1772790225518283500,14.064283447265625,1.1275815959110855,7.0248986365437505,-1.5691408295571803
1772790225538318600,14.084318603515625,0.8832900244668126,5.825188500750064,-0.6741057144999504
1772790225558354700,14.104354736328125,1.0774594283923506,4.8379050178453324,0.509771476867795
1772790225578389800,14.1243896484375,1.4140674644842743,4.835034138584136,2.166275532579422
1772790225598424600,14.144424560546875,1.1826771679282189,4.617100412711501,3.6102889302551744
1772790225618459400,14.16445947265625,0.5202423097386956,3.777280404397845,5.287444728851318
1772790225638494500,14.184494384765625,-0.6134206519126891,2.2459224852681157,6.761648097607493
1772790225658529800,14.20452978515625,-1.769961508065462,-0.022412907338142395,7.756845130115747
1772790225678564900,14.22456494140625,-2.2950831142783166,-2.21407890176177,8.12784468063116
1772790225698599700,14.244599609375,-2.4452666614830494,-2.9657950946867464,7.577336119705438
1772790225718634500,14.264634521484375,-2.5064871461212634,-2.641909762045741,6.071975980663299
1772790225738669600,14.284669677734374,-2.6033593743771313,-1.5899749432712793,4.440733499719202
1772790225758704600,14.30470458984375,-2.7651386668294666,-0.5176520009845494,3.008066256444156
1772790225778739700,14.32473974609375,-2.8916093300133943,0.0448994644343853,1.6751590718209743
1772790225798774800,14.34477490234375,-2.7511051730409264,0.18236907601654528,0.647808074682951
1772790225818809900,14.364809814453125,-2.634102595426142,-0.026716742011904715,0.0155851071447134
1772790225838844700,14.3848447265625,-2.6929855770274993,-0.5180360318660736,-0.2586842539340258
1772790225858879700,14.404879638671876,-2.8519147407457233,-1.0635171200186013,-0.3221078015744686
1772790225878914600,14.42491455078125,-2.943428949099779,-1.335767542490363,-0.36525370033979415
1772790225898949600,14.44494970703125,-2.836976407071948,-1.0480302125513552,-0.24315000019371508
1772790225918984700,14.464984619140624,-2.8484561247244478,-0.7758470100969076,0.22656945227086542
1772790225939019800,14.485019775390626,-2.8597622393757103,-0.7614823846578598,0.7789169190615415
1772790225959054600,14.5050546875,-2.56290023047775,-0.6203466517835855,1.8823174289181828
1772790225979090700,14.525090576171875,-1.3433347628742456,-0.6837246067166328,2.9297412000089884
1772790225999125800,14.545125732421875,0.3734294080108404,-1.2245400411456822,4.419458364239334
1772790226019160800,14.565160888671874,2.000486127702892,-2.3203151706904173,5.946000407519937
1772790226039195600,14.585195556640626,3.1343451964482663,-3.5300054332286117,6.891161781749129
1772790226059230700,14.605230712890625,4.015269660827517,-4.494506883221865,7.616669766706228
1772790226079265500,14.625265625,5.054059166824818,-3.8787773698449133,8.79745600632131
1772790226099300600,14.645300537109375,5.609876355552673,-2.754774509203434,9.31965734117329
1772790226119335700,14.665335693359374,4.801289105370641,-2.8183213909626006,8.723630307132005
1772790226139370800,14.685370849609376,3.8224291674181816,-2.768902987799048,8.55491273984909
1772790226159405800,14.70540576171875,2.6765973368063567,-3.040516865932941,7.90924869145751
1772790226179440600,14.725440673828125,1.709770658735931,-3.035495238378644,6.992949839097261
1772790226199475700,14.745475830078124,0.7088423890992999,-2.6028315511107443,5.784050434675812
1772790226219510800,14.7655107421875,-0.23504560419321058,-2.0662351956814526,4.3541357049793
1772790226239545600,14.785545654296875,-1.01521632270813,-1.5165139857411383,3.15181363312155
1772790226259580700,14.80558056640625,-1.649901880967617,-1.1011100608319044,2.4724858000591396
1772790226279615700,14.82561572265625,-1.9784011371448635,-0.25902912184894084,2.3563503606677054
1772790226299650600,14.845650634765626,-2.1967130486801265,0.7049789916694164,2.19850665409863
1772790226319685600,14.865685546875,-2.357022560840845,1.5109323862165212,2.0774112542122602
1772790226339720700,14.885720703125,-2.2711548339411616,2.449534255799651,2.1942834834456444
1772790226359755800,14.905755859375,-2.099683291774988,3.2560885388493537,2.285014140206575
1772790226379790800,14.925790771484374,-2.0055551015302537,4.0351550955146545,2.4896827263146637
1772790226399825700,14.94582568359375,-2.192108769755065,4.216396628805994,2.475474752742052
1772790226419860500,14.965860595703125,-2.4811492912471294,4.181930295580625,2.448318450269103
1772790226439896600,14.985896484375,-2.7193507291227577,4.283122140601277,2.3398820409476757
1772790226459931600,15.005931640625,-2.8900346280425784,4.002533513373137,2.121511677223444
1772790226479966700,15.025966796875,-2.910865819147229,3.9966172750666735,1.6520587667405604
1772790226500001800,15.046001708984376,-2.971609041662514,4.253377867461741,0.8838725005298852
1772790226520036600,15.06603662109375,-3.0322710156351325,4.659516828158497,-0.05214987395405769
1772790226540071700,15.08607177734375,-3.0387685609608885,5.0715433855891225,-0.9007003012120723
1772790226560106800,15.106106689453124,-2.9125165089637037,5.3580654945194715,-1.614207467252016
1772790226580141800,15.126141845703126,-2.6836270893126724,5.612482154136896,-2.2743980536460877
1772790226600176600,15.1461767578125,-1.9400456875264644,5.785212464192509,-3.1586312041819093
1772790226620211700,15.166211669921875,-0.9026993660748004,5.808530795937776,-4.007276908507943
1772790226640246500,15.18624658203125,0.11745967373251914,5.727049029037356,-4.700353280937671
1772790226660281300,15.20628125,0.9607271921515464,5.333725418511032,-5.3113078349977725
1772790226680316400,15.22631640625,1.4150316333413124,5.119985052675008,-5.690256298691034
1772790226700351500,15.2463515625,1.5598378714218735,5.047727625715733,-6.003654724109173
1772790226720386600,15.266386474609375,1.6145064501985906,5.086918064853549,-6.3257946743875735
1772790226740421600,15.286421630859374,1.5393676225841044,5.099465411737561,-6.741878398254514
1772790226760456400,15.30645654296875,1.7451703272886574,5.331503650808334,-6.798642488005757
1772790226780491500,15.326491455078125,2.6197584282532334,6.5062745756566525,-6.080189682257175
1772790226800526300,15.3465263671875,3.161237002766132,7.2695491044282905,-5.949304709762335
1772790226820561400,15.3665615234375,3.521703761090338,7.932572283899783,-5.396083382746577
1772790226840596500,15.386596435546876,3.6936838373005387,8.065249985030293,-4.702987136572599
1772790226860631600,15.406631591796875,3.9199244960084556,8.151729414087534,-3.6581373076230284
1772790226880666400,15.426666259765625,4.0231943163469435,7.914995126155018,-2.183275182697177
1772790226900701400,15.446701416015625,3.8247792376756666,7.469232887861132,-0.5981318973660469
1772790226920737500,15.466737548828124,3.412374786843359,6.27509207663238,0.567989272558689
1772790226940772600,15.486772705078126,3.0073043321609494,4.997564541664719,1.9874802233964204
1772790226960807700,15.5068076171875,2.4587726242661474,4.52851319772005,3.8267175122618675
1772790226980842500,15.526842529296875,1.2555141483411192,3.98022055927813,5.632357067430019
1772790227000877300,15.546877197265625,-0.29356588996201755,2.313924008348584,7.3329580390214915
1772790227020912400,15.566912353515624,-1.605061160983145,0.8640577929913997,9.027031070148944
1772790227040947500,15.586947509765626,-2.5670927137315274,-1.6287901193559169,9.740229024109244
1772790227060982500,15.606982421875,-2.5740000089019537,-2.641255097529292,9.32499227246046
1772790227081017600,15.627017578125,-2.5357301917403934,-3.160843619534373,7.2935887361854315
1772790227101052400,15.647052490234374,-2.4115157830506564,-2.171558441418409,5.634190128076076
1772790227121087500,15.66708740234375,-2.7345377768605945,-1.0672446161091327,3.956077174885571
1772790227141122600,15.68712255859375,-3.373778514206409,-0.17149463078081606,2.2025059528678654
1772790227161157400,15.707157470703125,-3.852936241623759,0.12974164767861365,0.6304694018691778
1772790227181192400,15.7271923828125,-4.093755460782349,-0.01046820252239704,-0.5919038166314363
1772790227201227500,15.7472275390625,-4.1108179470032455,-0.28228724783957004,-1.4568898303836584
1772790227221262300,15.767262451171876,-4.214873949283361,-0.7497311565876007,-1.87101131426692
1772790227241297400,15.78729736328125,-4.187609802521765,-0.9672194767802953,-1.8499077359616756
1772790227261332500,15.80733251953125,-4.079390543082356,-0.9604197336375713,-1.684514344665408
1772790227281367600,15.827367431640624,-3.929320977646112,-0.6958359002709388,-1.333954940110445
1772790227301402600,15.847402587890626,-3.869721372207999,-0.17001052970290184,-1.0525444751054047
1772790227321437700,15.867437744140625,-3.9205344446003436,0.1916881085038185,-0.5514893886566162
1772790227341472500,15.887472412109375,-3.8801761307269333,0.5095850143849849,0.3449380575418472
1772790227361507300,15.90750732421875,-3.995620080722868,0.47570904826819893,1.7780168042272328
1772790227381542400,15.92754248046875,-3.4261996063172817,0.21437164947688578,3.341598246091604
1772790227401577500,15.947577392578125,-1.827494828623533,-0.43851533590555186,4.710269110274314
1772790227421612500,15.967612548828125,0.16785422845184803,-1.6584680492609738,5.7908630373001095
1772790227441648400,15.9876484375,2.8441429377004503,-2.826052277475595,6.853149738740921
1772790227461683500,16.007683349609376,5.440004942059517,-2.132862507799268,8.229480177766083
1772790227481718500,16.027718505859376,6.255895793253183,-2.2815432492256162,8.322074290311336
1772790227501753600,16.047753662109375,5.951544597643614,-2.0422294661939144,8.525806472352146
1772790227521788700,16.06778857421875,4.903880295795202,-2.2344518277049064,8.275594278687239
1772790227541823500,16.087823486328126,3.4894872526183724,-2.453691375479102,7.522768663215637
1772790227561858300,16.1078583984375,1.899879973615706,-2.651197230350971,6.288637786903977
1772790227581893400,16.127893310546874,0.6828150906562804,-2.640264917448163,4.766593347303569
1772790227601928400,16.147928466796873,-0.05323913049548864,-2.454488078814745,3.1745351680174467
1772790227621963500,16.167963623046877,-0.6086977150440216,-2.1120330702602863,2.0309289045006036
1772790227641998600,16.18799853515625,-1.075475853359699,-1.5602110886484384,1.4558967276930808
1772790227662034000,16.208033935546876,-1.7865856028690934,-0.7712748798757791,1.2143804661810398
1772790227682068500,16.228068359375,-2.559849318474531,0.20625614756047725,1.2003612931787968
1772790227702103600,16.248103515625,-3.220473912371695,0.9196037391245364,1.2632330521553754
1772790227722138600,16.268138671875,-3.4932837222918867,1.5614531976640225,1.6950971134781836
1772790227742173700,16.288173583984374,-3.39926220729202,1.9386983645707367,2.126725612479448
1772790227762208800,16.308208740234374,-3.1823721452534195,2.2716385258048772,2.5255676941663023
1772790227782243800,16.328243896484373,-3.0142925836130976,2.5351421627193687,2.886762474504113
1772790227802278700,16.348278564453125,-3.0700264535337687,2.5487416490048167,3.031373190012574
1772790227822313700,16.368313720703124,-3.1784581866800785,2.5662287903785703,3.0618834790885447
1772790227842348500,16.3883486328125,-3.1833871675148604,2.847297310078144,2.898521885880828
1772790227862383600,16.408383544921875,-3.1155975336194035,3.4737796881377694,2.543992408651113
1772790227882418700,16.428418701171875,-3.0696307322144505,3.643573944741487,1.7442869685828686
1772790227902453800,16.448453857421875,-2.8244606243699786,3.980599621723592,0.9779460379779338
1772790227922488600,16.468488525390626,-2.618404967817664,4.175063916942477,0.22644319554269313
1772790227942523600,16.488523681640626,-2.1882015331834554,4.163007276184857,-0.5671113206803798
1772790227962558700,16.508558837890625,-1.3510428530335425,4.443121271638572,-1.485796191394329
1772790227982593800,16.52859375,0.07412789700627327,5.023454769724607,-2.6962621144801378
1772790228002628900,16.54862890625,1.629153399710357,5.467315558311343,-4.13561395008564
1772790228022663700,16.56866357421875,2.685428293515742,5.699679960596561,-4.9963312004774805
1772790228042698500,16.588698486328123,2.887278607332706,5.738111105799675,-5.268894926682115
1772790228062733600,16.608733642578127,2.5641397091448304,5.602559895059466,-5.397646394279599
1772790228082768600,16.6287685546875,2.197595238342136,5.455824442481994,-5.64852552742064
1772790228102804700,16.6488046875,2.047327666115761,5.4343409249484536,-6.281045432078838
1772790228122839800,16.66883984375,2.375563449051231,5.545608173781633,-6.6769046985626215
1772790228142874600,16.68887451171875,3.230641962903738,7.356337745565176,-5.854571831622719
1772790228162909700,16.70890966796875,2.931972320061922,8.331216212666034,-6.2805421587318175
1772790228182944800,16.72894482421875,1.8980233859635889,8.31596720560789,-6.303733649227023
1772790228202979800,16.748979736328124,1.0276609398700296,8.011774415430427,-5.486939127191901
1772790228223014700,16.7690146484375,0.8640931565657257,7.489922040146589,-4.355227591869235
1772790228243049700,16.7890498046875,1.1610507347926498,6.711939187064766,-3.119821288794279
1772790228263084500,16.80908447265625,1.828800358264148,5.566053580439091,-1.7075749022573232
1772790228283119600,16.82911962890625,2.781761884850263,4.376323571389913,-0.3438543539583683
1772790228303154700,16.84915478515625,3.6494612492144105,3.961699983203411,1.2507523407667875
1772790228323189800,16.869189697265625,3.695112408798933,3.49722193852365,2.5964351280719042
1772790228343224800,16.889224853515625,2.873735235148668,2.584799635335803,4.0303579243659975
1772790228363260000,16.909260009765624,1.6136968873813748,1.287988138705492,5.7163779974192375
1772790228383294500,16.92929443359375,0.29159809702038764,-0.4749924244314432,7.026551079925894
1772790228403329500,16.94932958984375,-0.66832479301095,-1.994730048394203,7.75219584300518
1772790228423364600,16.969364501953127,-0.9174266873463988,-2.911561400195956,7.3733280433326955
1772790228443399700,16.989399658203126,-0.7838920771256088,-3.075538494953513,6.074419282162189
1772790228463434800,17.009434814453126,-0.35003011998385186,-2.2402327491939067,4.760190786784887
1772790228483469800,17.0294697265625,-0.3392643958196044,-1.0023767148792744,3.4998248144984245
1772790228503504600,17.049504638671873,-0.8162652374640107,-0.03995324020385742,2.1011802523344754
1772790228523539700,17.069539794921877,-1.205433774137497,0.5224222841262817,0.6395587172538042
1772790228543574500,17.089574462890624,-1.4142682477533817,0.42557343674600123,-0.7034504669278859
1772790228563609600,17.109609619140624,-1.6473723624899983,0.11299860267043113,-1.5718763920009136
1772790228583644700,17.129644775390624,-2.011589997780323,-0.4898989016622305,-2.0810317827969786
1772790228603679700,17.1496796875,-2.174789824555069,-1.1466431469947098,-2.0374954234093425
1772790228623714600,17.169714599609375,-2.128723508298397,-1.361521576949954,-1.6409224556982516
1772790228643749600,17.18974951171875,-1.9138826338745651,-1.4417846157103775,-1.5846347512871026
1772790228663784000,17.209783935546874,-1.6207599576354026,-0.9868027136504649,-1.134563417622447
1772790228683819000,17.229819091796877,-1.61137458191365,-0.7358160284817218,-0.7589537429630756
1772790228703854000,17.24985400390625,-1.699399194586277,-0.4205629151076078,0.4190601093292236
1772790228723889000,17.269888916015624,-1.9156696634218096,-0.5848673421233892,2.1195839240312573
1772790228743924000,17.289924072265624,-1.872434332807362,-1.0189128391385078,3.937317237097025
1772790228763959000,17.309958984375,-1.6640613392233847,-2.0126666871011256,5.437951516661047
1772790228783993900,17.329993896484375,-1.1437898033902048,-3.0472336069673296,6.849668326365947
1772790228804029000,17.35002880859375,0.02928191632479429,-1.7172803037136792,9.130073511472343
1772790228824064000,17.37006396484375,0.2907844425499439,-1.450338509044051,10.030919358634948
1772790228844099000,17.39009912109375,0.05494359632581472,-1.6770646131813525,10.428805747032165
1772790228864134100,17.410134033203125,-0.08545037827044726,-2.1839771934866903,10.485988354456424
1772790228884169000,17.4301689453125,-0.2776464362964034,-2.889175965386629,9.050040774336457
1772790228904203800,17.450203857421876,-0.6192971427306533,-3.2605233064264056,7.264306527599692
1772790228924238800,17.47023876953125,-0.9348594681844115,-3.0133558872848747,5.706458660951256
1772790228944274000,17.49027392578125,-1.1581339705631135,-1.735020543065667,4.691658810089528
1772790228964309000,17.51030908203125,-1.591499084098637,-0.5386065262079238,3.2965915218904613
1772790228984344000,17.530343994140626,-1.9946002845346926,0.3012619974225759,2.0866198120623825
1772790229004379100,17.550379150390626,-2.3184163513317704,1.0577098950445651,1.6087492018461227
1772790229024414000,17.5704140625,-2.507787122803926,1.7212164741188287,1.6497773778051137
1772790229044449000,17.590448974609377,-2.598025904394686,2.266478366562724,1.7418448361277579
1772790229064483800,17.61048388671875,-2.654313024283945,2.5607453905314204,1.909240214896202
1772790229084519000,17.630518798828124,-2.306141099387407,2.820980381038785,2.065734844943881
1772790229104554000,17.650553955078124,-1.744856585164368,2.8234628455042836,2.1009365067064762
1772790229124589800,17.67058984375,-1.2639374010324478,2.8690625671625134,2.0117624317377802
1772790229144625000,17.690625,-0.8120099181070923,2.974244358602166,1.772329990762472
1772790229164660000,17.710659912109374,-0.4859799746528268,2.9429145698368546,1.009330187278986
1772790229184695000,17.730695068359374,-0.14730273107141256,2.8587679676413535,-0.0576741903334856
1772790229204730000,17.750730224609374,0.010902794547379016,2.8976272751286625,-0.6669383070886135
1772790229224765200,17.77076513671875,0.047563422946631906,3.0913141562342643,-0.6725929718494414
1772790229244800000,17.790800048828125,-0.026235680496692657,3.6153006209373473,-0.46692134617865083
1772790229264834800,17.810834716796876,-0.3477206739977002,4.534116716815531,-0.5406622896939516
1772790229284870000,17.830869873046876,-0.8236576858028769,5.592846894818544,-0.9546487490206956
1772790229304905000,17.850905029296875,-1.1705120983600616,6.557092908746004,-1.565786258432269
1772790229324940000,17.87093994140625,-1.3836457304745913,6.940822761496901,-2.4670564684867857
1772790229344975000,17.89097509765625,-1.2615581046804785,6.883495192643999,-3.319143837699294
1772790229365010000,17.911010009765626,-0.9900862653657794,6.718467127528786,-4.062382709658146
1772790229385045000,17.931044921875,-0.3672670859888196,6.683782767638564,-4.501290259751677
1772790229405080000,17.951080078125,0.8149849883951247,8.156151906704903,-4.486133022630215
1772790229425115000,17.971114990234376,1.1103123350717126,8.333734332966804,-5.724858240994811
1772790229445150000,17.99114990234375,0.9702572370409965,8.233072064778208,-6.841907044714689
1772790229465185000,18.01118505859375,0.6213572170656174,7.5868725943356745,-7.7128984363615505
1772790229485219800,18.0312197265625,0.6185937437016517,6.593906097358465,-7.716647559762
1772790229505255000,18.0512548828125,0.7622503002904355,5.381912818574905,-6.995622857698797
1772790229525290000,18.0712900390625,1.150254834685847,4.394296742714941,-5.843468838328123
1772790229545325000,18.091324951171874,1.9788368982136249,3.533438038025796,-4.615020099306106
1772790229565360000,18.111360107421874,3.4115386282801627,3.446892265734076,-2.8693969136834143
1772790229585395200,18.131395263671877,4.885769469565153,4.086829168650508,-1.119277585685253
1772790229605429800,18.1514296875,5.3663820719659325,4.4655712961167096,0.19415186826884745
1772790229625464800,18.17146484375,4.883216277951002,4.316377928993106,1.72389942959249
1772790229645500000,18.1915,3.7582235294893382,3.7794261842548846,3.321042364796996
1772790229665535500,18.211535400390623,2.4171428291521964,2.7460060963362456,4.247304977288842
1772790229685570600,18.231570556640627,1.1209425962880253,1.3476204773694276,4.664371282452344
1772790229705605600,18.251605712890626,0.08848784627020359,0.02463525956273079,4.735650219768285
1772790229725640400,18.271640380859374,-0.6241910522520542,-0.8876590333312749,4.434676976159214
1772790229745675300,18.29167529296875,-0.8416498540893197,-1.0335860921353102,3.8789784453749654
1772790229765710300,18.31171044921875,-0.7996762139737605,-0.9434867190152406,3.071663114824891
1772790229785745400,18.331745361328124,-0.5255182043150067,-0.7750356937140226,2.303461066523194
1772790229805780500,18.351780517578124,-0.5839470124080777,-0.793173992472887,1.3791706308871508
1772790229825815600,18.371815673828124,-0.7616156556487083,-0.830921831586957,0.5379466009944677
1772790229845850400,18.391850341796875,-1.2775884713746606,-0.9657324530929327,-0.2771341028600931
1772790229865885400,18.411885498046875,-1.6855480716273188,-1.0859329499661923,-0.7722077768117189
1772790229885920500,18.43192041015625,-2.0556012812033293,-0.784400903430581,-0.7741974893242121
1772790229905955600,18.45195556640625,-2.2859812316730617,-0.3641805181503296,-0.6590753186285495
1772790229925990400,18.471990478515625,-2.3506322752818463,0.20330138940811157,-0.5438613779962063
1772790229946025500,18.492025390625,-2.413119418855011,0.5151531699061394,-0.3185147455185652
1772790229966060300,18.512060302734376,-2.6807585481390355,0.3235901490867138,0.1847077480971813
1772790229986095400,18.532095458984376,-2.7497394376456734,0.24282851315438747,1.2838263428509236
1772790230006130400,18.55213037109375,-2.6947049481660126,-0.11476736590862273,2.621609316816926
1772790230026165500,18.57216552734375,-2.51614490904361,-1.1304536442160606,4.108191690152883
1772790230046200600,18.59220068359375,-2.7233465207606553,-2.2952561327576637,5.526855542516708
1772790230066235600,18.612235595703126,-2.377606499186158,-2.296459663328528,8.939242896580696
1772790230086270200,18.632270263671874,-3.016671295443177,-2.684392812988162,11.814176401603222
1772790230106305300,18.65230517578125,-3.993386622582376,-4.551851403209567,14.299054942506551
1772790230126340400,18.67234033203125,-3.9296705217361447,-5.239686367854476,15.650162092947959
1772790230146375400,18.69237548828125,-2.8104698006793853,-4.161954844522476,13.136661853194235
1772790230166410500,18.712410400390624,-2.119704627801478,-3.188574507024884,9.077236824297904
1772790230186445600,18.732445556640624,-1.5097253485143183,-2.095436740246415,5.981444061344861
1772790230206480400,18.75248046875,-1.1109700683280825,-1.323399059304595,4.274622023281455
1772790230226515500,18.772515380859375,-0.6673126933589577,-0.13876140495836733,3.564720772778988
1772790230246550300,18.79255029296875,-0.5570423466086387,0.5700672478765249,2.6709949867546556
1772790230266585300,18.81258544921875,-0.59584144834131,1.030628411373496,2.211390101069212
1772790230286620400,18.832620361328125,-0.7302326753914355,1.684296318000555,2.2421114025473594
1772790230306655500,18.852655517578125,-1.060928418699652,2.3357658378005026,2.1828584185898303
1772790230326690600,18.872690673828124,-1.5452113801762462,2.8689123450368643,1.9298580555111169
1772790230346725400,18.892725341796876,-1.9690718755245207,3.3585563951551913,1.8826684343129396
1772790230366760400,18.912760498046875,-1.944746120302379,3.816183258765936,2.3532547327399254
1772790230386799400,18.93279931640625,-1.2576819938994943,3.914986747345328,2.5643150657117366
1772790230406834400,18.95283447265625,-0.3648173547491431,4.061257797281444,1.815160247707367
1772790230426869500,18.972869384765627,0.6149941848397255,4.23357368131727,0.44828971094489095
1772790230446904300,18.992904296875,1.9753391192257403,4.161902237552404,0.501048656708002
1772790230466939400,19.012939453125,3.4717850071892142,4.131437833444774,0.6701958475798369
1772790230486974500,19.032974365234374,2.14662215308249,4.343146985714137,2.150663537427783
1772790230507009500,19.053009521484373,-1.4214685345210134,5.3286430006802075,3.6291888610363006
1772790230527044600,19.073044677734377,-2.802389662337303,6.033919513991475,4.098355355793237
1772790230547079400,19.093079345703124,-2.3665916225664314,6.8550809990644455,3.713519587627053
1772790230567114200,19.1131142578125,-1.5717033735215662,8.312009407892823,3.078561642166972
1772790230587149300,19.1331494140625,-0.32264293136447664,8.837565313869714,1.9596260017871856
1772790230607184400,19.153184326171875,0.9807909060150384,9.30665932791233,1.1743079835116863
1772790230627219500,19.173219482421874,2.3453519967913627,9.259380859386921,1.1476783352613449
1772790230647254000,19.19325390625,3.5520576905608174,8.78261090388894,1.3228630527317524
1772790230667289000,19.2132890625,3.9624259593904014,8.422709085971116,2.129785000050068
1772790230687324200,19.23332421875,4.05361020513773,7.732100564959644,2.2637989182204006
1772790230707358700,19.253358642578124,4.306879448285699,6.330094417408108,1.8178657072737812
1772790230727393800,19.273393798828124,4.612539972928166,4.62824519932121,1.2323217810630798
1772790230747428900,19.293428955078124,4.382333625459671,2.328621811264753,1.1810367072448134
1772790230767464000,19.3134638671875,3.2542093009740114,0.6139315240442752,1.431067406862974
1772790230787499000,19.3334990234375,2.5044869122147557,-0.2338049564823508,1.7440332860827445
1772790230807534000,19.3535341796875,2.1140748052209615,-0.45049218942523,2.2349437028750776
1772790230827569000,19.37356884765625,2.370240354332328,-0.6747203392669558,2.4809675049394366
1772790230847604000,19.39360400390625,2.2618542138934132,-0.4883031569033861,2.3696909037560223
1772790230867638800,19.413638671875,1.0543033014714718,-0.28821722241044045,2.1788298937261104
1772790230887673900,19.433673828125,0.3769534904837608,-0.2661059283673763,3.0442516685470937
1772790230907709000,19.453708984375,1.4874305145978928,-0.11178513522744178,2.916522237473726
1772790230927744000,19.473743896484375,2.3268945490807296,0.002471066288650036,2.0689152285456656
1772790230947778800,19.49377880859375,2.2075801873922347,0.29621903481930495,1.1862978426434099
1772790230967814000,19.51381396484375,1.4871657261818647,0.6646721157222986,0.5194122886553406
1772790230987849000,19.533848876953126,0.32891631254553794,0.9869672565624117,0.37146468380913134
1772790231007884000,19.553884033203126,1.0817173780977725,0.9903110140323639,0.07052052016407251
1772790231027919000,19.573919189453125,1.8324901526927946,0.7229740825653076,-0.2491819738343358
1772790231047954000,19.593953857421877,2.1511954523473977,0.5485989279121161,0.08058481806069612
1772790231067989000,19.613989013671876,1.478151814121008,0.3346475496739149,0.3137238579802215
1772790231088023800,19.63402392578125,1.1595108118742703,0.10044657961130142,0.21305895944312214
1772790231108059000,19.654058837890624,0.9527180732190609,-0.1953781951934099,0.3054433747604489
1772790231128094000,19.674093994140627,0.9605360534936189,-0.16520400620400905,0.06084346801936626
1772790231148129000,19.69412890625,1.2392355059742928,-0.5019768774688244,0.28367461054474113
1772790231168164000,19.7141640625,2.1661679805517196,-0.8964397211581469,0.5519798025220632
1772790231188199200,19.73419921875,2.638690215477347,-0.9645423665255307,0.39558483345657586
1772790231208233700,19.754233642578125,1.9560785384386776,-0.9067927728682756,0.29031097981929777
1772790231228268800,19.774268798828125,1.405074887472391,-0.8932903172165155,-0.04026858976334333
1772790231248303900,19.794303955078124,1.1890934647113085,-1.0235229632824658,-0.36973902906030415
1772790231268339000,19.8143388671875,0.7171347088873385,-0.9605126726180314,-0.48377917667292053
1772790231288374000,19.8343740234375,0.6782254247784614,-1.0683411791741848,-0.36583106183633207
1772790231308409000,19.8544091796875,0.7010901675373316,-1.1930062542408704,-0.16436192935667931
1772790231328444000,19.87444384765625,0.47102527436614033,-1.2755372379332781,0.49079402387104926
1772790231348479000,19.89447900390625,-0.3562970714241266,-0.890251387912035,0.3194242615789175
1772790231368513800,19.914513671875,-0.24972704049646852,-1.0700158343881367,-0.16484368499163538
1772790231388548900,19.934548828125,-0.6758844146102666,-1.4251993916124104,-0.5815620535003021
1772790231408584000,19.954583984375,-1.1129986515462398,-1.8376310227125883,-0.39830158160198476
1772790231428619000,19.974618896484376,-1.295015260863304,-1.4680834245711565,0.43740682667437936
1772790231448653800,19.99465380859375,-1.367556765460968,-0.9628308864325285,1.1161702673196792
1772790231468689000,20.01468896484375,-1.2242349207192658,-0.2623287479162216,1.4798527728199957
1772790231488724000,20.034723876953127,-0.9084867173045873,0.183524091270566,1.4512000943094492
1772790231508759000,20.054759033203126,-0.3977016794800758,0.98037764903903,1.1923488132454454
1772790231528794000,20.074794189453126,-0.3727373340934515,0.9644254621475934,0.4615229577338323
1772790231548829000,20.094828857421874,-0.2816688236802816,0.721447895911336,0.024872776379343122
1772790231568863700,20.11486376953125,0.18008301090598106,0.45203941886723037,0.21202439223099498
1772790231588898800,20.13489892578125,0.43654374357163905,0.6479764169871807,0.03448198288565036
1772790231608934000,20.154933837890624,0.4028285209745168,0.9982792164325713,0.2622122636633925
1772790231628969000,20.174968994140624,0.005720131212472915,0.6483370669931173,-0.033063062848302065
1772790231649004000,20.195004150390623,-0.4505833748400211,0.954953869447112,0.06038506586053408
1772790231669039000,20.2150390625,-0.2298994734764099,1.5201976426899433,0.272661907615792
1772790231689074000,20.235073974609374,0.35702363213300703,1.1112100145637989,0.08074875818444416
1772790231709109000,20.25510888671875,1.2776385941267012,1.1983791794508696,0.41175460862144825
1772790231729144000,20.27514404296875,1.3041618593931197,1.0703478428214788,0.7139449729353189
1772790231749179100,20.29517919921875,0.9837094238102435,0.5604793353199958,0.35470823133010415
1772790231769214200,20.315214111328125,0.6474234592795372,0.7082657582551241,0.28849178330181163
1772790231789249300,20.335249267578124,0.6402069520294665,0.5027911164611578,0.5043800661530345
1772790231809284000,20.3552841796875,0.41704175524413584,0.0789408502459526,0.39682277775369584
1772790231829319000,20.37531884765625,0.6829156284213066,0.14434300448298454,0.2817396969594061
1772790231849354000,20.39535400390625,0.2980471270292997,0.056363692256808276,0.4392332018513232
1772790231869389000,20.41538916015625,0.08958265576958656,-0.4089075486272573,0.45434754967913027
1772790231889424100,20.435424072265626,0.07144026535749436,-0.12379179936349391,0.6148645671106875
1772790231909459200,20.455459228515625,0.3427420088022947,-0.47206747689545153,0.2009456565948203
1772790231929494000,20.475493896484377,0.15579378830194474,-0.23675007002353668,0.33882925580535084
1772790231949529000,20.495529052734376,-0.05036649766862392,-0.2250198847413063,0.29777338812183585
1772790231969564000,20.51556396484375,1.101017706373334,-0.43729719228744507,0.12175316967535764
1772790231989599000,20.535598876953124,0.689384532174468,-0.3928787893682718,0.40746494860351085
1772790232009634000,20.555634033203123,0.1413859082430601,-0.2986883475422859,0.9433699607677757
1772790232029669000,20.575669189453127,0.31826281658411026,-0.5680015475183725,1.3194529520273208
1772790232049704200,20.5957041015625,0.3752069390773773,-0.6998381216496229,1.4089127120696008
1772790232069739000,20.615739013671874,-0.20007599762082098,-0.8571312085986137,1.1574239225976168
1772790232089774000,20.635774169921874,-0.4478554111808538,-0.4900274964779615,1.1052972833886743
1772790232109809200,20.65580908203125,-0.3841957166969776,-0.11961305237412452,1.1002566588729619
1772790232129844000,20.675843994140624,-0.47758594805598253,0.07698737809062003,1.755621432545781
1772790232149879000,20.695879150390624,-0.7156962005168199,0.1614765101134777,2.13755797213912
1772790232169914000,20.7159140625,-0.20985797144472598,0.3299655293375253,1.750889727848768
1772790232189949000,20.735948974609375,0.5155535674005747,0.11342734947651624,1.3266200671777129
1772790232209984000,20.75598388671875,1.6679928334534166,0.19020751455724239,1.2256044555068015
1772790232230019000,20.77601904296875,2.835857047653198,0.6071431790784001,0.5653649154044688
1772790232250054100,20.79605419921875,3.3209026640653607,0.5224748910963535,0.23324264642447232
1772790232270089200,20.816089111328125,3.7731355596780776,1.000256653985381,0.059328679542243475
1772790232290124300,20.836124267578125,4.076088578927517,1.8268717282891271,-0.5259384755536913
1772790232310158800,20.856158935546876,4.361877697408199,2.9173242015063763,-0.48768444048315285
1772790232330194000,20.87619384765625,4.551908101832867,3.9762311973810194,-0.4605354445338249
1772790232350229000,20.89622900390625,3.679040979442,3.544044479975104,0.3646896367162466
1772790232370264000,20.91626416015625,2.5158546939253807,3.2865105651199817,1.6051900480598211
1772790232390299100,20.936299072265626,1.6854080786347387,2.781471669732034,1.9516519541680812
1772790232410334200,20.956334228515626,0.9070411946713924,2.5675232141032813,1.0708709899127482
1772790232430369000,20.976369140625,0.040945758372545236,2.8093977875337,0.8575251763522624
1772790232450404000,20.996404052734373,-0.849674462851882,2.2779281274683774,1.0195376930385827
1772790232470439000,21.01643896484375,-1.0524994669198988,1.1440233198851346,0.9256026872783899
1772790232490474000,21.036473876953124,-1.3901444448441267,0.49906259745731946,0.6245429344296455
1772790232510509000,21.056509033203124,-1.612273284319043,-0.13342501236647367,0.011059738674759864
1772790232530544000,21.076544189453124,-1.029654890166223,-0.19600830979049205,-0.2769488094210625
1772790232550579000,21.096578857421875,-0.5967372281372547,-0.36028409523367877,-0.7694652001053094
1772790232570614000,21.116614013671875,-0.74076166819036,-0.473592202244699,-0.8180231870472431
1772790232590649000,21.136649169921874,-1.5524410391688346,-0.8242638350024819,-0.4523819486945867
1772790232610684200,21.15668408203125,-2.743444136893749,-1.6427198605090378,0.0045054947257041926
1772790232630719000,21.176718994140625,-3.7029178218528624,-2.0981658729493615,1.1136755278944968
1772790232650754600,21.196754638671877,-4.410284877702593,-1.9328645438507197,1.8882395124435423
1772790232670789400,21.216789306640624,-5.379847118216753,-1.308874274867773,2.7725556650876997
1772790232690824400,21.236824462890624,-6.2766556726872915,-0.26612726341634985,4.27162985572815
1772790232710859500,21.256859619140624,-7.562803151962161,0.14731968220621347,5.24331566426754
1772790232730894600,21.27689453125,-8.53600228767395,0.09971242011785507,5.793311599496007
1772790232750929700,21.2969296875,-8.979813391900063,0.20544015500247478,5.828118124461174
1772790232770964500,21.316964599609374,-8.212223922538756,-0.10891893214136361,4.980983993741869
1772790232790999300,21.336999267578125,-5.841307860901951,-0.10540887819379567,3.569481703570485
1772790232811034400,21.357034423828125,-4.751318329021334,-0.3378548212826252,1.6135463729947805
1772790232831069400,21.3770693359375,-2.591112764005363,-0.22915946876406668,0.731781658399105
1772790232851104500,21.3971044921875,-1.9099574232548475,0.16122575022280214,-0.286062090203166
1772790232871139600,21.4171396484375,-1.2365870372921228,0.6640367404282093,-0.4991507141321897
1772790232891174700,21.437174560546875,-0.4445809195548296,1.4589189981237054,-0.873947318843007
1772790232911209500,21.45720947265625,-0.588068183991313,1.9280267484307287,-0.3023182284772396
1772790232931244300,21.477244384765626,-0.8484370300114155,2.323513674470782,-0.41166473838090895
1772790232951279400,21.497279296875,-0.31676585602462287,2.9853847612977025,0.20673954716324805
1772790232971314400,21.517314453125,0.12816986831724642,3.992058296588063,0.7560299644708633
1772790232991349500,21.537349609375,0.07845803516507148,3.5733836794450875,0.726567138621211
1772790233011384600,21.557384521484376,0.6124164433062076,3.0589538553774354,0.460235000282526
1772790233031419400,21.57741943359375,1.579238445201516,3.0591642832577226,0.3463677980840206
1772790233051454500,21.597454345703124,2.177970646548271,2.983374005997181,-0.3316366774201393
1772790233071489500,21.617489501953123,2.6867805849075315,2.274083580869436,-1.5504069029927252
1772790233091524400,21.6375244140625,3.060322221121192,1.0735936198096723,-2.342505375188589
1772790233111559400,21.657559326171874,3.7801334557414052,0.8813636595141142,-2.318255315551162
1772790233131594500,21.677594482421874,4.238115708661079,1.4479073363743722,-2.6633839272290465
1772790233151629600,21.697629638671874,4.756084520509839,0.9073403237484395,-2.801636213621497
1772790233171664400,21.717664306640625,5.524816145643592,0.6500637446552515,-2.894492776495218
1772790233191699500,21.737699462890625,7.593250897195935,0.29962972004562616,-4.0417946796596045
1772790233211734500,21.757734619140624,7.723930702507495,-0.165768215958029,-4.403812466818094
1772790233231769600,21.77776953125,6.821546978253126,0.4016900184638798,-4.540834919154643
1772790233251804700,21.7978046875,5.0196004323840135,1.9501056015089153,-4.586033074274659
1772790233271839500,21.817839599609375,3.550786939972639,2.602059397694468,-4.450668326017261
1772790233291874300,21.837874267578126,3.1495059407010673,4.678991343957185,-6.154740773111581
1772790233311909400,21.857909423828126,3.6852643840014934,7.189563129043579,-6.772445385953784
1772790233331944400,21.8779443359375,3.92865345364809,10.116008210116624,-7.927071348395943
1772790233351979500,21.8979794921875,3.480208844402432,11.3579991522789,-8.931931696784496
1772790233372014600,21.9180146484375,3.6543139499425887,14.120409855449198,-7.437754046013951
1772790233392049700,21.938049560546876,2.8590850707665085,17.288626049578188,-4.149690990754961
1772790233412084500,21.95808447265625,2.0235864327833055,21.091972038602826,1.221843641668558
1772790233432119300,21.978119384765623,0.5333551815509796,21.653466103923318,6.7406573320269585
1772790233452154400,21.998154296875,1.4844085364282131,22.19970180983543,13.031769400089978
1772790233472189400,22.018189453125,2.249262443345785,19.85088242919445,17.137134342384336
1772790233492224500,22.038224609375,2.2823203710779545,14.313968434000014,16.597163542085884
1772790233512258600,22.058258544921873,1.8959473103418945,8.43460118381679,14.600788649094104
1772790233532293600,22.078293701171877,1.9287842887997626,3.514076627212763,13.86973062879443
1772790233552328700,22.09832861328125,2.4271466290332375,0.7366390353024005,14.960360796666144
1772790233572363300,22.11836328125,3.5740310374379156,-1.3933096308767794,14.749786785906553
1772790233592398300,22.1383984375,4.82010895665288,-2.761771820744872,12.19624328957796
1772790233612433400,22.158433349609375,5.2880473709195845,-3.3369010281860825,8.897740673369169
1772790233632468500,22.178468505859374,5.843761683794856,-2.8917414319604635,7.014110700547695
1772790233652503300,22.19850341796875,6.26194325672388,-2.0999784753292796,5.878111697164178
1772790233672538400,22.218538330078125,4.887681440666317,-1.5814964532613753,5.0740533225834366
1772790233692573200,22.2385732421875,3.43976051415801,-0.17807926986813544,5.198690925121307
1772790233712608300,22.258608154296876,1.3559410003386436,2.1428122394055125,4.0979494053408505
1772790233732643300,22.278643310546876,-1.1729074690639971,1.5252917509585617,1.8919097253888844
1772790233752678400,22.298678466796876,-2.4628712917566298,-0.04076923276185989,0.335055838213861
1772790233772713500,22.31871337890625,-3.1257579853668807,-1.1416630204945801,-0.19188100072741507
1772790233792748300,22.338748291015627,-3.6738700065448877,-1.2077426356017589,0.12039046648740767
1772790233812783400,22.358783447265626,-4.781502747143805,-1.0140537086695431,-0.17661095088124273
1772790233832818200,22.378818115234374,-5.7033010737031695,-1.2578063509315252,0.18876929844766854
1772790233852853200,22.398853271484374,-6.240177999639511,-1.1167618034720421,1.3680281823650002
1772790233872888300,22.418888427734377,-6.473205249747633,-0.7059685872286557,3.036507630291581
1772790233892923400,22.43892333984375,-6.495850796797871,-0.6581704787433147,4.788540975217521
1772790233912958500,22.45895849609375,-5.942708380237222,-0.8756360025823116,5.931226616758107
1772790233932993500,22.47899365234375,-4.910984574842453,-1.2252636792451141,6.547733544248342
1772790233953028000,22.499028076171875,-3.2338387131184336,-1.1969301496863365,7.3753884829938405
1772790233973063200,22.519063232421875,-1.1299427720844746,-1.501277838164568,7.364600546997785
1772790233993098200,22.53909814453125,1.2224018600732087,-1.9581115055710077,7.497313319441676
1772790234013133300,22.55913330078125,3.788395672652125,-2.5720085428237915,7.350610600090026
1772790234033168400,22.57916845703125,5.739738414740562,-3.3710248315840956,6.168484051781893
1772790234053203500,22.599203369140625,6.634830812942981,-4.737032614037394,4.71771942628026
1772790234073238300,22.61923828125,7.14263771173954,-4.23686483181715,4.598673067878186
1772790234093273300,22.6392734375,6.649768854355812,-2.9309429770141837,5.304401124349236
1772790234113308400,22.659308349609375,6.20685089957714,-1.1861094804644583,6.205016669887304
1772790234133343200,22.67934326171875,5.078610255235433,0.46351709069311614,6.672328476688265
1772790234153378300,22.69937841796875,3.161060184894502,0.5708581059932708,6.167980193912983
1772790234173413400,22.719413330078126,1.3131962297201156,-0.7350766082912683,5.769748937600851
1772790234193448200,22.7394482421875,0.1958987119361758,-1.5053186379879713,6.11194091130495
1772790234213482500,22.759482421875,-0.6884326382771134,-1.8102859196692704,6.521524751758575
1772790234233517300,22.779517333984376,-1.472578982424736,-1.7236147674322126,6.470201391756534
1772790234253552000,22.79955224609375,-1.9460399595052003,-1.1370943974047898,6.228531985509395
1772790234273587200,22.819587158203124,-2.0130039562314748,0.07945698307454585,5.982794306910038
1772790234293622300,22.839622314453123,-2.619740600335598,1.5093787270337342,5.52013704791665
1772790234313657300,22.8596572265625,-2.963612489950657,2.869615524870157,5.027320797502994
1772790234333692400,22.8796923828125,-2.9131477926045655,4.316059364563227,4.721234740924835
1772790234353727200,22.899727294921874,-3.1032962704509495,5.418492198431491,4.185025338986516
1772790234373762300,22.91976220703125,-3.0572160717993975,6.4668140874058,4.003276440694928
1772790234393797400,22.93979736328125,-3.2935511312812564,7.34034522666335,3.5632875251054763
1772790234413832400,22.95983251953125,-3.857878374201059,7.17630091188848,2.7207331233918666
1772790234433867300,22.9798671875,-4.437825795578957,6.377931104338169,1.9564017790436743
1772790234453902300,22.99990234375,-4.708073061534762,5.792344800290465,1.32575818965137
1772790234473937200,23.019937255859375,-4.816793548494577,5.494342096924782,0.8256202180474996
1772790234493972200,23.03997216796875,-4.738060788041353,5.4845279743969435,0.22270693162381647
1772790234514007300,23.06000732421875,-4.544708545717596,5.636266934350132,-0.5408183570384979
1772790234534042400,23.08004248046875,-4.2731759161263705,5.823570544159412,-1.2982049968153238
1772790234554077400,23.100077392578125,-3.8382390232294794,6.155943719160557,-1.799006985285878
1772790234574112500,23.120112548828125,-3.3265783716142177,6.429918481206894,-2.277752624770999
1772790234594147300,23.140147216796876,-2.685389715071022,6.609179654335975,-2.6421342184513805
1772790234614182100,23.16018212890625,-1.8197879075080154,6.920155236521363,-3.1091525952637196
1772790234634217200,23.18021728515625,-1.0505582697242497,6.989173243167996,-3.673130878615379
1772790234654251800,23.200251708984375,-0.21742577635049817,7.018094217225909,-4.167598987889289
1772790234674286800,23.220286865234375,0.2589794374883175,7.018453698188066,-4.521387291362881
1772790234694322000,23.240322021484374,0.6934951823636889,7.433250889375805,-4.809679917097092
1772790234714357000,23.26035693359375,1.0650070663154125,7.429797534051537,-5.065913270747662
1772790234734391800,23.280391845703125,2.221927715566009,7.61121968460679,-5.082936301741004
1772790234754425900,23.30042578125,3.947928647482395,8.196409098291397,-5.199433852443098
1772790234774460700,23.320460693359376,5.264126981627941,8.856047311499715,-5.592075325924157
1772790234794495700,23.340495849609376,5.774951182419061,9.508111874583363,-6.411629960322379
1772790234814530800,23.36053076171875,5.978810205709934,9.379266298961639,-6.007567513638734
1772790234834566000,23.38056591796875,5.670279678589106,8.947060876855254,-5.588243200415373
1772790234854601000,23.40060107421875,5.535989281564951,8.67158856972754,-4.703891391935945
1772790234874636000,23.420635986328126,5.213425552916527,8.288341532057522,-2.7216373787552115
1772790234894670800,23.4406708984375,4.652400858673453,7.706283402135968,-0.8403238661825656
1772790234914705700,23.46070556640625,4.2213107043325895,7.5055223448604345,1.110672838947177
1772790234934740700,23.48074072265625,3.472086912745237,8.37320768069923,4.06791345577836
1772790234954775800,23.50077587890625,1.6895640292704104,8.997558891949057,6.934322293561697
1772790234974811000,23.520810791015624,-0.3241843155875802,8.004186736780404,9.017494010996819
1772790234994846000,23.540845947265623,-1.5689152041077612,5.602770322939754,11.020347744613884
1772790235014880800,23.560880859375,-1.878277213616669,2.9764181955099103,13.2946195415318
1772790235034915800,23.580915771484374,-2.2684806462958456,-0.398206706392765,14.285896185725926
1772790235054951000,23.600950927734374,-2.498938045915961,-3.218884889614582,13.165751169556378
1772790235074985700,23.62098583984375,-2.134775647944212,-3.919446064841747,11.572333976876735
1772790235095020800,23.641020751953125,-1.3867524643182754,-2.7152643365919586,9.96413071847558
1772790235115055900,23.661055908203124,-1.6168702567204831,-1.5300550198376177,8.170947324776648
1772790235135091000,23.681091064453124,-2.0770368679419158,-0.38047640391290183,6.102491530436277
1772790235155125800,23.701125732421875,-2.7089590989679095,0.23783669621646403,3.5713571420535444
1772790235175160800,23.721160888671875,-3.22679639339149,-0.20235680203437803,1.2514029136300087
1772790235195195000,23.74119482421875,-3.2142174823254344,-0.5716875425547361,0.11426730743199587
1772790235215229700,23.761229736328126,-3.2853897443965074,-1.0897393565118312,-0.8397299919426441
1772790235235264800,23.7812646484375,-3.364382909351587,-1.7487001088500023,-1.0666457734331487
1772790235255299800,23.8012998046875,-3.436429908430576,-2.033970171892643,-0.64363225030303
1772790235275335000,23.8213349609375,-3.776506205154955,-2.0005536399811503,-0.17343027501851319
1772790235295370000,23.841369873046876,-3.899557415284216,-1.2217927882641553,0.3914472952604294
1772790235315404800,23.86140478515625,-4.1958655896916985,-0.3506879993706941,0.653235068167746
1772790235335440000,23.88143994140625,-4.2525247577637435,0.6255611715614795,0.7860127225413918
1772790235355475000,23.901474853515627,-4.559476491260528,1.4766624523460865,0.879031490239501
1772790235375509800,23.921509765625,-4.947260003316402,1.8589444443762302,1.2666864074796438
1772790235395544800,23.941544921875,-4.575463749465346,2.183323698014021,3.3059213680326938
1772790235415580000,23.961579833984374,-2.054576322069764,3.243456436291337,7.381544083014131
1772790235435614700,23.98161474609375,1.6830191376715897,2.157723977333307,11.757690544271469
1772790235455649800,24.00164990234375,6.484983950346708,-1.5381348659187555,14.506440970879792
1772790235475684900,24.021684814453124,9.959230086952447,-7.324242817646264,14.658043737232685
1772790235495720000,24.041719970703124,12.14180325886011,-9.068549075451493,12.233780116289854
1772790235515755000,24.061755126953123,12.629981912600993,-6.754228176739812,9.351521382945775
1772790235535790000,24.0817900390625,12.56888885373473,-3.106576022773981,4.177466594170034
1772790235555824600,24.10182470703125,12.807038269162177,-0.25155133331418034,-5.1488569268941875
1772790235575859700,24.121859619140626,12.889198665976524,4.574540789401531,-9.916061976355314
1772790235595893800,24.141893798828125,6.185913325488567,2.9526357533842322,-6.730884710553288
1772790235615928800,24.1619287109375,1.2635720748513937,2.93145326462388,-2.6541414671093224
1772790235635964000,24.1819638671875,-1.3137012566328048,3.948769774481654,-0.9568851297706366
1772790235656000000,24.202,-2.716375512704253,3.2659412398219105,0.029302374590933322
1772790235676034800,24.222034912109375,-3.1078502804934978,3.138706606528163,1.2127785839423537
1772790235696069600,24.242069580078127,-4.640883439359069,2.9203628385499116,1.7493420600153504
1772790235716104700,24.262104736328126,-5.321368041241168,2.6333669746279713,2.1646850485175846
1772790235736139800,24.282139892578126,-4.7530356543332335,2.45682850446105,2.807932975678146
1772790235756174800,24.3021748046875,-3.4890894854724404,2.398102759248018,3.5183830922350285
1772790235776210000,24.3222099609375,-3.1082991933047768,1.6261685386806726,4.1863486965447665
1772790235796244700,24.34224462890625,-2.9988854633837936,1.1364257043629884,4.796455986125767
1772790235816279800,24.36227978515625,-2.6000264305621386,1.705700925078988,5.173279420489073
1772790235836315000,24.38231494140625,-2.5983085207283496,2.1066759271413087,4.374520613621175
1772790235856349700,24.402349609375,-2.9140450337052344,1.949278210774064,2.9994974578022955
1772790235876384800,24.422384765625,-2.7387714689075944,1.9947224496096372,1.9483312853127717
1772790235896419800,24.442419921875,-2.253862046095729,2.5255624334692954,1.3496400004982947
1772790235916455000,24.462454833984374,-2.0298954697996376,3.421141153883934,0.7580904041320085
1772790235936489700,24.48248974609375,-2.0225456915587188,4.31204311465919,0.0665448945313692
1772790235956523800,24.502523681640625,-2.421440380215645,5.071754982513189,-0.6433043335229158
1772790235976558800,24.522558837890625,-2.60048937189877,5.823491633704305,-1.4037708191365004
1772790235996593700,24.54259375,-2.86821091876924,6.271403743508458,-2.3332506401091813
1772790236016628700,24.562628662109375,-2.6499878545612097,6.599312924838066,-3.4676135667234655
1772790236036663800,24.582663818359375,-1.3926122962623835,7.439857740294933,-4.443937556457519
1772790236056699000,24.602698974609375,-0.2074742911785841,8.475397889107466,-5.635405349084735
1772790236076734000,24.62273388671875,-0.06054360828995704,7.881193978840113,-7.20953565749228
1772790236096768800,24.642768798828126,-0.21471242573857305,6.711843909996747,-8.519559686917066
1772790236116803800,24.662803955078125,0.11117197176516055,5.894628532201051,-8.831392762714623
1772790236136839000,24.6828388671875,0.40039954026192426,5.364010082137584,-8.4405516166538
1772790236156873700,24.702873779296876,0.6427864471286535,4.42680551213175,-8.128245662647485
1772790236176908800,24.72290869140625,1.5156138220310211,3.6637925569057463,-7.058329781502485
1772790236196944000,24.74294384765625,2.8677810029193758,3.6218683088898658,-5.546037797370553
1772790236216978700,24.762978759765623,4.9007867136940355,4.905064537143707,-3.5790894898712633
1772790236237013800,24.783013671875,6.607113953977823,6.08124357522428,-1.2394114470630884
1772790236257048800,24.803048828125,7.266496731120347,6.3852966646701095,0.8934650892615318
1772790236277083000,24.823082763671874,6.20468699954152,5.287567478448152,3.390616836282611
1772790236297117700,24.84311767578125,4.093481612277031,3.579974456012249,5.998815467384457
1772790236317152800,24.86315283203125,1.7793232106506824,0.4900678284883499,7.789153993046283
1772790236337187800,24.883187744140624,0.299430398081243,-1.4852596002995968,9.15227540640831
1772790236357223000,24.903222900390624,-0.32789953671842814,-3.1454771235764025,9.282892667877674
1772790236377257700,24.9232578125,0.030839667160809037,-4.267496116924286,7.880465664565563
1772790236397292800,24.943292724609375,0.8250552776411175,-4.056398374551534,6.1321028248459095
1772790236417327900,24.963327880859374,1.386785197544098,-3.1181402038395403,4.853948682412505
1772790236437363000,24.983363037109374,1.5514745322242378,-1.7748007647901773,3.734722534653544
1772790236457397800,25.003397705078125,0.9848694075003266,-0.5699982742935419,1.8272215646401047
1772790236477432800,25.023432861328125,0.444529773889482,-0.4055103074043989,0.26881752541363235
1772790236497467600,25.043467529296876,0.07853197718411684,-0.22573183240294456,-0.8102806100964546
1772790236517502700,25.063502685546876,-0.5089157368212938,-0.16596622274816036,-1.423855575788021
1772790236537537800,25.083537841796876,-1.0029469159826636,0.2196171489149332,-1.6479162601083517
1772790236557572900,25.10357275390625,-1.8301722311392425,0.45650516610443587,-1.890467125365138
1772790236577608000,25.12360791015625,-2.343845976142585,0.6604109511464834,-2.149164238780737
1772790236597641700,25.143641845703126,-2.4779154238924384,0.8614379658818244,-2.670771114870906
1772790236617676800,25.1636767578125,-2.178340356643498,1.2913327729582786,-3.074249624186754
1772790236637712000,25.1837119140625,-2.0598235750734806,1.1112269656985998,-3.6263778952687975
1772790236657746700,25.20374658203125,-1.8624167966619132,0.9781950443029404,-2.7713082953751087
1772790236677781800,25.22378173828125,-1.7154074955791234,0.984290438568592,-0.6638496934235095
1772790236697816800,25.24381689453125,-0.5700725085735321,2.267254611632228,3.221754892092943
1772790236717852000,25.263851806640623,-0.05862140805572271,3.221628050842881,6.567382247570157
1772790236737887000,25.283886962890627,-0.0760913060337305,2.1122598647534847,8.96100113940239
1772790236757922000,25.303922119140626,0.2478857965439558,-0.06582300999760628,10.573119525420665
1772790236777956600,25.32395654296875,1.0100263528496027,-2.7429472932875156,11.398873598980902
1772790236797991700,25.34399169921875,2.353765604871511,-4.824382396188378,11.814880165958403
1772790236818026800,25.36402685546875,3.106715723505616,-6.346914619305729,10.480470467817783
