time,seconds_elapsed,z,y,x
1772790211523761400,0.069761474609375,-0.2512553930282593,-0.8698049187660217,0.4112384021282196
1772790211543796500,0.08979638671875,-0.3303377032279968,-1.08548104763031,0.5501105189323425
1772790211563831600,0.10983154296875,-0.7346113920211792,-1.4805095195770264,-0.1294192373752594
1772790211583867600,0.12986767578125,-1.0902986526489258,-1.471732258796692,-0.5874539017677307
1772790211603902500,0.14990234375,-1.0095926523208618,-1.5198948383331299,-0.5189659595489502
1772790211623937500,0.1699375,-0.812401533126831,-0.991722583770752,-0.14524561166763306
1772790211643972000,0.18997216796875,-0.7315807342529297,-0.5780284404754639,0.16807395219802856
1772790211664007000,0.2100068359375,-0.8433826565742493,-0.28386980295181274,0.3554113507270813
1772790211684043300,0.230043212890625,-0.9136967658996582,-0.03797294944524765,0.36751464009284973
1772790211704078000,0.250078125,-0.9211024641990662,0.28228363394737244,0.3522033095359802
1772790211724113000,0.27011279296875,-0.8880153298377991,0.6709509491920471,0.4283934235572815
1772790211744148000,0.29014794921875,-0.8209694623947144,1.1595208644866943,0.5060940980911255
1772790211764183000,0.31018310546875,-0.7865997552871704,1.4087259769439697,0.48585405945777893
1772790211784219100,0.33021923828125,-0.8908971548080444,1.4060139656066895,0.43742021918296814
1772790211804254000,0.35025390625,-1.060530185699463,0.7233092188835144,0.0630737766623497
1772790211824289000,0.3702890625,-1.1165965795516968,0.7740768194198608,-0.5006596446037292
1772790211844324000,0.390323974609375,-1.4070038795471191,1.4473897218704224,-1.1588106155395508
1772790211864359200,0.410359130859375,-1.943604826927185,2.0062220096588135,-1.4141851663589478
1772790211884395000,0.43039501953125,-2.296969413757324,3.0860564708709717,-1.1319917440414429
1772790211904430000,0.45043017578125,-2.4320921897888184,3.4797263145446777,-0.10031355172395706
1772790211924465200,0.470465087890625,-2.661724805831909,3.362751007080078,0.6548835635185242
1772790211944500000,0.4905,-3.0684168338775635,3.7519776821136475,0.42689433693885803
1772790211964535000,0.51053515625,-3.1130990982055664,3.445662021636963,-0.007216633763164282
1772790211984571000,0.53057080078125,-2.497957468032837,3.2180304527282715,-0.4777655005455017
1772790212004606000,0.55060595703125,-2.021120548248291,3.786200761795044,-1.4534432888031006
1772790212024641000,0.57064111328125,-1.8564213514328003,4.596186637878418,-2.084218978881836
1772790212044676000,0.590676025390625,-1.5448342561721802,5.539182186126709,-1.6928942203521729
1772790212064711200,0.610711181640625,-1.0508277416229248,5.23176383972168,-0.6469912528991699
1772790212084746200,0.630746337890625,-1.3915719985961914,4.2409138679504395,0.5380658507347107
1772790212104782000,0.650781982421875,-2.3390262126922607,3.8270201683044434,1.1197148561477661
1772790212124817200,0.670817138671875,-3.3134069442749023,3.8814492225646973,1.1649737358093262
1772790212144852200,0.690852294921875,-4.425436496734619,3.810194492340088,1.400956153869629
1772790212164887000,0.710886962890625,-5.367340087890625,3.5548839569091797,1.512734293937683
1772790212184921900,0.730921875,-6.142958164215088,3.4150826930999756,1.1981122493743896
1772790212204958000,0.7509580078125,-6.784089088439941,3.286813974380493,1.0981779098510742
1772790212224993000,0.770992919921875,-7.178893089294434,3.21716570854187,1.324675440788269
1772790212245028000,0.791028076171875,-7.0096235275268555,3.2162578105926514,1.7703778743743896
1772790212265063200,0.811063232421875,-6.471460819244385,3.0037407875061035,2.2318954467773438
1772790212285098000,0.831097900390625,-5.885523319244385,2.3068807125091553,2.709965229034424
1772790212305133000,0.851133056640625,-5.568219184875488,1.2788598537445068,3.1829993724823
1772790212325169200,0.871169189453125,-5.198888778686523,0.3048429787158966,3.218292713165283
1772790212345204200,0.891204345703125,-4.539422988891602,-0.36853861808776855,2.833514451980591
1772790212365239000,0.911239013671875,-3.513572931289673,-0.7809144854545593,2.326241970062256
1772790212385274000,0.931274169921875,-2.0416855812072754,-1.1210863590240479,1.7256343364715576
1772790212405309000,0.951308837890625,-0.3965305685997009,-1.72926664352417,1.0073676109313965
1772790212425345300,0.97134521484375,0.9715073108673096,-2.2654480934143066,0.13618767261505127
1772790212445380000,0.991380126953125,2.057264804840088,-2.613250255584717,-0.816292405128479
1772790212465415000,1.011414794921875,2.8132083415985107,-2.9871089458465576,-1.7103179693222046
1772790212485450000,1.031449951171875,3.1045053005218506,-3.565422296524048,-2.311758518218994
1772790212505485000,1.051485107421875,3.0325376987457275,-4.284501552581787,-2.6110024452209473
1772790212525520100,1.07152001953125,2.593813419342041,-4.842553615570068,-2.7816238403320312
1772790212545556000,1.091555908203125,1.832905650138855,-5.187532901763916,-2.7920501232147217
1772790212565591000,1.111591064453125,1.066448450088501,-5.105765342712402,-2.7089219093322754
1772790212585626000,1.131626220703125,0.5978085398674011,-4.6112847328186035,-2.6331570148468018
1772790212605661200,1.1516611328125,0.38677912950515747,-3.4001407623291016,-2.3141095638275146
1772790212625696300,1.1716962890625,0.23092509806156158,-1.7223855257034302,-1.5990405082702637
1772790212645731300,1.1917314453125,0.04608333855867386,-0.24408216774463654,-0.8127503991127014
1772790212665767400,1.211767333984375,-0.26101455092430115,0.7890738248825073,-0.3767493963241577
1772790212685802200,1.23180224609375,-0.6812520623207092,1.210711121559143,-0.2451184093952179
1772790212705837300,1.25183740234375,-1.137427806854248,1.2261179685592651,-0.17728875577449799
1772790212725872400,1.271872314453125,-1.370988130569458,0.7904219627380371,-0.07308752834796906
1772790212745907200,1.2919072265625,-1.1882481575012207,0.15085449814796448,0.03205673769116402
1772790212765942300,1.3119423828125,-0.6374321579933167,-0.47847044467926025,0.04980989918112755
1772790212785978400,1.331978271484375,-0.09784772992134094,-1.1295280456542969,0.014650315046310425
1772790212806013400,1.352013427734375,0.16427096724510193,-1.6671524047851562,-0.10635120421648026
1772790212826048300,1.37204833984375,0.3891826272010803,-1.9240676164627075,-0.37187156081199646
1772790212846083300,1.392083251953125,0.8540653586387634,-2.0126571655273438,-0.7420507073402405
1772790212866118400,1.412118408203125,1.2475074529647827,-1.7677533626556396,-0.9690976738929749
1772790212886153200,1.4321533203125,1.5267471075057983,-1.3771603107452393,-1.0042482614517212
1772790212906189300,1.452189208984375,1.7052552700042725,-0.9848657250404358,-0.8481220006942749
1772790212926224100,1.47222412109375,1.7338075637817383,-0.6899589896202087,-0.48626258969306946
1772790212946259200,1.49225927734375,1.6048933267593384,-0.33101439476013184,-0.08439770340919495
1772790212966294300,1.512294189453125,1.4860763549804688,-0.04953799024224281,0.3038163483142853
1772790212986329300,1.532329345703125,1.4103929996490479,0.25367462635040283,0.6372883319854736
1772790213006364400,1.552364501953125,1.3171318769454956,0.6157736778259277,0.7594667077064514
1772790213026400300,1.572400146484375,1.1011667251586914,1.0082613229751587,0.7766949534416199
1772790213046435300,1.592435302734375,0.8324934840202332,1.3728536367416382,0.8539758920669556
1772790213066470400,1.612470458984375,0.6556153893470764,1.8608959913253784,1.021377444267273
1772790213086505500,1.63250537109375,0.5720930695533752,2.463942289352417,1.301212191581726
1772790213106540300,1.652540283203125,0.5386107563972473,3.067253589630127,1.6293901205062866
1772790213126575000,1.6725751953125,0.5298281908035278,3.5974462032318115,1.9137102365493774
1772790213146611200,1.692611083984375,0.5287887454032898,3.9851901531219482,2.1211986541748047
1772790213166646300,1.712646240234375,0.5782811641693115,4.228221893310547,2.2281906604766846
1772790213186681300,1.732681396484375,0.7273939847946167,4.234312057495117,2.211749792098999
1772790213206716400,1.75271630859375,0.9706599116325378,4.034712314605713,2.116427183151245
1772790213226751200,1.772751220703125,1.2795850038528442,3.574700117111206,1.97305166721344
1772790213246786300,1.792786376953125,1.6385183334350586,2.895564317703247,1.7102972269058228
1772790213266822400,1.812822509765625,1.9706648588180542,2.112896680831909,1.2446656227111816
1772790213286857500,1.832857421875,2.1489691734313965,1.1353143453598022,0.6190382242202759
1772790213306892300,1.852892333984375,2.3059029579162598,0.045629534870386124,-0.15082040429115295
1772790213326927400,1.87292724609375,2.4158990383148193,-1.0409140586853027,-0.8529396653175354
1772790213346962200,1.892962158203125,2.492042064666748,-1.939211130142212,-1.3481630086898804
1772790213366997200,1.912997314453125,2.4898505210876465,-2.583122730255127,-1.6045210361480713
1772790213387032300,1.9330322265625,2.4755570888519287,-3.0640459060668945,-1.6114699840545654
1772790213407068200,1.953068115234375,2.359131336212158,-3.382150411605835,-1.39849054813385
1772790213427103200,1.973103271484375,2.052790880203247,-3.2588748931884766,-1.1459803581237793
1772790213447138300,1.99313818359375,1.6785163879394531,-2.6869423389434814,-0.9380127191543579
1772790213467173400,2.01317333984375,1.1987993717193604,-2.0658793449401855,-0.863286018371582
1772790213487208400,2.03320849609375,0.6151241660118103,-1.3208434581756592,-0.7494097948074341
1772790213507243500,2.053243408203125,-0.026745060458779335,-0.5974109172821045,-0.43129122257232666
1772790213527279400,2.073279296875,-0.5942468643188477,0.10187389701604843,0.0038836877793073654
1772790213547314400,2.093314453125,-0.9832369089126587,0.7542114853858948,0.23398719727993011
1772790213567349500,2.113349609375,-1.3799052238464355,1.2311795949935913,0.2564706802368164
1772790213587384300,2.13338427734375,-1.88204824924469,1.3960602283477783,0.3463214635848999
1772790213607419100,2.153419189453125,-2.310781240463257,1.3025057315826416,0.43594828248023987
1772790213627454200,2.1734541015625,-2.660766124725342,1.0084850788116455,0.3326232135295868
1772790213647488500,2.193488525390625,-2.9294652938842773,0.6475622653961182,0.02695864625275135
1772790213667524600,2.213524658203125,-3.175132989883423,0.2348543256521225,-0.3846973478794098
1772790213687559700,2.2335595703125,-3.4119625091552734,-0.2178066223859787,-0.7455815076828003
1772790213707594800,2.2535947265625,-3.7081093788146973,-0.5469797253608704,-0.9350222945213318
1772790213727629600,2.273629638671875,-3.903519630432129,-0.6824747323989868,-0.8750782608985901
1772790213747664600,2.29366455078125,-3.821824789047241,-0.4956667423248291,-0.7138677835464478
1772790213767699700,2.31369970703125,-3.3499135971069336,-0.07166140526533127,-0.5426536798477173
1772790213787735800,2.33373583984375,-2.6664011478424072,0.5611613392829895,-0.26537200808525085
1772790213807770400,2.353770263671875,-1.8373398780822754,0.9208998084068298,0.009472064673900604
1772790213827805400,2.373805419921875,-0.9713086485862732,0.9274389147758484,0.024343956261873245
1772790213847840500,2.393840576171875,-0.1964278370141983,0.686870813369751,-0.3331769108772278
1772790213867875600,2.41387548828125,0.4319825768470764,0.16539135575294495,-0.9387376308441162
1772790213887910700,2.43391064453125,0.8581586480140686,-0.5012854933738708,-1.5811336040496826
1772790213907945700,2.45394580078125,1.084086537361145,-1.1261615753173828,-2.029329299926758
1772790213927981600,2.473981689453125,1.1524012088775635,-1.8172452449798584,-2.2336831092834473
1772790213948016600,2.4940166015625,1.118746042251587,-2.3996145725250244,-2.2745440006256104
1772790213968051700,2.5140517578125,1.027580738067627,-2.872509479522705,-2.1730353832244873
1772790213988086800,2.534086669921875,0.9112125635147095,-3.2126145362854004,-2.027194023132324
1772790214008121600,2.55412158203125,0.7274930477142334,-3.410921573638916,-1.821606993675232
1772790214028156400,2.574156494140625,0.4437398910522461,-3.399808168411255,-1.5669991970062256
1772790214048191500,2.59419140625,0.1267520785331726,-3.213911533355713,-1.3029561042785645
1772790214068227600,2.6142275390625,-0.18688839673995972,-2.825571060180664,-1.036179542541504
1772790214088262700,2.6342626953125,-0.42824429273605347,-2.282249927520752,-0.7568533420562744
1772790214108297500,2.65429736328125,-0.5913088321685791,-1.6262861490249634,-0.5329201221466064
1772790214128332500,2.67433251953125,-0.7272264361381531,-0.9879049062728882,-0.33720093965530396
1772790214148367600,2.69436767578125,-0.894513726234436,-0.38146454095840454,-0.08745554834604263
1772790214168402700,2.714402587890625,-0.9984273314476013,0.12530039250850677,0.19326665997505188
1772790214188438500,2.7344384765625,-1.0267460346221924,0.6373453140258789,0.45998090505599976
1772790214208473600,2.7544736328125,-1.0898523330688477,0.9849762320518494,0.7900688052177429
1772790214228508700,2.7745087890625,-1.1028163433074951,1.1085517406463623,1.1043236255645752
1772790214248543500,2.79454345703125,-1.207210898399353,1.0696024894714355,1.3663958311080933
1772790214268578600,2.81457861328125,-1.2748503684997559,0.8956506252288818,1.3268669843673706
1772790214288613600,2.834613525390625,-1.1220149993896484,0.7196612358093262,0.7197962403297424
1772790214308648700,2.854648681640625,-0.9444165825843811,0.5812604427337646,-0.12505193054676056
1772790214328684500,2.8746845703125,-0.8888459801673889,0.33373695611953735,-0.6528302431106567
1772790214348719600,2.8947197265625,-0.8480623364448547,0.12709057331085205,-0.8117645382881165
1772790214368754700,2.914754638671875,-0.740980863571167,0.08319209516048431,-0.7753630876541138
1772790214388789800,2.934789794921875,-0.5089175701141357,0.05506271868944168,-0.5970724821090698
1772790214408824600,2.954824462890625,-0.1682577133178711,-0.008815329521894455,-0.37665194272994995
1772790214428859600,2.974859619140625,0.2279447466135025,-0.11018642783164978,-0.22425228357315063
1772790214448894500,2.99489453125,0.5752124190330505,-0.17071661353111267,-0.0769917219877243
1772790214468930800,3.014930908203125,0.8638530373573303,-0.1958182454109192,0.03882782161235809
1772790214488965600,3.034965576171875,1.1015568971633911,-0.032098814845085144,0.07375144958496094
1772790214509000400,3.05500048828125,1.2677549123764038,0.2965613603591919,0.08685261011123657
1772790214529035500,3.075035400390625,1.3521806001663208,0.7743380665779114,0.1548881232738495
1772790214549070600,3.095070556640625,1.389582872390747,1.403791904449463,0.28476569056510925
1772790214569105700,3.115105712890625,1.3589974641799927,2.095607280731201,0.499446302652359
1772790214589140700,3.135140625,1.3138870000839233,2.7160000801086426,0.7491812705993652
1772790214609176600,3.155176513671875,1.2885746955871582,3.259672164916992,0.9319236874580383
1772790214629212400,3.17521240234375,1.2680034637451172,3.634751796722412,1.0166620016098022
1772790214649247500,3.19524755859375,1.3652095794677734,3.7651216983795166,0.9745765924453735
1772790214669282600,3.215282470703125,1.5787732601165771,3.6478593349456787,0.9038800597190857
1772790214689317400,3.2353173828125,1.8342125415802002,3.268169403076172,0.8145991563796997
1772790214709352200,3.255352294921875,2.123202085494995,2.7213284969329834,0.611115574836731
1772790214729387300,3.27538720703125,2.347287178039551,2.009800672531128,0.33760520815849304
1772790214749423400,3.29542333984375,2.459164619445801,1.1926718950271606,0.022122878581285477
1772790214769458200,3.315458251953125,2.4881973266601562,0.3409368097782135,-0.30865156650543213
1772790214789493200,3.3354931640625,2.4634411334991455,-0.4737241566181183,-0.5787363052368164
1772790214809528300,3.3555283203125,2.3642728328704834,-1.0460009574890137,-0.731106162071228
1772790214829563400,3.3755634765625,2.274400472640991,-1.5450363159179688,-0.7951400279998779
1772790214849598500,3.395598388671875,2.1745402812957764,-1.9078375101089478,-0.7521123886108398
1772790214869633500,3.415633544921875,1.9766242504119873,-2.106938123703003,-0.6141949892044067
1772790214889669400,3.43566943359375,1.6409621238708496,-2.045607805252075,-0.5148367285728455
1772790214909704400,3.455704345703125,1.2282658815383911,-1.6461997032165527,-0.47378674149513245
1772790214929739500,3.475739501953125,0.7775096297264099,-0.8746601343154907,-0.35418176651000977
1772790214949774300,3.4957744140625,0.21390002965927124,-0.0341302715241909,-0.1404428631067276
1772790214969809400,3.515809326171875,-0.31264764070510864,0.6410417556762695,0.15009468793869019
1772790214989844200,3.53584423828125,-0.7153216004371643,0.9945388436317444,0.46457645297050476
1772790215009879300,3.55587939453125,-0.9025838971138,1.1345134973526,0.7017623782157898
1772790215029915400,3.575915283203125,-0.8050112724304199,1.0242952108383179,0.6440170407295227
1772790215049950500,3.595950439453125,-0.8764305710792542,0.608951210975647,0.3806469440460205
1772790215069985300,3.6159853515625,-1.1044272184371948,0.1524510532617569,0.23299703001976013
1772790215090020400,3.636020263671875,-1.4375724792480469,-0.35226431488990784,0.21949134767055511
1772790215110055400,3.656055419921875,-1.996678113937378,-0.8619994521141052,0.25531458854675293
1772790215130090500,3.676090576171875,-2.49703311920166,-1.2681509256362915,0.14526185393333435
1772790215150125300,3.696125244140625,-2.918365478515625,-1.632557988166809,-0.12228702753782272
1772790215170160400,3.716160400390625,-3.1999549865722656,-1.677032470703125,-0.3922884166240692
1772790215190196200,3.7361962890625,-3.332298994064331,-1.581162929534912,-0.6195050477981567
1772790215210231300,3.756231201171875,-3.1696219444274902,-1.2869027853012085,-0.8312167525291443
1772790215230266400,3.776266357421875,-2.8843283653259277,-0.6367546319961548,-0.883602499961853
1772790215250301400,3.796301513671875,-2.6127524375915527,0.09863816201686859,-0.7421857118606567
1772790215270336500,3.81633642578125,-2.318408489227295,0.8641409277915955,-0.49732881784439087
1772790215290371300,3.836371337890625,-1.9463709592819214,1.5116232633590698,-0.2780390679836273
1772790215310406400,3.856406494140625,-1.4599018096923828,1.8082903623580933,-0.09304605424404144
1772790215330442500,3.8764423828125,-0.826449453830719,1.5499134063720703,-0.02280837669968605
1772790215350477600,3.8964775390625,-0.1912703514099121,0.9312435388565063,-0.1450682431459427
1772790215370512100,3.91651220703125,0.29902344942092896,0.12869831919670105,-0.4303140938282013
1772790215390547200,3.936547119140625,0.6055548787117004,-0.6795545220375061,-0.7839536666870117
1772790215410582300,3.956582275390625,0.7431995868682861,-1.4113075733184814,-1.055910348892212
1772790215430617300,3.976617431640625,0.7595926523208618,-2.0434279441833496,-1.242564082145691
1772790215450652400,3.99665234375,0.6480656266212463,-2.5408029556274414,-1.3506509065628052
1772790215470684400,4.016684326171875,0.4099110960960388,-2.8085834980010986,-1.3377740383148193
1772790215490719200,4.03671923828125,0.0840216651558876,-2.8438162803649902,-1.1946799755096436
1772790215510754300,4.05675439453125,-0.23249582946300507,-2.658823251724243,-1.013254165649414
1772790215530789400,4.076789306640625,-0.4561145305633545,-2.3071165084838867,-0.8849090337753296
1772790215550824400,4.096824462890625,-0.5955656170845032,-1.8131152391433716,-0.7465943098068237
1772790215570860300,4.1168603515625,-0.709591269493103,-1.3134404420852661,-0.5414142608642578
1772790215590895400,4.136895263671875,-0.7945677042007446,-0.8397380709648132,-0.29074156284332275
1772790215610930400,4.156930419921875,-0.8618220686912537,-0.5465397834777832,-0.03802807629108429
1772790215630965500,4.176965576171875,-0.8804721832275391,-0.265697181224823,0.00717695290222764
1772790215651000300,4.197000244140625,-0.9649381041526794,0.007529022637754679,-0.06894471496343613
1772790215671035400,4.217035400390625,-1.1181292533874512,0.21225260198116302,0.004308728501200676
1772790215691070200,4.2370703125,-1.3292100429534912,0.3747280538082123,0.4396823048591614
1772790215711106300,4.257106201171875,-1.3841968774795532,0.4731699526309967,1.1062928438186646
1772790215731141400,4.277141357421875,-1.1468069553375244,0.5511845946311951,1.7020180225372314
1772790215751176400,4.297176513671875,-0.7736096978187561,0.5775951743125916,2.064025640487671
1772790215771211300,4.317211181640625,-0.6174978613853455,0.7212953567504883,2.1527843475341797
1772790215791246300,4.337246337890625,-0.5609149932861328,0.9098023772239685,1.7849833965301514
1772790215811281200,4.35728125,-0.33468079566955566,1.0382996797561646,1.0718448162078857
1772790215831316200,4.377316162109375,0.17946137487888336,0.9835245609283447,0.2784193754196167
1772790215851351300,4.397351318359375,0.7468270659446716,0.9504656791687012,-0.34465378522872925
1772790215871387100,4.41738720703125,1.2220609188079834,0.9494581818580627,-0.7052497863769531
1772790215891422200,4.437422119140625,1.5006909370422363,0.9461830258369446,-0.8429485559463501
1772790215911457300,4.457457275390625,1.5493168830871582,0.9014678001403809,-0.729466438293457
1772790215931492400,4.477492431640625,1.5313650369644165,0.9427561163902283,-0.5447884798049927
1772790215951527400,4.49752734375,1.5763825178146362,0.9983522295951843,-0.36605414748191833
1772790215971562500,4.5175625,1.6075133085250854,1.1317089796066284,-0.146429643034935
1772790215991597300,4.537597412109375,1.6475456953048706,1.3062483072280884,0.08143813163042068
1772790216011633400,4.55763330078125,1.6840088367462158,1.501210331916809,0.3664563000202179
1772790216031668500,4.57766845703125,1.618147850036621,1.6882084608078003,0.6559581160545349
1772790216051703300,4.597703369140625,1.4939299821853638,1.842918872833252,0.8285837173461914
1772790216071738400,4.61773828125,1.3196743726730347,1.8669840097427368,0.8092832565307617
1772790216091773200,4.637773193359375,1.187934160232544,1.7763901948928833,0.6491460204124451
1772790216111808300,4.657808349609375,1.1018788814544678,1.5442602634429932,0.47302693128585815
1772790216131843300,4.67784326171875,1.1002522706985474,1.299791932106018,0.32009652256965637
1772790216151878400,4.69787841796875,1.2186158895492554,1.0002763271331787,0.16615861654281616
1772790216171914200,4.717914306640625,1.3855791091918945,0.6690981984138489,-0.006672283634543419
1772790216191949300,4.73794921875,1.5291823148727417,0.39495769143104553,-0.21839624643325806
1772790216211984400,4.757984375,1.5845158100128174,0.12085877358913422,-0.4053182005882263
1772790216232019500,4.77801953125,1.5815943479537964,-0.11522459238767624,-0.5284950137138367
1772790216252054300,4.79805419921875,1.5490028858184814,-0.3759041130542755,-0.588848352432251
1772790216272089300,4.81808935546875,1.496883749961853,-0.5698666572570801,-0.6204707026481628
1772790216292124200,4.838124267578125,1.4428844451904297,-0.7292179465293884,-0.6202568411827087
1772790216312159200,4.8581591796875,1.3658660650253296,-0.8433043360710144,-0.5889996290206909
1772790216332195300,4.8781953125,1.1885461807250977,-0.8597637414932251,-0.48171868920326233
1772790216352230400,4.89823046875,0.9327353835105896,-0.8158221244812012,-0.3175678551197052
1772790216372265200,4.91826513671875,0.6675567626953125,-0.7576584219932556,-0.16744890809059143
1772790216392300300,4.93830029296875,0.40934064984321594,-0.6935321688652039,-0.07607266306877136
1772790216412335400,4.95833544921875,0.23111817240715027,-0.635926365852356,-0.05952511355280876
1772790216432370400,4.978370361328125,0.18745404481887817,-0.5877732038497925,-0.21402227878570557
1772790216452405200,4.9984052734375,0.08506562560796738,-0.5315557718276978,-0.3736875653266907
1772790216472441000,5.018441162109375,-0.18011784553527832,-0.521519660949707,-0.2964377999305725
1772790216492476200,5.03847607421875,-0.5918018221855164,-0.5159413814544678,0.007890946231782436
1772790216512511200,5.05851123046875,-1.0418195724487305,-0.5223708152770996,0.3799404203891754
1772790216532546300,5.07854638671875,-1.3680589199066162,-0.5818064212799072,0.6286937594413757
1772790216552581400,5.098581298828125,-1.6529351472854614,-0.6324621438980103,0.7134302258491516
1772790216572616400,5.118616455078125,-1.9836608171463013,-0.7158262729644775,0.673208475112915
1772790216592651300,5.1386513671875,-2.3787903785705566,-0.7740376591682434,0.5665297508239746
1772790216612686300,5.158686279296875,-2.702008008956909,-0.7516926527023315,0.4553273022174835
1772790216632722400,5.178722412109375,-2.801048994064331,-0.5788213014602661,0.31676384806632996
1772790216652757800,5.1987578125,-2.7382564544677734,-0.21173754334449768,0.11689253151416779
1772790216672792600,5.21879248046875,-2.646088123321533,0.30733704566955566,-0.10252451151609421
1772790216692827600,5.23882763671875,-2.437588691711426,0.9337897300720215,-0.22968272864818573
1772790216712862700,5.25886279296875,-1.9982110261917114,1.4167553186416626,-0.188568577170372
1772790216732897800,5.278897705078125,-1.4668678045272827,1.5629298686981201,-0.06627196073532104
1772790216752932900,5.298932861328125,-0.926570475101471,1.3048362731933594,-0.018545720726251602
1772790216772968000,5.318968017578125,-0.42888343334198,0.6514185070991516,-0.13127626478672028
1772790216793003800,5.339003662109375,0.0012037487467750907,-0.03286553919315338,-0.4162371754646301
1772790216813038800,5.359038818359375,0.37456029653549194,-0.6347314119338989,-0.8022825717926025
1772790216833073700,5.37907373046875,0.5882999897003174,-1.237481713294983,-1.1252726316452026
1772790216853108700,5.399108642578125,0.6349905729293823,-1.7440083026885986,-1.3153687715530396
1772790216873143600,5.4191435546875,0.5393191576004028,-2.152663230895996,-1.3537204265594482
1772790216893178600,5.4391787109375,0.4083171784877777,-2.3287570476531982,-1.2925326824188232
1772790216913213700,5.459213623046875,0.31022924184799194,-2.2938907146453857,-1.159695029258728
1772790216933248800,5.479248779296875,0.25060904026031494,-2.1044650077819824,-0.9705890417098999
1772790216953284900,5.499284912109375,0.20221275091171265,-1.7435002326965332,-0.7295870780944824
1772790216973319700,5.519319580078125,0.08681665360927582,-1.3311176300048828,-0.47273504734039307
1772790216993354800,5.539354736328125,-0.12924747169017792,-0.8174602389335632,-0.24004775285720825
1772790217013389800,5.559389892578125,-0.39631378650665283,-0.2737942636013031,-0.04634086787700653
1772790217033424600,5.579424560546875,-0.5704208612442017,0.288931667804718,0.11599957197904587
1772790217053459700,5.599459716796875,-0.6569395065307617,0.7612470388412476,0.2516506016254425
1772790217073494800,5.619494873046875,-0.7040963768959045,1.1692017316818237,0.44525468349456787
1772790217093529600,5.639529541015625,-0.7510201930999756,1.484061360359192,0.7001991271972656
1772790217113564700,5.659564697265625,-0.7720082998275757,1.629645824432373,0.9540050029754639
1772790217133600800,5.679600830078125,-0.8022083044052124,1.5489706993103027,1.1580737829208374
1772790217153635800,5.6996357421875,-0.7618515491485596,1.3212634325027466,1.1590598821640015
1772790217173670700,5.719670654296875,-0.5695862174034119,1.094976544380188,0.846165120601654
1772790217193705700,5.739705810546875,-0.4153311550617218,0.8551058769226074,0.48116475343704224
1772790217213740800,5.75974072265625,-0.3354608118534088,0.6117762923240662,0.22355692088603973
1772790217233775600,5.779775634765625,-0.22522805631160736,0.4093036353588104,0.07695204019546509
1772790217253810700,5.799810791015625,-0.02279878966510296,0.2748059928417206,0.025491777807474136
1772790217273845800,5.819845703125,0.3424931764602661,0.16942471265792847,0.003932956140488386
1772790217293881600,5.839881591796875,0.8608391284942627,0.025490179657936096,0.06738197058439255
1772790217313916700,5.859916748046875,1.3384613990783691,-0.1846364289522171,0.149470716714859
1772790217333951700,5.87995166015625,1.620773196220398,-0.347734272480011,0.2074732929468155
1772790217353986800,5.89998681640625,1.704301357269287,-0.3965209722518921,0.25043541193008423
1772790217374022000,5.92002197265625,1.7124383449554443,-0.3058107793331146,0.1642262190580368
1772790217394056700,5.940056640625,1.7348307371139526,-0.06187774986028671,0.005508482456207275
1772790217414091800,5.960091796875,1.8166441917419434,0.3014378845691681,-0.009160208515822887
1772790217434126600,5.980126708984375,1.9264825582504272,0.7156017422676086,0.20248572528362274
1772790217454161700,6.00016162109375,1.993553638458252,1.1628581285476685,0.5428579449653625
1772790217474197500,6.020197509765625,1.9565951824188232,1.5365110635757446,0.8779019713401794
1772790217494232600,6.040232666015625,1.8905119895935059,1.7943007946014404,1.0442579984664917
1772790217514267600,6.060267578125,1.7434687614440918,1.8794854879379272,1.0785863399505615
1772790217534302700,6.080302734375,1.5181951522827148,1.7130259275436401,1.001878023147583
1772790217554337800,6.100337890625,1.3089202642440796,1.3292635679244995,0.8700944185256958
1772790217574372900,6.120372802734375,1.1248286962509155,0.8543330430984497,0.6848281621932983
1772790217594407700,6.14040771484375,1.0621753931045532,0.37493765354156494,0.44458624720573425
1772790217614442800,6.16044287109375,1.0915029048919678,-0.019838418811559677,0.28765708208084106
1772790217634478800,6.180478759765625,1.1313941478729248,-0.2652159631252289,0.17758889496326447
1772790217654513200,6.20051318359375,1.144670844078064,-0.32759889960289,0.0950937569141388
1772790217674548200,6.22054833984375,1.0949394702911377,-0.36509647965431213,0.017655959352850914
1772790217694583300,6.240583251953125,0.967221200466156,-0.3196328580379486,-0.061400510370731354
1772790217714617900,6.260617919921875,0.8420670032501221,-0.27773919701576233,-0.09370891749858856
1772790217734653000,6.28065283203125,0.7840239405632019,-0.22463950514793396,-0.10036229342222214
1772790217754688000,6.30068798828125,0.7135202288627625,-0.22500301897525787,-0.07399193197488785
1772790217774723000,6.32072314453125,0.5856621265411377,-0.2492162138223648,-0.036740969866514206
1772790217794758100,6.340758056640625,0.411986768245697,-0.22064289450645447,0.0019081549253314734
1772790217814794000,6.3607939453125,0.22128897905349731,-0.17851302027702332,0.036187298595905304
1772790217834829000,6.3808291015625,0.02749554067850113,-0.17144951224327087,0.07628225535154343
1772790217854864100,6.400864013671875,-0.11830214411020279,-0.19923560321331024,0.15728336572647095
1772790217874899200,6.420899169921875,-0.1632741391658783,-0.18914063274860382,0.1560567170381546
1772790217894934300,6.440934326171875,-0.10192130506038666,-0.1073104739189148,-0.22807711362838745
1772790217914969000,6.460968994140625,-0.25516998767852783,-0.13722310960292816,-0.637640655040741
1772790217935004000,6.48100390625,-0.5862099528312683,-0.32226964831352234,-0.7420192360877991
1772790217955039000,6.5010390625,-1.004293441772461,-0.5224794745445251,-0.6432157158851624
1772790217975075000,6.521074951171875,-1.4469534158706665,-0.6955239176750183,-0.5250725746154785
1772790217995110100,6.541110107421875,-1.8446409702301025,-0.7433061003684998,-0.4545387327671051
1772790218015145000,6.56114501953125,-2.2075181007385254,-0.7880488038063049,-0.3822682797908783
1772790218035180000,6.581179931640625,-2.5298125743865967,-0.8361145853996277,-0.3420436382293701
1772790218055215000,6.601215087890625,-2.846867561340332,-0.7947839498519897,-0.4018755257129669
1772790218075250200,6.621250244140625,-3.0620176792144775,-0.6332160830497742,-0.5517536997795105
1772790218095285200,6.64128515625,-3.0945541858673096,-0.3076704740524292,-0.7332808971405029
1772790218115320000,6.661320068359375,-2.930581569671631,0.19094757735729218,-0.9087568521499634
1772790218135355000,6.68135498046875,-2.6465651988983154,0.8160229325294495,-0.9310792088508606
1772790218155391000,6.701390869140625,-2.2231497764587402,1.480355143547058,-0.7451633810997009
1772790218175426000,6.721426025390625,-1.6533018350601196,1.8605577945709229,-0.4473005533218384
1772790218195461000,6.741461181640625,-1.0280745029449463,1.7448596954345703,-0.15280845761299133
1772790218215496000,6.761495849609375,-0.46948814392089844,1.1301188468933105,-0.02227041870355606
1772790218235531000,6.781531005859375,-0.005687713157385588,0.22612261772155762,-0.12498747557401657
1772790218255566000,6.801566162109375,0.3345276415348053,-0.7337903380393982,-0.4252575635910034
1772790218275601200,6.82160107421875,0.538041889667511,-1.5748608112335205,-0.7838506102561951
1772790218295636200,6.84163623046875,0.5485600233078003,-2.261535882949829,-1.061676025390625
1772790218315671000,6.861671142578125,0.4186880588531494,-2.7341573238372803,-1.3192037343978882
1772790218335707000,6.881706787109375,0.2354724407196045,-2.968573808670044,-1.5287985801696777
1772790218355742000,6.901741943359375,0.10572243481874466,-2.9214236736297607,-1.6024525165557861
1772790218375777000,6.921777099609375,0.06668608635663986,-2.6091623306274414,-1.4785774946212769
1772790218395812000,6.94181201171875,0.09486765414476395,-2.128756046295166,-1.2033679485321045
1772790218415847200,6.96184716796875,0.1250537931919098,-1.5348721742630005,-0.8560898900032043
1772790218435882000,6.981882080078125,0.08636098355054855,-0.9800723195075989,-0.5016681551933289
1772790218455917000,7.0019169921875,-0.014524081721901894,-0.48795580863952637,-0.18813155591487885
1772790218475952000,7.0219521484375,-0.1732359677553177,-0.12172084301710129,0.09302981197834015
1772790218495987200,7.0419873046875,-0.314857542514801,0.12715981900691986,0.26035967469215393
1772790218516023000,7.06202294921875,-0.45566126704216003,0.33415693044662476,0.37532275915145874
1772790218536057900,7.082057861328125,-0.571438729763031,0.48077672719955444,0.4755673408508301
1772790218556093000,7.102093017578125,-0.7029120922088623,0.5406438112258911,0.5878502130508423
1772790218576128000,7.1221279296875,-0.8637843132019043,0.538712739944458,0.7151343822479248
1772790218596163000,7.1421630859375,-1.0266920328140259,0.4572801887989044,0.7861816883087158
1772790218616198100,7.1621982421875,-1.1023271083831787,0.34000736474990845,0.6961156725883484
1772790218636233200,7.182233154296875,-1.042670488357544,0.1964890956878662,0.4212242066860199
1772790218656268000,7.20226806640625,-0.9495977759361267,0.042940009385347366,0.16898928582668304
1772790218676303000,7.22230322265625,-0.8055055737495422,-0.08322165161371231,0.06934817880392075
1772790218696339200,7.242339111328125,-0.6749613881111145,-0.13221955299377441,0.153807133436203
1772790218716374300,7.262374267578125,-0.5290758013725281,-0.04499117657542229,0.2850538492202759
1772790218736409000,7.2824091796875,-0.24361026287078857,0.13613547384738922,0.28472813963890076
1772790218756444200,7.302444091796875,0.14369618892669678,0.31708207726478577,0.18942078948020935
1772790218776479200,7.322479248046875,0.5363917946815491,0.5233542919158936,0.10826735198497772
1772790218796514300,7.342514404296875,0.8040648102760315,0.6608778238296509,0.11327090114355087
1772790218816549400,7.36254931640625,0.9193556904792786,0.7013407945632935,0.15490196645259857
1772790218836584400,7.38258447265625,1.0097721815109253,0.6640775799751282,0.176798477768898
1772790218856619000,7.402618896484375,1.1317873001098633,0.6250484585762024,0.19241072237491608
1772790218876655400,7.4226552734375,1.2940731048583984,0.6345516443252563,0.18672673404216766
1772790218896690200,7.442690185546875,1.4423155784606934,0.7246562242507935,0.18945594131946564
1772790218916725200,7.462725341796875,1.5424714088439941,0.839977502822876,0.22237181663513184
1772790218936760000,7.482760009765625,1.5991696119308472,1.0133082866668701,0.2933434545993805
1772790218956795100,7.502795166015625,1.6644748449325562,1.1139373779296875,0.45060819387435913
1772790218976830200,7.522830322265625,1.6312801837921143,1.0953067541122437,0.5483824014663696
1772790218996865300,7.542865234375,1.5587958097457886,0.9865642786026001,0.41973283886909485
1772790219016900400,7.562900390625,1.4482038021087646,0.7766813635826111,0.20206202566623688
1772790219036935400,7.582935302734375,1.3687596321105957,0.5341411828994751,0.007213704288005829
1772790219056970200,7.60297021484375,1.3548076152801514,0.317543089389801,-0.09623385965824127
1772790219077006300,7.62300634765625,1.4939931631088257,0.06015521660447121,-0.06306365132331848
1772790219097041200,7.643041259765625,1.6224228143692017,-0.17338350415229797,0.08406560868024826
1772790219117076200,7.663076171875,1.710440993309021,-0.3530060052871704,0.2567111551761627
1772790219137111300,7.683111328125,1.7733219861984253,-0.4949977397918701,0.3514845371246338
1772790219157146000,7.70314599609375,1.8010361194610596,-0.6741616725921631,0.37745141983032227
1772790219177181200,7.72318115234375,1.819982647895813,-0.9144179224967957,0.3625057637691498
1772790219197216300,7.74321630859375,1.8166342973709106,-1.1622527837753296,0.30940526723861694
1772790219217251300,7.763251220703125,1.776411771774292,-1.3702466487884521,0.26346731185913086
1772790219237286400,7.783286376953125,1.7012845277786255,-1.5169810056686401,0.2499922662973404
1772790219257322200,7.803322265625,1.5958070755004883,-1.6435480117797852,0.2434038668870926
1772790219277357300,7.823357421875,1.408734679222107,-1.6756572723388672,0.2286989539861679
1772790219297392000,7.84339208984375,1.1183664798736572,-1.6465566158294678,0.19215905666351318
1772790219317427200,7.86342724609375,0.7457357048988342,-1.5414509773254395,0.11332256346940994
1772790219337462300,7.883462158203125,0.31610843539237976,-1.3627454042434692,-0.01835823431611061
1772790219357497000,7.9034970703125,-0.13701750338077545,-1.1121001243591309,-0.21231040358543396
1772790219377532200,7.9235322265625,-0.564410388469696,-0.8038312196731567,-0.4519008696079254
1772790219397567200,7.943567138671875,-0.9452197551727295,-0.5255903005599976,-0.6896753311157227
1772790219417602300,7.963602294921875,-1.302769422531128,-0.25846484303474426,-0.8781150579452515
1772790219437637400,7.983637451171875,-1.6060740947723389,0.028732312843203545,-1.0483336448669434
1772790219457673200,8.003673095703125,-1.7463358640670776,0.3915749490261078,-1.4081658124923706
1772790219477708300,8.023708251953124,-1.8590145111083984,0.7535099983215332,-1.908668041229248
1772790219497743000,8.0437431640625,-2.200622081756592,0.9478768110275269,-2.144836902618408
1772790219517778200,8.063778076171875,-2.6843631267547607,0.9200374484062195,-2.0475528240203857
1772790219537813200,8.083813232421875,-3.1515309810638428,0.8560739159584045,-1.9005169868469238
1772790219557848300,8.103848388671874,-3.5383424758911133,0.8301230072975159,-1.7923460006713867
1772790219577883100,8.123883056640626,-3.7699546813964844,0.7523155808448792,-1.684130072593689
1772790219597918200,8.143918212890625,-3.8428244590759277,0.5941869020462036,-1.5459405183792114
1772790219617953300,8.163953369140625,-3.833622694015503,0.4281367063522339,-1.382262110710144
1772790219637989000,8.183989013671875,-3.7357287406921387,0.3878023326396942,-1.2570927143096924
1772790219658024200,8.204024169921874,-3.4217588901519775,0.3983236849308014,-1.1191127300262451
1772790219678059000,8.22405908203125,-2.918292284011841,0.44794023036956787,-0.8505449295043945
1772790219698094000,8.244093994140625,-2.2672617435455322,0.5979190468788147,-0.488618403673172
1772790219718129200,8.264129150390625,-1.495779037475586,0.686437726020813,-0.16132843494415283
1772790219738164000,8.2841640625,-0.6122338175773621,0.577942967414856,-0.022761238738894463
1772790219758199000,8.304198974609376,0.17217762768268585,0.19884012639522552,-0.18132105469703674
1772790219778234000,8.324234130859375,0.7268238067626953,-0.3894795775413513,-0.5487328767776489
1772790219798269000,8.34426904296875,1.050831913948059,-1.1153966188430786,-0.9752964377403259
1772790219818304000,8.364303955078125,1.1930330991744995,-1.7714899778366089,-1.2729310989379883
1772790219838340000,8.384340087890624,1.2579443454742432,-2.2116007804870605,-1.3917394876480103
1772790219858375200,8.404375244140626,1.3296353816986084,-2.3629865646362305,-1.3491883277893066
1772790219878410000,8.424409912109375,1.3416345119476318,-2.2096028327941895,-1.168141484260559
1772790219898445000,8.444445068359375,1.2599716186523438,-1.870607852935791,-0.9226742386817932
1772790219918480100,8.464480224609375,1.0688223838806152,-1.4577264785766602,-0.6802371144294739
1772790219938515000,8.484514892578124,0.8905208706855774,-0.9654749631881714,-0.574651837348938
1772790219958550000,8.504550048828126,0.837884783744812,-0.39618462324142456,-0.4767761528491974
1772790219978585000,8.524585205078125,0.8560587167739868,-0.07593870908021927,-0.2914707362651825
1772790219998620200,8.5446201171875,0.8678802251815796,0.22395266592502594,-0.15510542690753937
1772790220018655000,8.564655029296874,0.9267094731330872,0.7090889811515808,0.2744797468185425
1772790220038691000,8.584691162109374,0.9685413241386414,1.1263130903244019,1.300454020500183
1772790220058726100,8.60472607421875,0.7319442629814148,1.2015300989151,2.3665390014648438
1772790220078761200,8.62476123046875,0.1664654165506363,1.0486454963684082,2.59667706489563
1772790220098796000,8.644796142578125,-0.47077977657318115,0.7004222869873047,1.8697608709335327
1772790220118831000,8.6648310546875,-0.9354702234268188,0.21499966084957123,0.7174627780914307
1772790220138866000,8.684865966796876,-1.2587764263153076,-0.20041592419147491,-0.27744412422180176
1772790220158901000,8.70490087890625,-1.4721137285232544,-0.5622676014900208,-0.8933062553405762
1772790220178936000,8.72493603515625,-1.5437601804733276,-0.7643141746520996,-1.1560190916061401
1772790220198971100,8.74497119140625,-1.3696690797805786,-0.7475775480270386,-1.1630431413650513
1772790220219007000,8.765007080078124,-0.9538332223892212,-0.5908465385437012,-1.0163264274597168
1772790220239042000,8.7850419921875,-0.5145719647407532,-0.24735359847545624,-0.6568551063537598
1772790220259077000,8.8050771484375,-0.20951087772846222,0.1214073896408081,-0.1411701738834381
1772790220279112200,8.8251123046875,-0.1390468329191208,0.2752177119255066,0.36704936623573303
1772790220299147000,8.84514697265625,-0.1768094003200531,0.36577850580215454,0.6786543726921082
1772790220319182000,8.86518212890625,-0.07496026158332825,0.3981971740722656,0.695551872253418
1772790220339217000,8.885216796875,0.2696985900402069,0.29484042525291443,0.498622328042984
1772790220359252000,8.905251953125,0.7152177095413208,0.08225865662097931,0.3158772587776184
1772790220379287000,8.925287109375,1.165739893913269,-0.25623923540115356,0.2924278676509857
1772790220399322000,8.945322021484374,1.508852481842041,-0.6030637621879578,0.43537092208862305
1772790220419357200,8.965357177734376,1.6125749349594116,-0.8042461276054382,0.5711862444877625
1772790220439393000,8.98539306640625,1.58835768699646,-0.7837725877761841,0.4281609356403351
1772790220459428000,9.005427978515625,1.6297669410705566,-0.6550294756889343,0.05409146472811699
1772790220479463200,9.025463134765625,1.751081943511963,-0.4971056580543518,-0.25779345631599426
1772790220499498200,9.045498291015624,1.8296667337417603,-0.41206133365631104,-0.473895400762558
1772790220519533000,9.065532958984376,1.8279842138290405,-0.36630794405937195,-0.6075605154037476
1772790220539567900,9.08556787109375,1.7192507982254028,-0.3892284333705902,-0.6511178612709045
1772790220559603000,9.10560302734375,1.5808601379394531,-0.40519437193870544,-0.6370363831520081
1772790220579638000,9.125637939453124,1.448171854019165,-0.3816498816013336,-0.6028030514717102
1772790220599673000,9.145673095703126,1.3895378112792969,-0.3954770267009735,-0.55574631690979
1772790220619708200,9.165708251953125,1.4260884523391724,-0.4784768223762512,-0.5172615051269531
1772790220639744000,9.185743896484375,1.485695481300354,-0.5938244462013245,-0.5298888683319092
1772790220659778800,9.20577880859375,1.52071213722229,-0.7204716205596924,-0.5978549122810364
1772790220679814000,9.22581396484375,1.4754130840301514,-0.8448992967605591,-0.6966022253036499
1772790220699849000,9.245848876953126,1.3617844581604004,-0.9232527017593384,-0.8031036257743835
1772790220719884000,9.265884033203125,1.207282543182373,-0.959510862827301,-0.8858222365379333
1772790220739918800,9.2859189453125,1.0250152349472046,-0.9241613745689392,-0.9490113258361816
1772790220759954000,9.305953857421875,0.8149586915969849,-0.8221457600593567,-1.00068199634552
1772790220779989000,9.325989013671874,0.6090905070304871,-0.6534987092018127,-1.0818418264389038
1772790220800024000,9.346024169921876,0.3875506520271301,-0.4962766170501709,-1.1900814771652222
1772790220820059000,9.366058837890625,0.13272768259048462,-0.41077661514282227,-1.3334559202194214
1772790220840095000,9.386094970703125,-0.15143293142318726,-0.390287309885025,-1.5232915878295898
1772790220860129800,9.4061298828125,-0.4800715446472168,-0.43751955032348633,-1.7814483642578125
1772790220880164900,9.426164794921876,-0.81889808177948,-0.46165522933006287,-2.1267201900482178
1772790220900200000,9.446199951171875,-1.149741530418396,-0.4804092347621918,-2.482714891433716
1772790220920235000,9.466235107421875,-1.4361767768859863,-0.49234578013420105,-2.771104335784912
1772790220940269800,9.486269775390625,-1.6976104974746704,-0.5547625422477722,-2.956892251968384
1772790220960305000,9.506304931640624,-1.9286175966262817,-0.6075506806373596,-3.0816798210144043
1772790220980340000,9.526340087890626,-2.095280885696411,-0.639280378818512,-3.186657667160034
1772790221000375000,9.546375,-2.1883575916290283,-0.665727972984314,-3.309568405151367
1772790221020409900,9.566409912109375,-2.231250524520874,-0.6382758021354675,-3.4345457553863525
1772790221040445000,9.58644482421875,-2.262124538421631,-0.5815395712852478,-3.5246903896331787
1772790221060480000,9.60647998046875,-2.283290147781372,-0.48864397406578064,-3.593245506286621
1772790221080515800,9.626515869140626,-2.2614030838012695,-0.3451741635799408,-3.7406117916107178
1772790221100551000,9.646551025390625,-2.166980266571045,-0.09713374078273773,-4.114449501037598
1772790221120586000,9.6665859375,-2.196070432662964,0.11581208556890488,-4.413135051727295
1772790221140621000,9.68662109375,-2.2953553199768066,0.13192953169345856,-4.470355987548828
1772790221160656000,9.70665576171875,-2.557250499725342,0.06514864414930344,-4.4017229080200195
1772790221180691000,9.72669091796875,-2.8787403106689453,0.020550549030303955,-4.25076961517334
1772790221200726000,9.74672607421875,-3.0734474658966064,-0.113663449883461,-4.122840881347656
1772790221220760800,9.7667607421875,-3.1669788360595703,-0.3740966320037842,-3.896840810775757
1772790221240796000,9.7867958984375,-3.182082414627075,-0.6718351244926453,-3.458385467529297
1772790221260831000,9.8068310546875,-3.1533608436584473,-0.9404524564743042,-2.8425452709198
1772790221280865800,9.82686572265625,-3.116199493408203,-1.153708815574646,-2.114966630935669
1772790221300902000,9.84690185546875,-3.087815761566162,-1.2508273124694824,-1.4851794242858887
1772790221320937000,9.86693701171875,-2.9979779720306396,-1.1692371368408203,-1.106643557548523
1772790221340972000,9.886971923828124,-2.79536509513855,-0.9192302823066711,-0.9138176441192627
1772790221361006800,9.9070068359375,-2.514012098312378,-0.6163318753242493,-0.7376724481582642
1772790221381042000,9.9270419921875,-2.172572135925293,-0.3399413228034973,-0.5430422425270081
1772790221401077000,9.947076904296875,-1.7887954711914062,-0.19078326225280762,-0.40828415751457214
1772790221421111800,9.96711181640625,-1.4440809488296509,-0.20474834740161896,-0.27883750200271606
1772790221441147000,9.98714697265625,-1.2232614755630493,-0.31651270389556885,-0.08740600943565369
1772790221461182000,10.007181884765625,-1.109788179397583,-0.5121421217918396,0.090987429022789
1772790221481217000,10.027217041015625,-1.1105732917785645,-0.7756043672561646,0.29367104172706604
1772790221501251800,10.047251953125,-1.258314609527588,-1.1400233507156372,0.4917473793029785
1772790221521288000,10.067287841796874,-1.7194156646728516,-1.3818328380584717,0.4508659839630127
1772790221541323000,10.087322998046876,-2.1971144676208496,-1.9044687747955322,-0.05229755863547325
1772790221561358000,10.107358154296875,-2.364201545715332,-2.204827070236206,-0.880776584148407
1772790221581393000,10.127392822265625,-2.201075792312622,-2.536299228668213,-1.4706100225448608
1772790221601428000,10.147427978515625,-1.9411802291870117,-2.671663999557495,-1.5664782524108887
1772790221621462800,10.167462890625,-1.8653101921081543,-2.4858317375183105,-1.1947766542434692
1772790221641498000,10.187498046875,-1.9392377138137817,-2.0237057209014893,-0.6508461833000183
1772790221661533200,10.207533203125,-2.0777080059051514,-1.4057905673980713,-0.15338397026062012
1772790221681568300,10.227568359375,-2.1337759494781494,-0.7272389531135559,0.12695342302322388
1772790221701603000,10.24760302734375,-2.06061053276062,-0.22248660027980804,0.14080531895160675
1772790221721638000,10.267637939453126,-1.9362105131149292,0.0761813223361969,-0.02370559610426426
1772790221741673000,10.2876728515625,-1.7619487047195435,0.20607274770736694,-0.25526612997055054
1772790221761709000,10.307708984375,-1.5251590013504028,0.24735546112060547,-0.41335776448249817
1772790221781744000,10.327744140625,-1.2823799848556519,0.29087284207344055,-0.38247761130332947
1772790221801779000,10.347779052734374,-1.0659922361373901,0.34130194783210754,-0.2533915340900421
1772790221821814000,10.36781396484375,-0.8106244206428528,0.3634945750236511,-0.16314497590065002
1772790221841849000,10.38784912109375,-0.5042964220046997,0.3120393753051758,-0.1421765834093094
1772790221861884200,10.40788427734375,-0.1892833709716797,0.18556426465511322,-0.19173774123191833
1772790221881919200,10.427919189453124,0.09735105186700821,0.0054094125516712666,-0.2699635624885559
1772790221901954000,10.4479541015625,0.30642199516296387,-0.14194355905056,-0.3060795068740845
1772790221921988900,10.46798876953125,0.42846906185150146,-0.28261253237724304,-0.249144047498703
1772790221942024000,10.48802392578125,0.5693071484565735,-0.40296077728271484,-0.17348922789096832
1772790221962059000,10.50805908203125,0.8658437132835388,-0.4643053412437439,-0.1664036214351654
1772790221982094000,10.528093994140624,1.1563533544540405,-0.31367242336273193,-0.10410696268081665
1772790222002129200,10.548129150390626,1.4006211757659912,-0.02803110145032406,0.17910423874855042
1772790222022165000,10.5681650390625,1.726203203201294,0.20304712653160095,0.6852521300315857
1772790222042200000,10.588199951171875,2.1397483348846436,0.25778627395629883,1.1727904081344604
1772790222062235100,10.608235107421875,2.544581651687622,0.17414996027946472,1.393411636352539
1772790222082270200,10.628270263671874,2.925870895385742,-0.09177465736865997,1.3596824407577515
1772790222102305300,10.64830517578125,3.2088491916656494,-0.38092416524887085,1.2274343967437744
1772790222122339800,10.66833984375,3.3549580574035645,-0.6669436693191528,1.1533766984939575
1772790222142375000,10.688375,3.447263240814209,-0.8929675221443176,1.1976869106292725
1772790222162410000,10.708409912109374,3.558650255203247,-0.9626786708831787,1.3098291158676147
1772790222182445000,10.728445068359376,3.6723203659057617,-0.7846319675445557,1.5042716264724731
1772790222202480000,10.748480224609375,3.7097902297973633,-0.33711785078048706,1.7363024950027466
1772790222222515200,10.76851513671875,3.7707059383392334,0.2307157665491104,2.0019009113311768
1772790222242550000,10.788550048828125,3.9088311195373535,0.6153585314750671,2.3639070987701416
1772790222262586000,10.808586181640624,4.056396484375,0.9500678181648254,2.6234188079833984
1772790222282621200,10.82862109375,4.077042102813721,1.3080416917800903,2.6045942306518555
1772790222302656300,10.84865625,3.926942825317383,1.5404969453811646,2.327516794204712
1772790222322691000,10.868691162109375,3.6591336727142334,1.456320881843567,2.004364490509033
1772790222342726000,10.888725830078124,3.319192409515381,1.1104505062103271,1.723596215248108
1772790222362761000,10.908760986328126,2.996985912322998,0.6339130401611328,1.4206515550613403
1772790222382796000,10.928796142578125,2.645838975906372,0.1595129668712616,1.0120835304260254
1772790222402831000,10.9488310546875,2.229475498199463,-0.2517707347869873,0.5488279461860657
1772790222422866200,10.9688662109375,1.8182202577590942,-0.6207077503204346,0.14793460071086884
1772790222442901200,10.9889013671875,1.4796288013458252,-0.8659904599189758,-0.10253516584634781
1772790222462936000,11.00893603515625,1.2181572914123535,-0.9872175455093384,-0.232016459107399
1772790222482971000,11.028970947265625,0.9557006359100342,-0.9548068642616272,-0.358639657497406
1772790222503006000,11.049005859375,0.6549229621887207,-0.8068984150886536,-0.5085798501968384
1772790222523041000,11.069041015625,0.33134862780570984,-0.6341106295585632,-0.6495436429977417
1772790222543077000,11.0890771484375,-0.009119728580117226,-0.4522060751914978,-0.7697832584381104
1772790222563112000,11.10911181640625,-0.40152451395988464,-0.26058924198150635,-0.869256317615509
1772790222583147000,11.12914697265625,-0.8470170497894287,-0.04020094871520996,-0.9685773253440857
1772790222603182000,11.14918212890625,-1.305397391319275,0.18622073531150818,-1.037592887878418
1772790222623217200,11.169217041015624,-1.7622179985046387,0.3861626088619232,-1.059495449066162
1772790222643252200,11.189252197265626,-2.191680669784546,0.5827800631523132,-1.1404545307159424
1772790222663287000,11.209287109375,-2.5600504875183105,0.813816487789154,-1.4141936302185059
1772790222683322000,11.229322021484375,-3.0875203609466553,1.0142089128494263,-1.7306650876998901
1772790222703357200,11.249357177734375,-3.8124537467956543,1.1623414754867554,-1.8303868770599365
1772790222723392000,11.26939208984375,-4.568700790405273,1.2181898355484009,-1.6004055738449097
1772790222743427000,11.289427001953126,-5.13998556137085,1.1302074193954468,-1.3131282329559326
1772790222763462100,11.309462158203125,-5.483916759490967,0.8601405620574951,-1.1802998781204224
1772790222783497200,11.329497314453125,-5.681046485900879,0.49239423871040344,-1.0969640016555786
1772790222803533000,11.349532958984375,-5.720604419708252,0.11380752176046371,-1.0558061599731445
1772790222823568100,11.369568115234374,-5.506913661956787,-0.27541905641555786,-1.1208091974258423
1772790222843603200,11.389603271484376,-5.114908695220947,-0.5157539248466492,-1.1970576047897339
1772790222863638300,11.40963818359375,-4.589611530303955,-0.4726825952529907,-1.184358835220337
1772790222883673000,11.429673095703125,-3.828301191329956,-0.38980528712272644,-1.0140166282653809
1772790222903708200,11.449708251953124,-2.841421604156494,-0.4591068625450134,-0.6557570695877075
1772790222923743000,11.469742919921876,-1.7731236219406128,-0.7003898024559021,-0.3261951506137848
1772790222943778000,11.489778076171875,-0.8341148495674133,-0.9322845339775085,-0.2992066740989685
1772790222963813000,11.509813232421875,-0.2519928216934204,-1.1920939683914185,-0.4286770522594452
1772790222983848200,11.52984814453125,-0.05781376361846924,-1.4715988636016846,-0.5773269534111023
1772790223003883000,11.549883056640626,-0.15742583572864532,-1.807265281677246,-0.6404484510421753
1772790223023918000,11.56991796875,-0.44252416491508484,-2.160696268081665,-0.5644002556800842
1772790223043953200,11.589953125,-0.7479788661003113,-2.4657962322235107,-0.5049372315406799
1772790223063988200,11.60998828125,-1.0084283351898193,-2.633652925491333,-0.5387383103370667
1772790223084024000,11.630024169921874,-1.1759179830551147,-2.6780331134796143,-0.6207932233810425
1772790223104059100,11.65005908203125,-1.1480482816696167,-2.6478426456451416,-0.6716481447219849
1772790223124094000,11.670093994140625,-1.0472476482391357,-2.5282747745513916,-0.5616745352745056
1772790223144129000,11.69012890625,-0.917824387550354,-2.2669119834899902,-0.3492506742477417
1772790223164164000,11.7101640625,-0.7753577828407288,-1.8512418270111084,-0.13598686456680298
1772790223184199200,11.73019921875,-0.6925369501113892,-1.3183499574661255,0.09645622968673706
1772790223204234200,11.750234130859376,-0.6175503134727478,-0.8087359666824341,0.4640853703022003
1772790223224269000,11.77026904296875,-0.45924562215805054,-0.3143017292022705,0.9383909106254578
1772790223244304100,11.79030419921875,-0.24786493182182312,0.19015662372112274,1.3784856796264648
1772790223264339200,11.810339111328124,-0.05759432166814804,0.6672174334526062,1.7383983135223389
1772790223284374000,11.8303740234375,0.0730702131986618,0.920901894569397,1.9573384523391724
1772790223304409000,11.8504091796875,0.17241810262203217,0.9582716822624207,1.941618800163269
1772790223324444200,11.870444091796875,0.2594888210296631,0.810165286064148,1.670089840888977
1772790223344479000,11.89047900390625,0.33799853920936584,0.5729029178619385,1.136220097541809
1772790223364515000,11.91051513671875,0.5207316279411316,0.44880494475364685,0.36280694603919983
1772790223384550100,11.930550048828126,0.554108738899231,0.5203449130058289,-0.15189792215824127
1772790223404585200,11.950585205078125,0.5115966796875,0.7475964426994324,-0.31483063101768494
1772790223424620000,11.9706201171875,0.49617621302604675,1.134274959564209,-0.2215624898672104
1772790223444655000,11.990655029296875,0.5419154763221741,1.5198215246200562,0.08730800449848175
1772790223464690200,12.010690185546874,0.7650372385978699,1.7989000082015991,0.3639973998069763
1772790223484725000,12.03072509765625,1.13929283618927,1.8881475925445557,0.5248659253120422
1772790223504760000,12.050760009765625,1.57864248752594,1.777580976486206,0.5549585819244385
1772790223524795100,12.070795166015625,1.9732390642166138,1.4799553155899048,0.48851028084754944
1772790223544830200,12.090830322265624,2.250143051147461,1.1097708940505981,0.31651243567466736
1772790223564865000,12.110864990234376,2.4658379554748535,0.7641703486442566,0.012292086146771908
1772790223584900000,12.130900146484375,2.6495349407196045,0.5165464282035828,-0.26217567920684814
1772790223604935200,12.15093505859375,2.7764909267425537,0.33668801188468933,-0.38995176553726196
1772790223624970200,12.17097021484375,2.8743650913238525,0.21876482665538788,-0.41819697618484497
1772790223645005000,12.191005126953126,2.893298864364624,0.18580608069896698,-0.3536049425601959
1772790223665041000,12.211041015625,2.8442976474761963,0.18887457251548767,-0.2142300009727478
1772790223685076000,12.231075927734375,2.7333133220672607,0.18627266585826874,-0.08866754919290543
1772790223705111000,12.251111083984375,2.6296823024749756,0.07091997563838959,-0.0340554378926754
1772790223725146000,12.27114599609375,2.555619955062866,-0.11620783060789108,0.02504090406000614
1772790223745181200,12.29118115234375,2.5238125324249268,-0.35134339332580566,0.10554719716310501
1772790223765216000,12.311216064453125,2.5340776443481445,-0.6210494041442871,0.18307821452617645
1772790223785251000,12.3312509765625,2.5446343421936035,-0.8706912398338318,0.24163685739040375
1772790223805286100,12.3512861328125,2.423771381378174,-1.0317813158035278,0.29994651675224304
1772790223825321000,12.371321044921874,2.1408512592315674,-1.0854735374450684,0.29047709703445435
1772790223845356000,12.39135595703125,1.8070272207260132,-1.032242774963379,0.1893819123506546
1772790223865391000,12.41139111328125,1.5328222513198853,-0.9752474427223206,0.08570105582475662
1772790223885426000,12.431426025390625,1.3211708068847656,-0.9168845415115356,0.02503770962357521
1772790223905461000,12.4514609375,1.117561936378479,-0.8047385811805725,-0.04836859926581383
1772790223925496000,12.47149609375,0.8710765838623047,-0.6152786016464233,-0.15719866752624512
1772790223945531100,12.49153125,0.551564633846283,-0.40421217679977417,-0.21239188313484192
1772790223965567200,12.511567138671875,0.1768120527267456,-0.2254807949066162,-0.20161807537078857
1772790223985602000,12.53160205078125,-0.22486107051372528,-0.010405503213405609,-0.14564135670661926
1772790224005637000,12.55163720703125,-0.654524564743042,0.16323792934417725,-0.08602249622344971
1772790224025672000,12.571671875,-1.1010754108428955,0.28951171040534973,-0.05126611515879631
1772790224045707000,12.59170703125,-1.540585994720459,0.36797216534614563,-0.07223105430603027
1772790224065742000,12.6117421875,-1.8572720289230347,0.5095902681350708,-0.43039026856422424
1772790224085777200,12.631777099609375,-2.1589317321777344,0.6783241629600525,-1.182462215423584
1772790224105812000,12.65181201171875,-2.7936339378356934,0.8242225050926208,-1.691612720489502
1772790224125847000,12.671846923828125,-3.541924476623535,0.9365586638450623,-1.6365511417388916
1772790224145882000,12.691882080078125,-4.08104944229126,0.9020965695381165,-1.3174103498458862
1772790224165917200,12.711917236328125,-4.4064741134643555,0.7799168229103088,-1.0998823642730713
1772790224185952000,12.731951904296874,-4.6146135330200195,0.5067169666290283,-0.9955189228057861
1772790224205987000,12.751987060546876,-4.682528495788574,0.17283941805362701,-0.897577702999115
1772790224226022000,12.77202197265625,-4.597051620483398,-0.04705139994621277,-0.8227947950363159
1772790224246057000,12.792056884765625,-4.289271354675293,-0.11601315438747406,-0.8887434601783752
1772790224266092000,12.812092041015624,-3.7684340476989746,-0.00512951472774148,-0.9025042653083801
1772790224286127000,12.832127197265624,-3.186117172241211,0.2484702616930008,-0.6955335140228271
1772790224306163200,12.8521630859375,-2.5175092220306396,0.44877246022224426,-0.383931964635849
1772790224326198000,12.872197998046875,-1.612993597984314,0.3091069757938385,-0.20627327263355255
1772790224346233000,12.892233154296875,-0.7301178574562073,-0.022463763132691383,-0.33173131942749023
1772790224366268200,12.91226806640625,-0.0802820548415184,-0.533637285232544,-0.6196824312210083
1772790224386303000,12.932302978515626,0.25996285676956177,-1.1202075481414795,-0.8682219386100769
1772790224406338000,12.952338134765625,0.2499144971370697,-1.785964012145996,-0.9522596001625061
1772790224426373000,12.972373046875,-0.06343117356300354,-2.3009836673736572,-0.9069296717643738
1772790224446408000,12.992407958984375,-0.44942334294319153,-2.6327953338623047,-0.899232029914856
1772790224466443000,13.012443115234374,-0.7857427597045898,-2.788031816482544,-0.8671811819076538
1772790224486478000,13.03247802734375,-1.0386711359024048,-2.7025554180145264,-0.7779892683029175
1772790224506513200,13.05251318359375,-1.2101185321807861,-2.3289694786071777,-0.6541743874549866
1772790224526548200,13.07254833984375,-1.249565839767456,-1.669420838356018,-0.5059816837310791
1772790224546583300,13.092583251953124,-1.108955979347229,-0.8908433318138123,-0.188362717628479
1772790224566617900,13.112617919921876,-0.913266122341156,-0.09243672341108322,0.35160011053085327
1772790224586653000,13.13265283203125,-0.6564180850982666,0.6544414758682251,0.8328887224197388
1772790224606688000,13.15268798828125,-0.43956777453422546,1.2423747777938843,1.2424125671386719
1772790224626724000,13.17272412109375,-0.277721107006073,1.6540699005126953,1.5480153560638428
1772790224646759400,13.192759521484374,-0.10306193679571152,1.8107486963272095,1.7013719081878662
1772790224666794500,13.21279443359375,0.06391772627830505,1.7786920070648193,1.721869707107544
1772790224686829600,13.23282958984375,0.23780962824821472,1.5749061107635498,1.5554131269454956
1772790224706864600,13.25286474609375,0.34667539596557617,1.183590292930603,1.2314856052398682
1772790224726899700,13.272899658203125,0.38623932003974915,0.6777372360229492,0.8040157556533813
1772790224746934500,13.2929345703125,0.4617857336997986,0.27769526839256287,0.29567986726760864
1772790224766969600,13.312969482421876,0.664461612701416,0.21670487523078918,-0.3306831121444702
1772790224787004400,13.33300439453125,0.7585691809654236,0.3653116524219513,-0.7031909227371216
1772790224807039500,13.35303955078125,0.7550128102302551,0.6831748485565186,-0.6598053574562073
1772790224827074600,13.373074462890624,0.8043561577796936,1.1528373956680298,-0.26566362380981445
1772790224847109600,13.393109619140626,1.0428286790847778,1.6195462942123413,0.10661006718873978
1772790224867144700,13.413144775390625,1.4370763301849365,1.8377771377563477,0.33258965611457825
1772790224887179500,13.433179443359375,1.9026882648468018,1.6776108741760254,0.4407038986682892
1772790224907214600,13.453214599609375,2.3148131370544434,1.2734870910644531,0.4165056049823761
1772790224927249700,13.473249755859374,2.6323318481445312,0.8821467757225037,0.3016059100627899
1772790224947284500,13.493284423828126,2.889798641204834,0.5945733189582825,0.156942218542099
1772790224967319600,13.513319580078125,3.050018072128296,0.3975076675415039,0.14726507663726807
1772790224987355400,13.53335546875,3.1350865364074707,0.3411450684070587,0.26530224084854126
1772790225007390500,13.553390380859375,3.156383514404297,0.39405861496925354,0.4213640093803406
1772790225027425500,13.573425537109374,3.139282703399658,0.544914722442627,0.5914912819862366
1772790225047460600,13.593460693359376,3.0271408557891846,0.6155744791030884,0.7503378987312317
1772790225067495700,13.61349560546875,2.865708112716675,0.6532853841781616,0.7856828570365906
1772790225087530500,13.633530517578125,2.7557098865509033,0.6091357469558716,0.7242530584335327
1772790225107565600,13.653565673828124,2.7341108322143555,0.45349371433258057,0.701892614364624
1772790225127600600,13.6736005859375,2.7321982383728027,0.20377123355865479,0.7440882921218872
1772790225147635500,13.693635498046875,2.6840412616729736,-0.09053389728069305,0.7670617699623108
1772790225167670500,13.71367041015625,2.5838871002197266,-0.37943387031555176,0.7399457097053528
1772790225187705600,13.73370556640625,2.471046209335327,-0.7174177765846252,0.6897723078727722
1772790225207740700,13.75374072265625,2.270857810974121,-1.0363752841949463,0.5824927091598511
1772790225227775500,13.773775390625,1.940502405166626,-1.2195671796798706,0.4117060601711273
1772790225247810600,13.793810546875,1.540976881980896,-1.2752277851104736,0.25240054726600647
1772790225267845600,13.813845703125,1.2272239923477173,-1.198618769645691,0.10260174423456192
1772790225287880700,13.833880615234374,0.9995919466018677,-0.9890314340591431,0.00754952896386385
1772790225307915500,13.85391552734375,0.8075482249259949,-0.7021573185920715,-0.028271585702896118
1772790225327950600,13.87395068359375,0.5667443871498108,-0.39890024065971375,0.0004290352517273277
1772790225347985400,13.8939853515625,0.2359347641468048,-0.14148283004760742,0.07306675612926483
1772790225368021500,13.914021484375,-0.18294104933738708,0.010437993332743645,0.16596020758152008
1772790225388056600,13.934056640625,-0.6037066578865051,0.09416777640581131,0.18506865203380585
1772790225408091600,13.954091552734376,-0.8763038516044617,0.1561501920223236,-0.21216419339179993
1772790225428126500,13.97412646484375,-1.325936198234558,0.22850428521633148,-0.8840448260307312
1772790225448161500,13.99416162109375,-2.0431973934173584,0.219521164894104,-1.312650203704834
1772790225468196600,14.014196533203124,-2.85652756690979,0.23403966426849365,-1.281334638595581
1772790225488231700,14.034231689453126,-3.470860481262207,0.2700980603694916,-1.1211823225021362
1772790225508266500,14.0542666015625,-3.8828868865966797,0.2889045178890228,-0.9915909767150879
1772790225528301600,14.074301513671875,-4.194406032562256,0.20490148663520813,-0.8451427221298218
1772790225548336400,14.09433642578125,-4.382523536682129,0.07798081636428833,-0.7937130928039551
1772790225568371500,14.114371337890624,-4.3925042152404785,-0.022551648318767548,-0.965339720249176
1772790225588406500,14.134406494140626,-4.367565155029297,0.027397535741329193,-1.2063767910003662
1772790225608441600,14.154441650390625,-4.315849781036377,0.30099207162857056,-1.2990028858184814
1772790225628476700,14.1744765625,-4.097144603729248,0.7002326846122742,-1.1851320266723633
1772790225648511700,14.19451171875,-3.6401119232177734,1.048654317855835,-0.8273820877075195
1772790225668546600,14.214546630859376,-2.845763683319092,1.099756121635437,-0.45215389132499695
1772790225688581600,14.23458154296875,-1.703713059425354,0.6765896677970886,-0.40046513080596924
1772790225708616700,14.25461669921875,-0.6419848203659058,-0.12309636175632477,-0.7598272562026978
1772790225728651800,14.27465185546875,-0.0023094932548701763,-1.1481635570526123,-1.2488491535186768
1772790225748686800,14.294686767578124,0.12778033316135406,-2.1269242763519287,-1.654015302658081
1772790225768722700,14.31472265625,-0.10037640482187271,-2.963700294494629,-1.8940800428390503
1772790225788757800,14.3347578125,-0.5173419117927551,-3.5063748359680176,-2.015923500061035
1772790225808792600,14.35479248046875,-0.9470054507255554,-3.713048219680786,-2.0890462398529053
1772790225828827600,14.37482763671875,-1.2643886804580688,-3.5778441429138184,-2.095844030380249
1772790225848862700,14.39486279296875,-1.3853777647018433,-3.168731927871704,-1.9781461954116821
1772790225868897800,14.414897705078126,-1.3781064748764038,-2.528397560119629,-1.7410883903503418
1772790225888932600,14.4349326171875,-1.3211548328399658,-1.6729847192764282,-1.476656198501587
1772790225908967700,14.4549677734375,-1.1941262483596802,-0.6789148449897766,-1.1680158376693726
1772790225929002800,14.475002685546874,-1.0891777276992798,0.43126431107521057,-0.6744857430458069
1772790225949037800,14.495037841796876,-1.1281616687774658,1.44782292842865,0.16850832104682922
1772790225969072600,14.51507275390625,-1.287229299545288,2.239208936691284,1.2003577947616577
1772790225989107700,14.535107666015625,-1.4319020509719849,2.8811779022216797,1.968806266784668
1772790226009142500,14.555142578125,-1.3642479181289673,3.0911312103271484,2.3590760231018066
1772790226029177600,14.575177490234376,-1.182828664779663,2.842984199523926,2.3663806915283203
1772790226049212700,14.595212646484375,-0.9389006495475769,2.2105157375335693,2.067659854888916
1772790226069247700,14.615247802734375,-0.5552480220794678,1.4082551002502441,1.445996642112732
1772790226089282800,14.63528271484375,-0.08179153501987457,0.6277168989181519,0.5796242356300354
1772790226109318000,14.65531787109375,0.2290198653936386,-0.047377634793519974,-0.14718972146511078
1772790226129352700,14.675352783203126,0.4943258464336395,-0.46153780817985535,-0.5394799709320068
1772790226149387500,14.695387451171875,0.8843258023262024,-0.6551375985145569,-0.7173152565956116
1772790226169422600,14.715422607421875,1.3554661273956299,-0.7465631365776062,-0.8253852725028992
1772790226189458700,14.735458740234375,1.835810899734497,-0.8212410807609558,-0.8508581519126892
1772790226209493800,14.75549365234375,2.1780953407287598,-0.8155542016029358,-0.7169804573059082
1772790226229528600,14.775528564453126,2.3299612998962402,-0.6657080054283142,-0.44623714685440063
1772790226249563600,14.795563720703125,2.3979873657226562,-0.37767404317855835,-0.10712778568267822
1772790226269598700,14.8155986328125,2.4888103008270264,0.008628375828266144,0.2346378117799759
1772790226289633800,14.8356337890625,2.5985138416290283,0.40250882506370544,0.5359188318252563
1772790226309668900,14.8556689453125,2.665828227996826,0.8447189927101135,0.849313497543335
1772790226329703700,14.87570361328125,2.6854913234710693,1.2620768547058105,1.1293901205062866
1772790226349738500,14.895738525390625,2.662705183029175,1.5439937114715576,1.2734932899475098
1772790226369773600,14.915773681640625,2.627276659011841,1.7597206830978394,1.2980800867080688
1772790226389808600,14.93580859375,2.5888335704803467,1.8872411251068115,1.2714194059371948
1772790226409843700,14.95584375,2.6053006649017334,1.9407578706741333,1.195541501045227
1772790226429878800,14.975878662109375,2.7141659259796143,1.8686444759368896,1.063684344291687
1772790226449913900,14.995913818359375,2.8941280841827393,1.6795132160186768,0.9106314182281494
1772790226469948700,15.01594873046875,3.1318838596343994,1.3244630098342896,0.7262086272239685
1772790226489983700,15.035983642578126,3.296457052230835,0.8683180809020996,0.5022777915000916
1772790226510018600,15.0560185546875,3.3048946857452393,0.3062371611595154,0.2553774416446686
1772790226530053600,15.0760537109375,3.144550323486328,-0.29370272159576416,0.052140697836875916
1772790226550088700,15.096088623046874,2.9364442825317383,-0.8811792731285095,-0.06522028148174286
1772790226570123800,15.116123779296874,2.7231929302215576,-1.3342926502227783,-0.020118851214647293
1772790226590158600,15.13615869140625,2.455669403076172,-1.602328896522522,0.15756618976593018
1772790226610193700,15.156193603515625,2.1098413467407227,-1.6794745922088623,0.37557709217071533
1772790226630228700,15.176228759765625,1.7447623014450073,-1.5921082496643066,0.5508543848991394
1772790226650263600,15.196263671875,1.4178855419158936,-1.2663238048553467,0.5819590091705322
1772790226670299600,15.216299560546876,1.1422936916351318,-0.8817760944366455,0.5231153964996338
1772790226690334500,15.23633447265625,0.8726598024368286,-0.5558997392654419,0.4386172890663147
1772790226710369500,15.25636962890625,0.5754981637001038,-0.3133419454097748,0.33737456798553467
1772790226730404400,15.276404296875,0.2143099009990692,-0.1776815801858902,0.31502214074134827
1772790226750439400,15.296439453125,-0.23753079771995544,-0.10829132050275803,0.3894526958465576
1772790226770474500,15.316474609375,-0.6574974656105042,-0.072952501475811,0.3849322497844696
1772790226790509600,15.336509521484375,-1.188974142074585,-0.04453551024198532,0.19421687722206116
1772790226810544400,15.35654443359375,-1.8432108163833618,-0.023669643327593803,-0.01001961063593626
1772790226830579500,15.376579345703124,-2.5650010108947754,-0.055025700479745865,-0.12295255064964294
1772790226850614500,15.396614501953126,-3.2996432781219482,-0.07544415444135666,-0.26288729906082153
1772790226870649600,15.416649658203125,-3.9196391105651855,-0.0896100401878357,-0.48248302936553955
1772790226890684400,15.436684326171875,-4.3952741622924805,-0.144950270652771,-0.701672375202179
1772790226910719500,15.456719482421875,-4.7698750495910645,-0.2678160071372986,-0.8999313712120056
1772790226930754300,15.47675439453125,-4.996609687805176,-0.3732606768608093,-1.1977449655532837
1772790226950789400,15.496789306640625,-4.993845462799072,-0.3669276833534241,-1.6785821914672852
1772790226970824400,15.516824462890625,-4.804353713989258,-0.1458035409450531,-2.0811007022857666
1772790226990859500,15.536859619140625,-4.492190361022949,0.3778538107872009,-2.0495986938476562
1772790227010894600,15.55689453125,-3.97393536567688,1.0440858602523804,-1.5928081274032593
1772790227030929700,15.5769296875,-3.1940150260925293,1.5450046062469482,-0.8883378505706787
1772790227050964500,15.596964599609375,-1.9904292821884155,1.205657720565796,-0.3765736520290375
1772790227070999300,15.616999267578125,-0.806648313999176,0.3577629327774048,-0.5117727518081665
1772790227091034400,15.637034423828124,0.12199541181325912,-0.5566307306289673,-1.1696603298187256
1772790227111069400,15.6570693359375,0.5885404944419861,-1.616295337677002,-1.8540525436401367
1772790227131104500,15.6771044921875,0.5742374658584595,-2.531749725341797,-2.3153018951416016
1772790227151139600,15.6971396484375,0.3037455081939697,-3.2902672290802,-2.533005952835083
1772790227171174400,15.71717431640625,-0.08581344038248062,-3.782623052597046,-2.555354356765747
1772790227191210500,15.73721044921875,-0.47084927558898926,-3.9621806144714355,-2.511013984680176
1772790227211245600,15.75724560546875,-0.7914144992828369,-3.8338377475738525,-2.416762590408325
1772790227231280600,15.77728076171875,-0.9848891496658325,-3.483002185821533,-2.2400717735290527
1772790227251315700,15.797315673828125,-1.048816442489624,-2.9158036708831787,-2.006547451019287
1772790227271350300,15.817350341796875,-1.0238277912139893,-2.1030688285827637,-1.776689052581787
1772790227291385300,15.83738525390625,-1.024511694908142,-1.107092022895813,-1.5336103439331055
1772790227311420400,15.85742041015625,-1.1516791582107544,-0.11246635764837265,-1.1727250814437866
1772790227331455500,15.87745556640625,-1.3336546421051025,0.7827549576759338,-0.7185762524604797
1772790227351490600,15.897490478515625,-1.5111987590789795,1.552681803703308,-0.057319480925798416
1772790227371525600,15.917525634765624,-1.5704519748687744,2.1206812858581543,0.932620108127594
1772790227391560400,15.937560546875,-1.5895355939865112,2.537255048751831,1.9813971519470215
1772790227411595500,15.957595458984375,-1.4450514316558838,2.6642441749572754,2.8258681297302246
1772790227431630300,15.97763037109375,-1.1268281936645508,2.4237334728240967,3.198558807373047
1772790227451665400,15.99766552734375,-0.5715354084968567,2.0455806255340576,2.737776517868042
1772790227471700500,16.017700439453126,-0.0802258625626564,1.625767707824707,1.81032133102417
1772790227491735600,16.037735595703126,0.22643154859542847,1.1214238405227661,0.9262146353721619
1772790227511770400,16.057770263671873,0.49201446771621704,0.5566112995147705,0.18779626488685608
1772790227531805400,16.077805419921877,0.8488788604736328,0.01429105456918478,-0.4260128140449524
1772790227551840500,16.097840576171876,1.2294882535934448,-0.4780150353908539,-0.8623600602149963
1772790227571875600,16.11787548828125,1.5310946702957153,-1.0060447454452515,-1.0244849920272827
1772790227591910700,16.13791064453125,1.69362473487854,-1.434946060180664,-0.966842532157898
1772790227611945500,16.157945556640627,1.7231110334396362,-1.538514256477356,-0.7956225872039795
1772790227631980500,16.17798046875,1.7436639070510864,-1.3007060289382935,-0.6334903836250305
1772790227652015600,16.198015625,1.8145503997802734,-0.8235024213790894,-0.4211623966693878
1772790227672050700,16.21805078125,1.8921911716461182,-0.1274234652519226,-0.03863048180937767
1772790227692085800,16.238085693359373,1.9193090200424194,0.6984970569610596,0.5785038471221924
1772790227712120800,16.258120849609377,1.9560267925262451,1.6224690675735474,1.3014156818389893
1772790227732156000,16.278156005859376,2.031219959259033,2.4025022983551025,1.9379889965057373
1772790227752191700,16.298191650390624,2.1543993949890137,2.9682204723358154,2.3271219730377197
1772790227772226600,16.3182265625,2.3154568672180176,3.3183274269104004,2.4401185512542725
1772790227792261600,16.33826171875,2.5330426692962646,3.411874294281006,2.3338048458099365
1772790227812296700,16.358296630859375,2.7775800228118896,3.2405145168304443,2.140397310256958
1772790227832331800,16.378331787109374,3.0202853679656982,2.80207896232605,1.857619285583496
1772790227852366600,16.39836669921875,3.184387683868408,2.130856513977051,1.481579303741455
1772790227872401700,16.418401611328125,3.2188124656677246,1.2669727802276611,1.064059853553772
1772790227892436700,16.438436767578125,3.1490046977996826,0.3073194622993469,0.629423201084137
1772790227912471800,16.458471923828125,3.050905704498291,-0.721248984336853,0.22368235886096954
1772790227932507000,16.4785068359375,2.987449884414673,-1.6795352697372437,-0.01853267103433609
1772790227952541700,16.498541748046875,2.93422532081604,-2.469088554382324,-0.11065860092639923
1772790227972576500,16.518576416015627,2.7587053775787354,-2.9635305404663086,-0.14640648663043976
1772790227992611600,16.538611572265626,2.3823626041412354,-3.0961365699768066,-0.25551167130470276
1772790228012646700,16.558646728515626,1.8693156242370605,-2.8124914169311523,-0.4662119150161743
1772790228032681700,16.578681640625,1.4397480487823486,-2.3334765434265137,-0.6201998591423035
1772790228052716800,16.598716796875,1.1566632986068726,-1.702354073524475,-0.5528568029403687
1772790228072751900,16.618751953125,0.9975599646568298,-0.968341052532196,-0.28049662709236145
1772790228092786700,16.63878662109375,0.8133370876312256,-0.2286456972360611,0.10695121437311172
1772790228112821500,16.658821533203124,0.4294898509979248,0.32117509841918945,0.41152310371398926
1772790228132856600,16.678856689453124,0.08022905886173248,0.7714181542396545,0.353634774684906
1772790228152891600,16.6988916015625,-0.4663962125778198,0.9876516461372375,-0.10191251337528229
1772790228172926700,16.7189267578125,-1.3473941087722778,1.0501229763031006,-0.3581402897834778
1772790228192961800,16.7389619140625,-2.2566182613372803,1.0053819417953491,-0.21683350205421448
1772790228212996600,16.75899658203125,-3.0177557468414307,0.8690485954284668,0.10953980684280396
1772790228233031700,16.77903173828125,-3.665834903717041,0.6502360701560974,0.44653141498565674
1772790228253066800,16.799066650390625,-4.136274814605713,0.3685082495212555,0.6759273409843445
1772790228273101800,16.819101806640624,-4.388156414031982,0.06885416805744171,0.7290608286857605
1772790228293136600,16.83913671875,-4.441954612731934,-0.04330619424581528,0.44487813115119934
1772790228313171700,16.859171630859375,-4.396560192108154,0.02154976688325405,-0.036554813385009766
1772790228333206500,16.87920654296875,-4.31006383895874,0.3425680100917816,-0.348626971244812
1772790228353241600,16.89924169921875,-4.051772594451904,0.9183940291404724,-0.3115328550338745
1772790228373276700,16.919276611328126,-3.5163915157318115,1.633925437927246,0.008861934766173363
1772790228393311700,16.939311767578126,-2.660057783126831,2.115316152572632,0.4546370208263397
1772790228413346800,16.959346923828125,-1.5195802450180054,1.9222595691680908,0.7138763070106506
1772790228433382000,16.9793818359375,-0.46068450808525085,1.1829297542572021,0.508447527885437
1772790228453416700,16.999416748046876,0.3900090157985687,0.06729967892169952,-0.19236359000205994
1772790228473451500,17.019451416015624,0.8725815415382385,-1.1984575986862183,-1.157368779182434
1772790228493486600,17.039486572265623,0.8920015692710876,-2.426578998565674,-1.9538934230804443
1772790228513521700,17.059521728515627,0.5823225378990173,-3.531278610229492,-2.481921672821045
1772790228533556700,17.079556640625,0.10752779245376587,-4.335176467895508,-2.8617029190063477
1772790228553592600,17.099592529296874,-0.42304712533950806,-4.702789783477783,-3.0800952911376953
1772790228573627600,17.119627685546874,-0.8798346519470215,-4.680418014526367,-3.072512626647949
1772790228593662700,17.139662841796873,-1.1476099491119385,-4.2284345626831055,-2.8608787059783936
1772790228613697800,17.15969775390625,-1.1505450010299683,-3.403353214263916,-2.5594022274017334
1772790228633732900,17.17973291015625,-1.0840615034103394,-2.292527914047241,-2.1400222778320312
1772790228653767000,17.199766845703124,-1.0896800756454468,-1.0130164623260498,-1.6739810705184937
1772790228673802000,17.219802001953123,-1.2715632915496826,0.25106072425842285,-1.182479977607727
1772790228693836800,17.2398369140625,-1.5401006937026978,1.3444899320602417,-0.7260791659355164
1772790228713872000,17.259871826171874,-1.7375717163085938,2.2251076698303223,-0.18925593793392181
1772790228733907000,17.279906982421874,-1.801950216293335,2.850694179534912,0.4211994409561157
1772790228753942000,17.29994189453125,-1.6919251680374146,3.054395914077759,0.9631924033164978
1772790228773977000,17.31997705078125,-1.4351927042007446,2.8941009044647217,1.3444862365722656
1772790228794012200,17.34001220703125,-0.9285761117935181,2.608598232269287,1.3367657661437988
1772790228814047000,17.360046875,-0.409488707780838,2.192962884902954,1.0720744132995605
1772790228834081800,17.380081787109376,-0.041721612215042114,1.7260282039642334,0.8787409067153931
1772790228854116900,17.400116943359375,0.4054388403892517,1.1094907522201538,0.7628169655799866
1772790228874152000,17.42015185546875,0.9916203022003174,0.4060329794883728,0.5458241701126099
1772790228894187000,17.44018701171875,1.513250708580017,-0.16938716173171997,0.21209335327148438
1772790228914222000,17.46022216796875,1.9601781368255615,-0.7443143725395203,-0.09721843153238297
1772790228934257200,17.480257080078125,2.3317296504974365,-1.1411160230636597,-0.3201114237308502
1772790228954292000,17.5002919921875,2.4900920391082764,-1.3138505220413208,-0.3640948534011841
1772790228974327000,17.5203271484375,2.379384756088257,-1.1794471740722656,-0.17298217117786407
1772790228994361900,17.54036181640625,2.2074663639068604,-0.7463197112083435,0.16619589924812317
1772790229014397000,17.56039697265625,2.1218039989471436,-0.0743410736322403,0.6340853571891785
1772790229034432000,17.580431884765623,2.1386618614196777,0.7090474367141724,1.2055509090423584
1772790229054467000,17.600467041015627,2.23779296875,1.5390160083770752,1.839394450187683
1772790229074502000,17.620501953125,2.3763821125030518,2.2079110145568848,2.427812099456787
1772790229094537000,17.640536865234374,2.597677230834961,2.68731689453125,2.8116493225097656
1772790229114572000,17.660572021484374,2.8502037525177,2.9543240070343018,3.023911952972412
1772790229134607000,17.680607177734377,3.1320269107818604,2.984156370162964,3.079777240753174
1772790229154642000,17.700641845703124,3.3584415912628174,2.797215700149536,2.948664665222168
1772790229174677000,17.720677001953124,3.342926263809204,2.5203793048858643,2.5456347465515137
1772790229194711800,17.7407119140625,3.095165491104126,2.12558913230896,1.7922238111495972
1772790229214747000,17.760746826171875,2.785892963409424,1.4522254467010498,0.844829261302948
1772790229234782000,17.780781982421875,2.5942301750183105,0.5521792769432068,-0.11454308778047562
1772790229254817000,17.800817138671874,2.5392982959747314,-0.24441027641296387,-0.9478358030319214
1772790229274852000,17.82085205078125,2.504260540008545,-0.8606745600700378,-1.4932852983474731
1772790229294887200,17.84088720703125,2.4090166091918945,-1.3519920110702515,-1.6959632635116577
1772790229314922000,17.860921875,2.1980457305908203,-1.7204558849334717,-1.6370728015899658
1772790229334956800,17.880956787109376,1.902011513710022,-1.9229251146316528,-1.4067416191101074
1772790229354991900,17.900991943359376,1.6270803213119507,-2.003891706466675,-1.1358169317245483
1772790229375027000,17.92102685546875,1.349389672279358,-1.9863687753677368,-0.869332492351532
1772790229395062000,17.94106201171875,1.1297392845153809,-1.8652652502059937,-0.8568020462989807
1772790229415097000,17.96109716796875,0.7129985094070435,-1.6847000122070312,-1.0924124717712402
1772790229435132000,17.9811318359375,0.04616110399365425,-1.488948106765747,-1.2551320791244507
1772790229455167000,18.0011669921875,-0.8009241223335266,-1.1683279275894165,-1.1451458930969238
1772790229475202000,18.0212021484375,-1.6844205856323242,-0.6031790971755981,-0.7291101217269897
1772790229495236900,18.04123681640625,-2.390807867050171,0.14739185571670532,-0.0903908833861351
1772790229515272000,18.06127197265625,-2.891385555267334,0.8543524742126465,0.7008542418479919
1772790229535307000,18.08130712890625,-3.1800150871276855,1.423603892326355,1.536875605583191
1772790229555342000,18.101342041015624,-3.273223400115967,1.8356235027313232,2.1234214305877686
1772790229575377000,18.121376953125,-3.2310402393341064,2.0623884201049805,2.145355463027954
1772790229595412000,18.141411865234375,-3.2970447540283203,2.069234848022461,1.654237985610962
1772790229615447000,18.161447021484374,-3.4458680152893066,1.9244675636291504,1.0211368799209595
1772790229635482000,18.181482177734374,-3.4713499546051025,1.6787363290786743,0.4226205050945282
1772790229655517400,18.201517333984373,-3.3459949493408203,1.3591961860656738,-0.10424544662237167
1772790229675552300,18.22155224609375,-3.0679402351379395,0.9108969569206238,-0.5261271595954895
1772790229695587300,18.24158740234375,-2.6389503479003906,0.29537466168403625,-0.8280492424964905
1772790229715622400,18.261622314453124,-2.0718114376068115,-0.5252349972724915,-1.084741473197937
1772790229735657500,18.281657470703124,-1.4824962615966797,-1.3659688234329224,-1.3419897556304932
1772790229755692500,18.301692626953123,-1.0612452030181885,-2.120203733444214,-1.5676932334899902
1772790229775727600,18.3217275390625,-0.792965292930603,-2.659327983856201,-1.7952768802642822
1772790229795762400,18.341762451171874,-0.6319204568862915,-2.9563770294189453,-2.034492254257202
1772790229815797200,18.36179736328125,-0.5640252828598022,-2.9680440425872803,-2.2460265159606934
1772790229835833600,18.38183349609375,-0.5770220756530762,-2.79032826423645,-2.3524184226989746
1772790229855867400,18.401867431640625,-0.6382665038108826,-2.4232659339904785,-2.3381643295288086
1772790229875903500,18.421903564453125,-0.6685540676116943,-1.8911362886428833,-2.2645490169525146
1772790229895938300,18.441938232421876,-0.717060923576355,-1.341772198677063,-2.1070165634155273
1772790229915973400,18.461973388671876,-0.8821446895599365,-0.7469083070755005,-1.9165455102920532
1772790229936008400,18.482008544921875,-1.1592096090316772,-0.1591891199350357,-1.7361162900924683
1772790229956043500,18.50204345703125,-1.4916915893554688,0.3656086027622223,-1.5327626466751099
1772790229976078600,18.52207861328125,-1.7982443571090698,0.7088663578033447,-1.2507293224334717
1772790229996113700,18.54211376953125,-2.0346171855926514,0.9537591934204102,-0.9451649188995361
1772790230016148200,18.562148193359373,-2.0924861431121826,0.9928911328315735,-0.7082636952400208
1772790230036183300,18.582183349609377,-2.065626859664917,1.0140515565872192,-0.4897260367870331
1772790230056218400,18.60221826171875,-1.80823814868927,1.0949711799621582,-0.3288290202617645
1772790230076253400,18.62225341796875,-1.280355453491211,1.3604518175125122,-0.0878230631351471
1772790230096288500,18.64228857421875,-0.6747773885726929,1.8648375272750854,0.5706778764724731
1772790230116323600,18.662323486328123,0.5877023935317993,1.7488648891448975,1.3930684328079224
1772790230136358400,18.6823583984375,2.0624678134918213,1.0583127737045288,1.6749850511550903
1772790230156393500,18.7023935546875,2.820948839187622,0.32142356038093567,1.4352184534072876
1772790230176428500,18.722428466796874,3.0017588138580322,-0.5227140784263611,1.025729775428772
1772790230196463400,18.74246337890625,2.9107747077941895,-1.2562189102172852,0.6616700887680054
1772790230216498400,18.76249853515625,2.713395595550537,-1.6352014541625977,0.46879783272743225
1772790230236533500,18.782533447265624,2.472923755645752,-1.71497642993927,0.48105236887931824
1772790230256568300,18.802568359375,2.2491841316223145,-1.4008541107177734,0.6612996459007263
1772790230276603400,18.822603271484375,2.1895437240600586,-0.7913854718208313,0.9280679821968079
1772790230296638500,18.842638427734375,2.2625062465667725,0.05588537082076073,1.3211417198181152
1772790230316673500,18.862673583984375,2.3833703994750977,1.0067299604415894,1.8819483518600464
1772790230336708600,18.88270849609375,2.5370914936065674,2.043219566345215,2.564516305923462
1772790230356743400,18.902743408203126,2.8258626461029053,2.9135892391204834,3.345337152481079
1772790230376781600,18.922781494140626,3.4561054706573486,3.4195034503936768,4.11083984375
1772790230396816400,18.94281640625,4.214701175689697,3.7642717361450195,4.619835376739502
1772790230416851500,18.9628515625,4.5873799324035645,3.6068551540374756,4.461694717407227
1772790230436886500,18.982886474609376,4.053655624389648,2.4426069259643555,3.2023348808288574
1772790230456921300,19.00292138671875,2.96026873588562,0.41888728737831116,0.2981930673122406
1772790230476956400,19.022956298828124,2.440237522125244,-2.6635525226593018,-2.758934259414673
1772790230496991500,19.042991455078123,2.404829978942871,-6.033527851104736,-4.087004661560059
1772790230517026300,19.0630263671875,2.7178640365600586,-8.380316734313965,-3.855506420135498
1772790230537061400,19.083061279296874,3.119785785675049,-8.9517240524292,-2.6594722270965576
1772790230557096400,19.103096435546874,3.3890511989593506,-8.41198444366455,-0.9426359534263611
1772790230577131500,19.123131591796874,3.330249309539795,-7.2709760665893555,0.5876600742340088
1772790230597166600,19.14316650390625,3.065030813217163,-6.287552833557129,1.4262117147445679
1772790230617201400,19.163201416015625,2.711700677871704,-5.823584079742432,1.671858787536621
1772790230637236500,19.183236572265624,2.3536994457244873,-5.494662761688232,1.5637794733047485
1772790230657270800,19.203270751953124,2.0400967597961426,-4.7613654136657715,1.4434192180633545
1772790230677305900,19.223305908203123,1.8289793729782104,-4.222072124481201,1.1261184215545654
1772790230697341000,19.2433408203125,1.5512934923171997,-4.267924785614014,0.6901512742042542
1772790230717377000,19.263376953125,1.031478762626648,-4.214432239532471,0.2887255549430847
1772790230737412000,19.283412109375,0.6039301156997681,-3.665558338165283,-0.03364744037389755
1772790230757447000,19.303447021484374,0.47936686873435974,-2.630825996398926,-0.06706132739782333
1772790230777482000,19.32348193359375,0.3785417079925537,-1.4798896312713623,0.13104669749736786
1772790230797516800,19.343516845703125,0.23259569704532623,-0.7872634530067444,0.4329215884208679
1772790230817552000,19.3635517578125,0.07360631227493286,-0.5648298263549805,0.6100548505783081
1772790230837587000,19.3835869140625,0.022585470229387283,-0.12931057810783386,0.5805347561836243
1772790230857622000,19.4036220703125,0.11530981212854385,0.569425642490387,0.8304433822631836
1772790230877656800,19.42365673828125,0.28106123208999634,0.8783384561538696,1.286795735359192
1772790230897692000,19.44369189453125,0.5904704928398132,0.35197535157203674,1.2485085725784302
1772790230917727000,19.46372705078125,0.7741987705230713,-0.25294384360313416,0.6772665977478027
1772790230937762000,19.483761962890625,0.8571703433990479,-0.5401228666305542,0.17280399799346924
1772790230957797000,19.503797119140625,0.8541215658187866,-0.17130383849143982,0.1481172889471054
1772790230977832000,19.52383203125,0.9586151838302612,0.46620550751686096,0.651461124420166
1772790230997866800,19.54386669921875,0.9280335903167725,0.7751401662826538,1.1282551288604736
1772790231017901800,19.56390185546875,0.7976119518280029,0.8346059322357178,1.0137498378753662
1772790231037937000,19.58393701171875,0.6532006859779358,0.5942918658256531,0.6346443295478821
1772790231057972000,19.603971923828126,0.5934388637542725,0.32632485032081604,0.2873087525367737
1772790231078007000,19.624007080078126,0.5714262127876282,0.26291072368621826,0.2717854380607605
1772790231098042000,19.6440419921875,0.6080372333526611,0.3956035077571869,0.3482376039028168
1772790231118077000,19.664076904296873,0.5874621868133545,0.40802717208862305,0.4711134731769562
1772790231138111700,19.68411181640625,0.5353222489356995,0.3955678343772888,0.5398600101470947
1772790231158146800,19.704146728515624,0.5982370376586914,0.001258876291103661,0.33440089225769043
1772790231178182000,19.724181884765624,0.6987343430519104,-0.3690826892852783,-0.08656605333089828
1772790231198217000,19.744217041015624,0.8189161419868469,-0.4766829311847687,-0.24358949065208435
1772790231218252000,19.764251953125,0.8508216142654419,-0.3638991117477417,-0.0835108757019043
1772790231238286800,19.784286865234375,0.790427565574646,-0.06362877786159515,0.0607759989798069
1772790231258322000,19.804322021484374,0.6390867233276367,0.07304198294878006,0.14458967745304108
1772790231278357000,19.82435693359375,0.45047661662101746,0.0777222216129303,0.23150672018527985
1772790231298392000,19.84439208984375,0.3402550518512726,0.1234084889292717,0.18267154693603516
1772790231318427000,19.864427001953125,0.35840556025505066,0.08847234398126602,0.09626688063144684
1772790231338462000,19.8844619140625,0.44929230213165283,-0.3514251410961151,0.1570039987564087
1772790231358497000,19.9044970703125,0.37623727321624756,-0.5633770823478699,0.060683321207761765
1772790231378531800,19.92453173828125,0.26040709018707275,-0.5191526412963867,-0.05949554964900017
1772790231398567000,19.94456689453125,0.09492704272270203,-0.11770825833082199,0.030491862446069717
1772790231418602000,19.96460205078125,0.059904612600803375,0.37642183899879456,0.1231275200843811
1772790231438637000,19.984636962890626,0.10233968496322632,0.5684168338775635,0.07602392882108688
1772790231458672000,20.004672119140626,0.21310588717460632,0.34519973397254944,-0.11158858239650726
1772790231478707000,20.02470703125,0.2456800639629364,0.05427974835038185,-0.2161426842212677
1772790231498741800,20.04474169921875,0.2264629602432251,-0.3407948613166809,-0.23418906331062317
1772790231518776800,20.06477685546875,0.14003939926624298,-0.7049288749694824,-0.09211315214633942
1772790231538812000,20.08481201171875,-0.034863706678152084,-0.6266191601753235,0.17860916256904602
1772790231558847000,20.104846923828124,-0.10627637058496475,-0.5444361567497253,0.42427751421928406
1772790231578882000,20.124882080078127,-0.03752953186631203,-0.36391910910606384,0.4407174587249756
1772790231598917000,20.144917236328126,-0.013147227466106415,-0.15291018784046173,0.2845587730407715
1772790231618952000,20.164951904296874,0.035687156021595,0.10204461216926575,0.20392011106014252
1772790231638986800,20.18498681640625,0.025919482111930847,0.352853387594223,0.25950106978416443
1772790231659022000,20.20502197265625,-0.05464673414826393,0.4338579773902893,0.372542142868042
1772790231679057200,20.22505712890625,-0.1373075246810913,0.36098748445510864,0.4282536208629608
1772790231699092200,20.24509228515625,-0.12361781299114227,0.2703326940536499,0.2994125485420227
1772790231719127300,20.265127197265624,-0.04692969098687172,0.03500352427363396,0.018882878124713898
1772790231739161900,20.285161865234375,0.027594875544309616,-0.21694402396678925,-0.14628371596336365
1772790231759197000,20.305197021484375,0.0043987431563436985,-0.21470192074775696,-0.10444518178701401
1772790231779232000,20.32523193359375,0.07845140248537064,-0.06990611553192139,-0.023733025416731834
1772790231799267000,20.34526708984375,0.1553613543510437,0.03008732758462429,0.09741470217704773
1772790231819302100,20.36530224609375,0.22079123556613922,0.02377883344888687,0.09015519171953201
1772790231839337200,20.385337158203125,0.23188675940036774,-0.00008681904728291556,0.03261466696858406
1772790231859372000,20.4053720703125,0.3042171597480774,-0.1459723860025406,0.014562164433300495
1772790231879407000,20.425406982421876,0.39036989212036133,-0.23052722215652466,0.0694722831249237
1772790231899442000,20.44544189453125,0.48617789149284363,-0.24547792971134186,0.038480013608932495
1772790231919477000,20.46547705078125,0.45857930183410645,-0.0977444052696228,0.056656353175640106
1772790231939512000,20.485511962890627,0.46787717938423157,-0.004500742070376873,0.1314011663198471
1772790231959547100,20.505547119140626,0.46888118982315063,0.17414996027946472,0.07822609692811966
1772790231979582000,20.52558203125,0.28889837861061096,0.7717044353485107,-0.1857067495584488
1772790231999617000,20.545616943359374,0.24034443497657776,0.7245699763298035,-0.17711219191551208
1772790232019652000,20.565652099609373,0.3655204474925995,0.905884861946106,-0.2954130172729492
1772790232039687200,20.585687255859376,0.6042581796646118,0.9970185160636902,-0.684413731098175
1772790232059722000,20.605721923828124,0.6812515258789062,1.2017096281051636,-1.0085830688476562
1772790232079757000,20.625757080078124,0.6205085515975952,1.6004103422164917,-1.1597858667373657
1772790232099792100,20.645792236328123,0.42649567127227783,1.8438254594802856,-1.2939540147781372
1772790232119827000,20.665826904296875,0.19909179210662842,1.8740485906600952,-1.4237192869186401
1772790232139862000,20.685862060546874,0.15857553482055664,1.7342734336853027,-1.3717460632324219
1772790232159897000,20.70589697265625,0.14709064364433289,1.7296115159988403,-1.099399447441101
1772790232179932200,20.72593212890625,0.028353611007332802,1.8271663188934326,-0.7421708106994629
1772790232199967200,20.74596728515625,0.02659698948264122,2.0377275943756104,-0.5988772511482239
1772790232220002000,20.766001953125,0.025349032133817673,2.3344595432281494,-0.8093607425689697
1772790232240036900,20.786036865234376,-0.015516108833253384,2.6334924697875977,-1.1810411214828491
1772790232260072000,20.806072021484376,-0.10639568418264389,2.997117042541504,-1.7990257740020752
1772790232280107000,20.82610693359375,-0.3803183138370514,3.376384973526001,-2.4206063747406006
1772790232300142000,20.84614208984375,-0.810910165309906,3.677330732345581,-2.9502131938934326
1772790232320177200,20.86617724609375,-1.2445266246795654,3.8269927501678467,-3.3687264919281006
1772790232340212200,20.886212158203126,-1.4168927669525146,4.166617393493652,-3.545182228088379
1772790232360247000,20.9062470703125,-1.1974208354949951,4.410931587219238,-3.4677464962005615
1772790232380282000,20.9262822265625,-0.8037769198417664,4.11372184753418,-3.270462989807129
1772790232400317000,20.94631689453125,-0.6468930244445801,3.547285795211792,-3.202982187271118
1772790232420352000,20.96635205078125,-0.7485650181770325,2.8652782440185547,-3.082726001739502
1772790232440387000,20.986386962890624,-0.8035036325454712,2.0118024349212646,-2.7797274589538574
1772790232460422100,21.006422119140623,-0.7346063256263733,1.2308871746063232,-2.467618465423584
1772790232480457000,21.02645703125,-0.5883492827415466,0.6967604160308838,-2.2021639347076416
1772790232500492000,21.046491943359374,-0.48982882499694824,0.4714101254940033,-1.8161163330078125
1772790232520527000,21.066527099609374,-0.5093684196472168,0.4262341260910034,-1.4264439344406128
1772790232540562200,21.086562255859373,-0.7478915452957153,0.28385382890701294,-1.425820231437683
1772790232560597200,21.10659716796875,-1.093578577041626,0.14369431138038635,-1.7311689853668213
1772790232580632000,21.126632080078124,-1.2822611331939697,0.12164174765348434,-1.9804083108901978
1772790232600667000,21.1466669921875,-1.3067036867141724,0.2748400866985321,-2.040672540664673
1772790232620702000,21.166701904296875,-1.2633026838302612,0.4139460325241089,-1.9502480030059814
1772790232640737000,21.186737060546875,-1.0741140842437744,0.2428445965051651,-1.847464919090271
1772790232660772600,21.206772705078127,-0.9239799976348877,0.09365379065275192,-1.8312479257583618
1772790232680807700,21.2268076171875,-0.8723716735839844,0.06917454302310944,-1.8078259229660034
1772790232700842500,21.246842529296874,-0.6951066255569458,0.047997619956731796,-1.6342341899871826
1772790232720877300,21.266877197265625,-0.37070271372795105,-0.06560004502534866,-1.1055165529251099
1772790232740912400,21.286912353515625,0.0487544909119606,-0.17722538113594055,-0.23028966784477234
1772790232760947500,21.306947509765624,0.46816399693489075,-0.41930830478668213,0.8129911422729492
1772790232780982500,21.326982421875,0.8019036054611206,-0.5564387440681458,1.5946565866470337
1772790232801017600,21.347017578125,1.0060218572616577,-0.788428544998169,2.11436128616333
1772790232821052700,21.367052734375,1.1414047479629517,-0.7159562110900879,2.3751349449157715
1772790232841087500,21.38708740234375,1.3277453184127808,-0.5498857498168945,2.583500623703003
1772790232861122300,21.407122314453126,1.4428154230117798,-0.3575970232486725,2.829179048538208
1772790232881157400,21.427157470703126,1.4637247323989868,-0.16531705856323242,2.864941120147705
1772790232901192400,21.4471923828125,1.45939040184021,0.06428205221891403,2.7217307090759277
1772790232921227500,21.4672275390625,1.3761461973190308,-0.07301615178585052,2.6586573123931885
1772790232941261600,21.487261474609376,1.128173828125,-0.3474825918674469,2.5634055137634277
1772790232961296600,21.507296630859376,0.8829361796379089,-0.31071019172668457,2.318345308303833
1772790232981331700,21.527331787109375,0.754790186882019,-0.4884397089481354,2.0966672897338867
1772790233001366300,21.5473662109375,0.6500741839408875,-0.5140398740768433,1.957275629043579
1772790233021401300,21.5674013671875,0.6642515063285828,-0.49925562739372253,1.6731903553009033
1772790233041436400,21.5874365234375,0.765630304813385,-0.4855763018131256,1.3537659645080566
1772790233061471500,21.607471435546874,0.6959697604179382,-0.41039472818374634,1.0925027132034302
1772790233081506600,21.627506591796877,0.42742934823036194,-0.8551796078681946,0.9436178803443909
1772790233101541600,21.647541748046876,0.06589379906654358,-0.4367099404335022,0.9865483045578003
1772790233121576400,21.667576416015624,-0.055810533463954926,-0.4712998867034912,1.0281375646591187
1772790233141611500,21.687611572265624,0.09483809769153595,-0.3375362157821655,1.0408741235733032
1772790233161646300,21.707646240234375,0.2869625389575958,-0.03834392502903938,0.9625154137611389
1772790233181681400,21.727681396484375,0.14410683512687683,-0.22741691768169403,0.22493484616279602
1772790233201716500,21.747716552734374,-0.16590428352355957,0.9903622269630432,-0.5488476753234863
1772790233221751600,21.76775146484375,-0.4549954831600189,1.7825924158096313,-0.7160702347755432
1772790233241786400,21.787786376953125,-0.2753024101257324,2.092705726623535,0.07155328243970871
1772790233261821400,21.807821533203125,0.78498774766922,2.2914466857910156,1.6369284391403198
1772790233281856500,21.8278564453125,1.4268494844436646,3.256430149078369,3.361618757247925
1772790233301891600,21.8478916015625,1.7170931100845337,4.621277809143066,4.673825263977051
1772790233321926700,21.8679267578125,1.644305944442749,5.176671504974365,5.599544048309326
1772790233341961500,21.88796142578125,0.41610851883888245,5.6207356452941895,6.03156852722168
1772790233361996300,21.907996337890626,-1.5299601554870605,5.500665664672852,5.865438938140869
1772790233382031400,21.92803125,-3.932689666748047,5.309321403503418,4.984936237335205
1772790233402066400,21.94806640625,-6.679042816162109,5.3336076736450195,3.576192855834961
1772790233422101500,21.9681015625,-8.89652156829834,4.440828323364258,3.0721874237060547
1772790233442136600,21.988136474609377,-9.909337043762207,2.917729139328003,3.5252654552459717
1772790233462171600,22.008171630859376,-9.629168510437012,0.9549450874328613,3.9383018016815186
1772790233482206500,22.02820654296875,-8.85689926147461,-0.7363933324813843,4.04974365234375
1772790233502241300,22.0482412109375,-7.8422627449035645,-2.059075117111206,3.6972906589508057
1772790233522276400,22.0682763671875,-6.856466770172119,-2.298560619354248,3.1724534034729004
1772790233542311400,22.0883115234375,-5.402857303619385,-1.9586188793182373,2.910008430480957
1772790233562346500,22.108346435546874,-3.3636763095855713,-1.9820318222045898,3.049293279647827
1772790233582381600,22.128381591796874,-1.4745802879333496,-2.458324909210205,3.180248498916626
1772790233602416600,22.148416748046873,-0.36833274364471436,-2.752519369125366,2.765495538711548
1772790233622451500,22.168451416015625,0.40619224309921265,-2.3215677738189697,1.543278694152832
1772790233642486500,22.188486572265624,1.188532829284668,-1.1712353229522705,-0.7697113156318665
1772790233662521300,22.208521240234376,1.7245988845825195,-0.7778904438018799,-2.8742496967315674
1772790233682556400,22.228556396484375,1.9086697101593018,-0.7672239542007446,-4.241867542266846
1772790233702591500,22.248591552734375,1.4942008256912231,-1.190678596496582,-5.2104034423828125
1772790233722626300,22.268626220703126,0.7968297600746155,-2.2015533447265625,-5.5501203536987305
1772790233742661000,22.2886611328125,-0.050288472324609756,-3.168034076690674,-5.432779312133789
1772790233762696200,22.3086962890625,-0.8724518418312073,-3.644892454147339,-5.203123569488525
1772790233782731300,22.328731201171873,-1.5716283321380615,-3.764547348022461,-5.010630130767822
1772790233802766300,22.348766357421876,-2.3368899822235107,-3.864129066467285,-4.673689842224121
1772790233822801400,22.368801513671876,-2.9108307361602783,-3.6901237964630127,-4.1996355056762695
1772790233842836500,22.38883642578125,-3.1768245697021484,-3.057572841644287,-3.654491901397705
1772790233862871300,22.408871337890623,-3.1109397411346436,-2.2016189098358154,-2.9796204566955566
1772790233882906000,22.428906005859375,-2.7402243614196777,-1.3318828344345093,-2.089655637741089
1772790233902940200,22.448940185546874,-2.290768623352051,-0.5780732035636902,-0.9361855387687683
1772790233922975200,22.468975341796874,-1.6707266569137573,-0.08517907559871674,0.25282931327819824
1772790233943010300,22.48901025390625,-1.036854863166809,0.3294258415699005,1.2627849578857422
1772790233963045400,22.50904541015625,-0.5579487681388855,0.6402878165245056,2.056903839111328
1772790233983080400,22.52908056640625,-0.10322865098714828,0.8383159637451172,2.6782281398773193
1772790234003115500,22.549115478515624,0.345832496881485,0.9086993336677551,3.152787208557129
1772790234023150000,22.569150146484375,0.751284122467041,0.6862710118293762,3.5056512355804443
1772790234043185200,22.58918505859375,0.8607749342918396,0.776690661907196,3.573451519012451
1772790234063220200,22.60922021484375,0.9849384427070618,1.0477410554885864,3.035353183746338
1772790234083255300,22.62925537109375,1.2224180698394775,1.4647053480148315,2.2271671295166016
1772790234103290400,22.649290283203126,1.555538296699524,2.231980323791504,1.2581135034561157
1772790234123325400,22.669325439453125,1.680850863456726,3.00177264213562,0.3238752782344818
1772790234143360300,22.6893603515625,1.4134846925735474,3.388439178466797,-0.3433903753757477
1772790234163395300,22.709395263671876,1.065841794013977,3.1764636039733887,-0.551422119140625
1772790234183430400,22.729430419921876,0.8500128388404846,2.8612194061279297,-0.5568416714668274
1772790234203465200,22.74946533203125,1.0376533269882202,2.624568462371826,-0.6193535327911377
1772790234223500300,22.769500244140627,1.5800279378890991,2.477757692337036,-0.8300396800041199
1772790234243535400,22.789535400390626,2.2309463024139404,2.2975363731384277,-1.0202988386154175
1772790234263570400,22.8095703125,2.843169927597046,1.9728753566741943,-1.1374211311340332
1772790234283605200,22.829605224609374,3.346552848815918,1.579532265663147,-1.2672199010849
1772790234303640300,22.849640380859373,3.6711130142211914,1.33693265914917,-1.337971568107605
1772790234323675400,22.86967529296875,3.836533546447754,1.0345169305801392,-1.3254808187484741
1772790234343710500,22.88971044921875,3.789501667022705,0.7457612752914429,-1.2181214094161987
1772790234363745300,22.909745361328124,3.603732109069824,0.6248601675033569,-1.0873711109161377
1772790234383780400,22.9297802734375,3.3289644718170166,0.5430145263671875,-0.9362257719039917
1772790234403815200,22.949815185546875,3.075427293777466,0.42649751901626587,-0.7104091048240662
1772790234423850200,22.969850341796874,2.943169355392456,0.37016820907592773,-0.41404563188552856
1772790234443885300,22.98988525390625,2.8644771575927734,0.2988665997982025,-0.14274170994758606
1772790234463920400,23.00992041015625,2.90877103805542,0.12424871325492859,0.06145324185490608
1772790234483954400,23.029954345703125,3.00270414352417,-0.1404452621936798,0.19929365813732147
1772790234503989200,23.0499892578125,3.0282042026519775,-0.49508804082870483,0.3299941420555115
1772790234524024300,23.0700244140625,2.952631950378418,-0.8625126481056213,0.4717116057872772
1772790234544059400,23.090059326171875,2.840686321258545,-1.2072468996047974,0.5888329148292542
1772790234564094200,23.11009423828125,2.702098846435547,-1.618464708328247,0.7306110858917236
1772790234584129300,23.13012939453125,2.5338666439056396,-2.016690731048584,0.994860827922821
1772790234604164400,23.150164306640626,2.3142852783203125,-2.2969601154327393,1.24070143699646
1772790234624199400,23.170199462890626,2.070286273956299,-2.4030821323394775,1.3931970596313477
1772790234644234500,23.190234375,1.8326809406280518,-2.3738210201263428,1.395708441734314
1772790234664269000,23.21026904296875,1.5453423261642456,-2.2141127586364746,1.3153131008148193
1772790234684304000,23.230303955078124,1.2239608764648438,-2.146106481552124,1.29140305519104
1772790234704338700,23.250338623046876,0.8971582651138306,-2.175799608230591,1.449455738067627
1772790234724373800,23.270373779296875,0.5177672505378723,-2.14224910736084,1.6171901226043701
1772790234744408800,23.290408935546875,0.08422832936048508,-2.0129477977752686,1.390872836112976
1772790234764444000,23.31044384765625,-0.4831240475177765,-1.9364418983459473,0.6561557650566101
1772790234784479000,23.33047900390625,-1.4660720825195312,-2.0127336978912354,-0.2707553207874298
1772790234804514000,23.35051416015625,-2.641371965408325,-2.1482887268066406,-1.164936900138855
1772790234824548900,23.370548828125,-3.8585073947906494,-2.07551646232605,-1.798539161682129
1772790234844583700,23.390583740234376,-5.015000820159912,-1.7033940553665161,-2.1088171005249023
1772790234864618800,23.41061865234375,-5.8413405418396,-1.059289574623108,-2.2980289459228516
1772790234884653800,23.43065380859375,-6.27311372756958,-0.2089766561985016,-2.4266088008880615
1772790234904689000,23.45068896484375,-6.529061794281006,0.8825162053108215,-2.656343698501587
1772790234924724000,23.470723876953127,-6.604633808135986,2.165381669998169,-3.0263006687164307
1772790234944758800,23.4907587890625,-6.565005302429199,3.5339205265045166,-3.1865601539611816
1772790234964793900,23.5107939453125,-6.477080345153809,4.477343559265137,-2.6706533432006836
1772790234984827600,23.53082763671875,-6.236846446990967,5.151889324188232,-1.507063627243042
1772790235004862700,23.55086279296875,-5.4498162269592285,5.241158485412598,-0.18612779676914215
1772790235024897800,23.570897705078124,-3.8986692428588867,4.246958255767822,0.7801682353019714
1772790235044932900,23.590932861328124,-2.1209256649017334,2.7201738357543945,1.1072502136230469
1772790235064968000,23.610968017578124,-0.5207148194313049,1.2463090419769287,0.8003550171852112
1772790235085003000,23.6310029296875,0.789916455745697,-0.30768245458602905,-0.050338804721832275
1772790235105037800,23.651037841796875,1.5575910806655884,-1.7139267921447754,-1.1679242849349976
1772790235125073000,23.671072998046874,1.8785892724990845,-3.1379215717315674,-2.1126515865325928
1772790235145107700,23.691107666015625,1.6770715713500977,-4.638443470001221,-2.557684898376465
1772790235165142800,23.711142822265625,0.9726229310035706,-5.877166271209717,-2.60935378074646
1772790235185177900,23.731177734375,0.0797014832496643,-6.548401832580566,-2.517190933227539
1772790235205213000,23.751212890625,-0.8296774625778198,-6.746516704559326,-2.423727512359619
1772790235225247700,23.771247802734376,-1.5305540561676025,-6.408710479736328,-2.3500192165374756
1772790235245282800,23.79128271484375,-1.8314704895019531,-5.620884895324707,-2.30378794670105
1772790235265318000,23.81131787109375,-1.7555922269821167,-4.4723992347717285,-2.2230470180511475
1772790235285353000,23.83135302734375,-1.4112290143966675,-3.1933693885803223,-2.0499653816223145
1772790235305388000,23.851387939453126,-1.0237483978271484,-1.9256649017333984,-1.7896740436553955
1772790235325422800,23.8714228515625,-0.870680570602417,-0.7711957693099976,-1.4568955898284912
1772790235345458000,23.8914580078125,-1.083253026008606,0.22048524022102356,-1.0921725034713745
1772790235365492700,23.91149267578125,-1.6233148574829102,1.1416507959365845,-0.5707513689994812
1772790235385527800,23.93152783203125,-2.2739977836608887,2.1417243480682373,0.2334817349910736
1772790235405561900,23.951561767578124,-2.4096486568450928,3.4785447120666504,1.1805652379989624
1772790235425597000,23.971596923828123,-1.7880045175552368,5.038847923278809,2.059751033782959
1772790235445631700,23.9916318359375,-0.36482828855514526,6.482206344604492,2.6108713150024414
1772790235465666800,24.011666748046874,1.355893611907959,6.687600612640381,2.4960484504699707
1772790235485702000,24.031701904296874,2.655472993850708,5.751685619354248,1.4445313215255737
1772790235505736700,24.05173681640625,3.064709186553955,4.77051305770874,-0.7190529704093933
1772790235525771800,24.071771728515625,3.686523675918579,1.7804811000823975,-2.923574924468994
1772790235545806800,24.091806884765624,4.651889324188232,-1.2089546918869019,-3.8973891735076904
1772790235565842000,24.111842041015624,4.542744159698486,0.7976279258728027,-3.9980931282043457
1772790235585877000,24.131876953125,3.720280170440674,4.114055633544922,-3.2550086975097656
1772790235605912000,24.151912109375,3.2617175579071045,3.8078603744506836,-2.351417064666748
1772790235625947000,24.17194677734375,2.8183634281158447,3.1324472427368164,-1.9024341106414795
1772790235645981700,24.191981689453126,2.1426031589508057,2.66662859916687,-1.4437763690948486
1772790235666017800,24.212017822265626,1.4137969017028809,2.051621675491333,-0.9780322909355164
1772790235686052900,24.232052978515625,0.6321686506271362,1.0281093120574951,-0.46323636174201965
1772790235706088000,24.252087890625,-0.23901523649692535,-0.17445409297943115,0.28970345854759216
1772790235726122800,24.272122802734376,-0.8878209590911865,-1.3913285732269287,0.9186864495277405
1772790235746157800,24.29215771484375,-1.1654828786849976,-2.413409471511841,1.1595126390457153
1772790235766193000,24.31219287109375,-1.0519427061080933,-3.023291826248169,1.1089283227920532
1772790235786226700,24.332226806640627,-0.5234320759773254,-3.201662540435791,0.9559467434883118
1772790235806261800,24.35226171875,0.3010450601577759,-3.0818698406219482,0.8113703727722168
1772790235826296800,24.372296875,1.2602863311767578,-2.7245826721191406,0.6993082761764526
1772790235846332000,24.392331787109374,2.0688929557800293,-2.1154184341430664,0.6517314314842224
1772790235866367000,24.412366943359373,2.6349635124206543,-1.4837812185287476,0.6244106292724609
1772790235886401800,24.43240185546875,3.0275826454162598,-1.0091907978057861,0.4092426300048828
1772790235906436900,24.452436767578124,3.2967710494995117,-0.6956434845924377,-0.05062136426568031
1772790235926471700,24.4724716796875,3.378941297531128,-0.5342125296592712,-0.6081154942512512
1772790235946506800,24.4925068359375,3.3001444339752197,-0.6042864322662354,-1.0734981298446655
1772790235966541800,24.512541748046875,3.0762977600097656,-1.0083390474319458,-1.3333734273910522
1772790235986577000,24.532576904296874,2.825833559036255,-1.5895081758499146,-1.3243924379348755
1772790236006611700,24.55261181640625,2.5659923553466797,-2.027989387512207,-0.9967114925384521
1772790236026646800,24.572646728515625,2.1405556201934814,-2.0594751834869385,-0.4539176821708679
1772790236046681900,24.592681884765625,1.5262764692306519,-1.7008709907531738,-0.08491569012403488
1772790236066717000,24.612717041015625,0.7158824801445007,-1.30216646194458,-0.04710492864251137
1772790236086751700,24.632751708984376,-0.22092652320861816,-0.898775041103363,0.06751033663749695
1772790236106786800,24.652786865234376,-1.2725361585617065,-0.601696789264679,0.3396978974342346
1772790236126820900,24.67282080078125,-2.235335350036621,-0.5939368605613708,0.5762414932250977
1772790236146856000,24.69285595703125,-3.1030802726745605,-0.7759751081466675,0.7127058506011963
1772790236166890800,24.712890869140626,-3.713552236557007,-1.025699496269226,0.7581822276115417
1772790236186925800,24.73292578125,-4.024044036865234,-1.1143795251846313,0.8376193046569824
1772790236206961000,24.7529609375,-4.254846572875977,-1.069053292274475,0.9279638528823853
1772790236226995700,24.77299560546875,-4.535564422607422,-0.7743444442749023,0.9180683493614197
1772790236247030800,24.79303076171875,-4.958027362823486,-0.19565525650978088,0.7403230667114258
1772790236267065900,24.81306591796875,-5.261995315551758,0.5835827589035034,0.3354536294937134
1772790236287100700,24.8331005859375,-5.025630474090576,1.433980941772461,-0.046671099960803986
1772790236307135700,24.8531357421875,-4.285815715789795,2.218647003173828,-0.09298267215490341
1772790236327170800,24.8731708984375,-3.1568350791931152,2.601151466369629,0.23344950377941132
1772790236347206000,24.893205810546874,-1.8251047134399414,2.040184259414673,0.7286989092826843
1772790236367241000,24.913240966796874,-0.609465479850769,0.7535022497177124,0.9572224020957947
1772790236387275800,24.93327587890625,0.330102801322937,-0.5252233147621155,0.5921242833137512
1772790236407310800,24.953310791015625,1.043956995010376,-1.5863091945648193,-0.23798219859600067
1772790236427345700,24.973345703125,1.46976637840271,-2.4073843955993652,-1.2518324851989746
1772790236447379700,24.993379638671875,1.3442505598068237,-3.244847297668457,-2.1756224632263184
1772790236467414800,25.013414794921875,0.9351279735565186,-4.106137275695801,-2.8361575603485107
1772790236487449900,25.033449951171875,0.3532786965370178,-4.7661895751953125,-3.3189945220947266
1772790236507485000,25.05348486328125,-0.16319744288921356,-5.070777893066406,-3.677222490310669
