time,seconds_elapsed,z,y,x
1772717170726892800,0.064892822265625,-0.01784896042346954,0.005694941972289234,-0.004096393335005269
1772717170746764500,0.0847646484375,-0.029217326655983922,0.0073710584909655145,0.004818761925958097
1772717170766637600,0.104637451171875,-0.029810616374015806,0.005313815433904528,-0.0036526864218059925
1772717170786509800,0.124509765625,-0.025173019701242444,0.005683196735568345,-0.0016084855094086379
1772717170806382600,0.144382568359375,-0.020677461847662924,-0.0017119732833467422,0.00903872684170492
1772717170826254600,0.164254638671875,-0.026216391274333,0.005548683635704219,0.0030770328251644966
1772717170846127900,0.1841279296875,-0.01738543456494808,0.007730356790032237,-0.00033696773624978957
1772717170865999600,0.20399951171875,-0.026662381476163864,-0.001135945227369666,0.010256085008522495
1772717170885872600,0.22387255859375,-0.03264613206088543,0.005521503367833793,0.001848340413579717
1772717170905744600,0.24374462890625,-0.03294306918084621,0.005734671194478869,0.0006245525059755891
1772717170925617700,0.26361767578125,-0.0254582663834095,-0.0009605338615365326,-0.0029620281433686614
1772717170945489700,0.28348974609375,-0.027103110980987548,-0.0009416099653579294,0.0001560582113917917
1772717170965362400,0.303362548828125,-0.027846038302779198,0.006615490883309393,0.007230891968449577
1772717170985234700,0.323234619140625,-0.03412847957313061,0.0035286125175654887,0.0025997615690808744
1772717171005107700,0.343107666015625,-0.022751930034160612,-0.002575147717632353,0.0007271726302336901
1772717171024979700,0.362979736328125,-0.029488544812798497,0.0013783391484990715,0.000028440643195062873
1772717171044852700,0.382852783203125,-0.02918693151772022,0.004379767720494419,0.00046110557257197796
1772717171064724700,0.402724853515625,-0.016164952859282492,0.010167265080753713,0.005137563817854971
1772717171084597500,0.422597412109375,-0.025895488756895065,0.003071242405194789,-0.002663291791966185
1772717171104469800,0.4424697265625,-0.026800913164019582,0.008189937125798314,-0.0006420242305845022
1772717171124342800,0.4623427734375,-0.03593348316848278,0.003032189036440104,-0.002401773045258596
1772717171144214500,0.482214599609375,-0.030391046610474585,-0.0034090595248155295,0.005579754627402871
1772717171164087800,0.502087890625,-0.02290624381303787,-0.0017315912992693482,0.000622141353180632
1772717171183959800,0.521959716796875,-0.026793898901343344,0.004844316492322832,0.005566867746366187
1772717171203832600,0.54183251953125,-0.044155368068814274,0.004896375473123044,-0.006933205929817631
1772717171223704600,0.56170458984375,-0.017673603856563566,0.00008910305555909872,-0.0014133647961076347
1772717171243577600,0.58157763671875,-0.03383271149694919,0.009163787126634269,-0.0018783976251259445
1772717171263449600,0.60144970703125,-0.035472295397520066,0.0027342655357904732,0.0006480886451900005
1772717171283322600,0.621322509765625,-0.013166940087080001,-0.0023376491673290727,-0.00384709474905394
1772717171303195000,0.64119482421875,-0.026035189488530158,0.00480420367764309,-0.0016470456878188997
1772717171323067600,0.661067626953125,-0.01825637218058109,0.010868545217905192,0.0038609588776249435
1772717171342939600,0.680939697265625,-0.025737083324789998,-0.00299030438978225,-0.0016571652230340987
1772717171362812700,0.700812744140625,-0.024846856486797332,0.0020272680439054965,0.007501772198546678
1772717171382684700,0.7206845703125,-0.02424947511553764,0.004738682427071035,0.00012786416336894036
1772717171402557700,0.7405576171875,-0.025887305450439452,0.0020467947282828388,-0.0072408562400378285
1772717171422429400,0.760429443359375,-0.024689035576581954,0.008557272600848227,-0.00565663752220571
1772717171442302700,0.780302734375,-0.024541736060380934,0.00996708459984511,-0.0039221236134879284
1772717171462174700,0.8001748046875,-0.019307927060127256,0.007954320005327463,-0.0004478168327361345
1772717171482047500,0.820047607421875,-0.01840893239378929,-0.000905132146179676,0.0007757975449319928
1772717171501919700,0.839919677734375,-0.02363923426270485,0.0019865341747179626,-0.002053343200078234
1772717171521792800,0.859792724609375,-0.02169452993571758,0.0039841559990309175,0.00027530981004238127
1772717171541664500,0.87966455078125,-0.028279753544926643,0.007086852988414466,-0.0045918213022872805
1772717171561537800,0.899537841796875,-0.0208048876196146,-0.0003448131159879267,-0.00037911724438890814
1772717171581409800,0.919409912109375,-0.02320610354244709,0.004000504345633089,0.0005702102365437895
1772717171601282600,0.939282470703125,-0.02709258958697319,0.004905289431940764,-0.009639176952885463
1772717171621154600,0.959154541015625,-0.02095335617959499,-0.0027751090028323233,-0.007228407750418409
1772717171641027600,0.979027587890625,-0.029044892698526382,0.007568827819079161,-0.0017114618266932666
1772717171660899600,0.998899658203125,-0.029943887364864346,0.004322009651269764,0.003346132090128958
1772717171680772600,1.018772705078125,-0.020514964762330053,0.005055255829263478,-0.004749715277738869
1772717171700644600,1.03864453125,-0.021564181554317472,0.002971417026221752,-0.0023603450563270596
1772717171720517600,1.058517578125,-0.019024433943629265,0.004242916533071547,0.0016655403257347643
1772717171740389600,1.0783896484375,-0.03369242624342442,0.0009137355777435004,0.002547510792035609
1772717171760262700,1.0982626953125,-0.020824761363863943,0.0020425386782735584,0.001159572698129341
1772717171780134700,1.118134765625,-0.026355507484078406,0.0002564407127909362,-0.0013961487998254596
1772717171800007700,1.138007568359375,-0.020665186887979508,0.0034180100162513553,-0.007338544460851699
1772717171819879700,1.157879638671875,-0.022159809359908102,0.0010926358086057006,-0.001228317952249199
1772717171839752700,1.177752685546875,-0.028437574455142018,0.0030540720746852455,-0.0004644848397467285
1772717171859624700,1.197624755859375,-0.015265373671054839,0.007939980952721089,-0.003736163454176858
1772717171879497700,1.217497802734375,-0.026634908947348594,0.005294124352745712,0.0013298786305822432
1772717171899369700,1.23736962890625,-0.023933833295106885,0.01028802364990115,-0.0005018394417595118
1772717171919242500,1.257242431640625,-0.02378478021323681,0.0013339154848828912,-0.007390722172660753
1772717171939114500,1.277114501953125,-0.02722936770915985,0.008425736909359693,-0.00016589461881667375
1772717171958987800,1.29698779296875,-0.025579262414574623,0.0023272373711690306,0.0034709640461951493
1772717171978859800,1.31685986328125,-0.025131518647074698,-0.002425236119236797,0.0009285404212307184
1772717171998732500,1.336732666015625,-0.025577508848905563,-0.004437982447445392,-0.006425576068088412
1772717172018604800,1.356604736328125,-0.028419454276561736,-0.0024830124547705053,0.003869279181398451
1772717172038477600,1.3764775390625,-0.027820319339632988,0.008917484215367585,0.00008641790812835097
1772717172058349600,1.396349609375,-0.020637714359164238,0.004380589704401791,-0.005116018706327304
1772717172078222800,1.416222900390625,-0.02752572030723095,0.0011522935739718377,-0.004116550207044929
1772717172098094600,1.436094482421875,-0.028128946897387503,0.0006329276086762547,-0.0008818426021374761
1772717172117967600,1.455967529296875,-0.029328385815024373,0.00047967327572405336,0.002195098891481757
1772717172137839600,1.475839599609375,-0.023045944544672965,0.0038787593957968053,-0.0015139299605973064
1772717172157712600,1.495712646484375,-0.01720949347615242,0.0016856149993836878,-0.0010911379712633788
1772717172177584600,1.515584716796875,-0.01795358984172344,0.006992105643358081,-0.002375825753249228
1772717172197457700,1.535457763671875,-0.027081483671069145,0.0008292904309928417,-0.0033511553251184523
1772717172217329700,1.55532958984375,-0.022443302476406097,0.008481376086734235,-0.0036686511759180572
1772717172237202700,1.57520263671875,-0.0336667072802782,0.004173449759744107,0.006522405772376805
1772717172257074700,1.59507470703125,-0.03096738519370556,0.0039046975546516475,0.0050264315935783085
1772717172276947700,1.61494775390625,-0.018693594554066658,-0.0010116977931931615,-0.006055025722645223
1772717172296819700,1.63481982421875,-0.031705051818490024,-0.0028251769559457895,-0.009325699690077453
1772717172316692500,1.6546923828125,-0.02527180390059948,-0.002691668503079563,-0.006377645273134112
1772717172336564500,1.674564453125,-0.029613632497191428,0.003154737703874707,0.0015256934636272488
1772717172356437800,1.694437744140625,-0.02840834836065769,-0.0015624818100593984,0.000641969431657344
1772717172376309800,1.714309814453125,-0.018381459864974022,0.003043294952344149,-0.0032351642626337706
1772717172396182800,1.734182861328125,-0.030652327895164488,0.00007432561153545975,-0.00378606701050885
1772717172416054800,1.7540546875,-0.03110533235967159,0.0048683184224180874,-0.004225554406316951
1772717172435927600,1.773927490234375,-0.006710311293601989,-0.006768215493299067,-0.00625331564056687
1772717172455799600,1.793799560546875,-0.02182487831711769,0.0015959456882439552,0.0021527667202521114
1772717172475672600,1.813672607421875,-0.014338906475901603,-0.0024133447520434856,-0.006751008630171418
1772717172495544300,1.83354443359375,-0.024214988324046133,-0.005652838129922747,0.007122645821003243
1772717172515417300,1.853417236328125,-0.02167231810390949,-0.00035001901406794784,-0.007443557471595704
1772717172535289600,1.87328955078125,-0.028106150543689725,-0.0014591127671301364,-0.0033983828671742228
1772717172555162400,1.893162353515625,-0.024667992788553236,-0.001230984833370894,-0.0016908665632363409
1772717172575034400,1.913034423828125,-0.03410217608809471,-0.0005371390840038657,-0.006682720033777878
1772717172594907600,1.93290771484375,-0.02601297765672207,0.003401698202267289,0.0008315828527789563
1772717172614779400,1.952779296875,-0.03170096016526222,0.0007566087872721254,-0.002333639712492004
1772717172634652400,1.97265234375,-0.03394318613409996,0.0026336912381462753,-0.00842852252149023
1772717172654524400,1.9925244140625,-0.027806875336170194,0.006606723054964095,-0.0036918128557968883
1772717172674397400,2.0123974609375,-0.02107318316698074,0.0025243491121567786,-0.0027672727562487124
1772717172694269400,2.03226953125,-0.027211247530579564,-0.000261792741343379,-0.010377336768014356
1772717172714142200,2.05214208984375,-0.01703939760625362,0.0015651852237991988,-0.006052715034550056
1772717172734014500,2.072014404296875,-0.03035246816575527,0.003611468495428562,-0.002596701962314546
1772717172753887500,2.091887451171875,-0.019434768310189247,0.0005136303442530334,0.002877546463999897
1772717172773759500,2.111759521484375,-0.02138181072473526,0.001880352120194584,0.0009645524495281279
1772717172793632500,2.131632568359375,-0.021377719071507453,0.004613192883878946,-0.014929739375365897
1772717172813504500,2.15150439453125,-0.028707039046287536,0.0038488939804956317,0.0008426157034467905
1772717172833377300,2.171377197265625,-0.03348901262581348,0.00409994613211602,0.0076844992211554195
1772717172853249300,2.191249267578125,-0.028251696494221684,-0.0008961085895076394,0.0018372527639847248
1772717172873122600,2.21112255859375,-0.01897007340788841,-0.002891319261025637,-0.008311746007716283
1772717172892994300,2.230994384765625,-0.025853987702727316,0.00728272262038663,0.0041811033432371915
1772717172912867300,2.250867431640625,-0.024358196187019347,-0.0022556699723005292,-0.00231687124078162
1772717172932739600,2.270739501953125,-0.02031856540739536,0.0035871743043884635,-0.007147186607215553
1772717172952612400,2.2906123046875,-0.028548049092292783,-0.0019789901890791954,0.0007419135416392237
1772717172972484400,2.310484375,-0.01447802268564701,-0.0008863726467825472,-0.0093410342565272
1772717172992357400,2.330357421875,-0.02495090138316154,-0.0015275748934596776,-0.009579345657583326
1772717173012229400,2.3502294921875,-0.028840894559025762,-0.0020020605374127627,-0.0049271816033404315
1772717173032102400,2.370102294921875,-0.036922494205832476,-0.0001676116518676281,0.0023849041088484227
1772717173051974400,2.389974365234375,-0.019713585251569746,0.00006093640699982643,-0.005228411305928602
1772717173071847400,2.409847412109375,-0.026293548163771628,0.002422002982534468,-0.008032682471163571
1772717173091719400,2.429719482421875,-0.019703648379445073,0.0002654825357720256,0.0008164583488833158
1772717173111592200,2.44959228515625,-0.029420740273594856,-0.0031988508402369916,-0.0009046846216078847
1772717173131464400,2.46946435546875,-0.027470190727710724,-0.0052743054074235254,-0.004519733313610777
1772717173151337500,2.48933740234375,-0.02522153501808643,-0.005690430193953216,-0.0010111315376125276
1772717173171209200,2.509209228515625,-0.027014263653755186,-0.001179656504932791,-0.005983449190622195
1772717173191082500,2.52908251953125,-0.017588263660669325,0.004236084933485836,-0.003204403798189014
1772717173210954500,2.54895458984375,-0.018638649496436118,-0.005128394130710512,-0.007614420526474714
1772717173230827300,2.5688271484375,-0.019090484917163846,-0.0026048670024611054,-0.009190729932487011
1772717173250699500,2.588699462890625,-0.03106441582739353,-0.0011378266572020948,0.003840518877794966
1772717173270572500,2.608572509765625,-0.024184593185782432,-0.0020777743884362277,-0.004266516604367643
1772717173290444300,2.6284443359375,-0.013857260438799857,0.0023717523663304746,0.006472319552954286
1772717173310317600,2.648317626953125,-0.030164836639165877,-0.0010082819934003054,-0.00024964564582332966
1772717173330189600,2.668189453125,-0.014150690427422523,0.004608717638161033,-0.00657408116068691
1772717173350062300,2.688062255859375,-0.01609539475440979,-0.00011801862278953193,0.0035350331251975146
1772717173369934300,2.707934326171875,-0.02447276247739792,-0.00137353510921821,-0.014203909318847581
1772717173389807400,2.727807373046875,-0.029853870993852612,0.0013009265307337046,-0.008721934243803844
1772717173409679400,2.747679443359375,-0.01772796439230442,0.0018769545867107808,0.0022493589625228196
1772717173429552400,2.767552490234375,-0.024614801296591757,-0.006896262319758534,-0.006894536153553054
1772717173449424400,2.78742431640625,-0.022960604348778724,0.0023335757804103193,0.0013458342515397816
1772717173469298000,2.8072978515625,-0.015780921977758405,-0.005039163210988044,0.0007439045693259686
1772717173489170000,2.827169921875,-0.022815058398246765,0.002765172130707651,-0.002170037515461445
1772717173509043000,2.84704296875,-0.030445991668105122,-0.007719890194945037,-0.0046812166187912225
1772717173528915000,2.8669150390625,-0.03313829949200153,-0.001513016645144671,-0.0016183219168335197
1772717173548787700,2.88678759765625,-0.022658406531810758,0.0008148600468412041,-0.0017245770365931093
1772717173568660000,2.906659912109375,-0.02251461414694786,0.0013227182374335824,0.0012673073889221996
1772717173588533000,2.926532958984375,-0.021315759751200675,-0.0040163229692727325,-0.006246474907826632
1772717173608405000,2.946405029296875,-0.0287999780267477,0.0005442264119163155,-0.0038532230957411227
1772717173628278000,2.966278076171875,-0.027601708152890203,0.0013100048863328992,-0.0061387493501883
1772717173648150000,2.98614990234375,-0.024909400328993796,-0.0061051850073039525,0.003235301259951666
1772717173668022800,3.006022705078125,-0.027303017467260358,-0.0008982274813577533,0.00021819106163457034
1772717173687894800,3.025894775390625,-0.02834989617168903,-0.0008992321283556521,-0.005265199652360752
1772717173707768000,3.04576806640625,-0.019822890844941137,0.0017944639350287615,-0.00377529902132228
1772717173727639800,3.065639892578125,-0.028804654201865194,-0.001540836233831942,0.0011172496600542216
1772717173747512800,3.085512939453125,-0.02492109076678753,-0.005471855539828539,-0.0011268668717704714
1772717173767385000,3.105385009765625,-0.02865677016377449,-0.0038677813440561293,-0.005426527693914249
1772717173787257900,3.1252578125,-0.027155133429169653,0.0038570224880240854,-0.003837861129827797
1772717173807129900,3.1451298828125,-0.02984744125306606,0.003261814807541668,-0.000595691737672314
1772717173827003000,3.1650029296875,-0.018774258574843404,-0.0019663133705966175,-0.003964985507680103
1772717173846875000,3.184875,-0.027303017467260358,-0.0029001966872252522,-0.00043977965675294397
1772717173866748000,3.204747802734375,-0.0368821621954441,-0.0005854900040663778,-0.0010515640127006917
1772717173886620000,3.224619873046875,-0.010396890851855278,0.00098650855300948,-0.0024004761373158543
1772717173906493000,3.244492919921875,-0.019373393511772155,0.0060255804324522615,-0.00016741072246804833
1772717173926365000,3.264364990234375,-0.028495442122220993,-0.006072269118390977,-0.003143421725416556
1772717173946237700,3.28423779296875,-0.019067104041576386,0.00006508285915479063,0.00042276458987034854
1772717173966110000,3.30410986328125,-0.029240707531571385,-0.0025102475215680897,0.0001662325455341488
1772717173985983000,3.32398291015625,-0.01352642104923725,0.0008526347739621997,-0.0031156660688109695
1772717174005854700,3.343854736328125,-0.021157938840985296,-0.0031851328421384096,-0.0054622748607303945
1772717174025728000,3.36372802734375,-0.02339899576604366,0.005706468013301491,-0.005490761169698089
1772717174045600000,3.38360009765625,-0.026841245174407957,-0.010223580111563204,-0.0008430084290914237
1772717174065472800,3.40347265625,-0.025195231533050536,-0.0077503949310630555,-0.0028764870180748403
1772717174085344800,3.4233447265625,-0.028044775745272636,0.00038459713710471986,-0.005595892911450937
1772717174105218000,3.443218017578125,-0.026997897040843963,0.000591627483908087,0.003456305333180353
1772717174125089800,3.46308984375,-0.0301420402854681,-0.0009743249248713254,0.0037874004510696974
1772717174144963000,3.482963134765625,-0.016679332122206687,0.003790131264273077,-0.006494604449998587
1772717174164835000,3.5028349609375,-0.0250572843670845,-0.0008261303595267236,-0.0046306463421788065
1772717174184707800,3.522707763671875,-0.030444238102436065,-0.0024662805156782266,0.0045031109723728145
1772717174204579800,3.542579833984375,-0.025059622454643247,0.0019617285270243884,0.0009549443709664046
1772717174224452900,3.562452880859375,-0.02041442699730396,0.002106945683993399,-0.003043313218653202
1772717174244324900,3.582324951171875,-0.033581367084383966,-0.0018974128528498112,-0.008595266523677855
1772717174264198000,3.602197998046875,-0.015467618244886397,-0.0016665997716598213,-0.00190152277238667
1772717174284070000,3.62206982421875,-0.022046412113308905,0.000401164679415524,-0.002166548650432378
1772717174303943000,3.64194287109375,-0.026832477346062658,0.00028952099848538637,-0.0032599790434818714
1772717174323815000,3.66181494140625,-0.018601240095496175,-0.0018000351592898367,0.0002920052165165543
1772717174343688000,3.68168798828125,-0.017556699478626252,0.004314483931940049,-0.0009717676416039466
1772717174363560000,3.701559814453125,-0.021297639572620392,-0.0013138225449249147,-0.0017078085648827253
1772717174383433000,3.721432861328125,-0.02414016952216625,-0.006651438979525119,-0.002124956264719367
1772717174403304700,3.7413046875,-0.020845219630002975,-0.0008849478746764362,-0.005294791073026136
1772717174423178000,3.761177978515625,-0.021137480574846268,-0.002160027578100562,-0.000590230111265555
1772717174443050000,3.781050048828125,-0.033707623812556264,-0.002453293169941753,-0.0001943809277843684
1772717174462922800,3.8009228515625,-0.02518237205147743,-0.001939699358306825,-0.005684429711429402
1772717174482795000,3.820794921875,-0.019652210453152654,0.0016170798078179358,-0.0025530089510604737
1772717174502667800,3.840667724609375,-0.016062077006697654,0.003725212801899761,0.002793941567465663
1772717174522539800,3.860539794921875,-0.023090368208289146,-0.0071367017458193,-0.005774053356796502
1772717174542413000,3.8804130859375,-0.017546178084611893,0.0062043893317691974,-0.011021078031649813
1772717174562285000,3.90028515625,-0.017093758141994476,0.0079130564131774,0.0019411880624946205
1772717174582157800,3.92015771484375,-0.02845803272128105,0.0032903650485910474,0.007648742921184748
1772717174602029800,3.94002978515625,-0.022922610425949095,-0.0013719459403306244,0.0027388869119808076
1772717174621902800,3.95990283203125,-0.015433715975284576,-0.000870115631725639,-0.006259991976525634
1772717174641774800,3.97977490234375,-0.030392800176143646,0.0007063581710681319,0.0011187200979329646
1772717174661646800,3.999646728515625,-0.02634966226518154,-0.0049934791720472275,-0.003813685669796541
1772717174681519900,4.019519775390625,-0.020066636472940443,-0.009965166637394577,0.0007908581167459487
1772717174701392000,4.039391845703125,-0.023211948761343956,-0.002580627610348165,-0.0027597470369189977
1772717174721265000,4.059264892578125,-0.025009353572130202,0.001879036945942789,-0.0022060860763769593
1772717174741137000,4.079136962890625,-0.02305997307002544,0.0021914090970531104,0.0011345661210361868
1772717174761010000,4.099010009765625,-0.023802315869927405,-0.009928140828944743,0.005184782226756215
1772717174780882000,4.1188818359375,-0.02050736597776413,-0.006787577780894935,0.0040536136392038315
1772717174800755000,4.1387548828125,-0.018565584260225296,0.0010459653889760374,-0.0028246107003651556
1772717174820627000,4.158626953125,-0.0293359845995903,-0.0035703875663690267,0.0012369031175039709
1772717174840500000,4.1785,-0.033977672925591465,-0.0070600015141069885,0.0015356029362883418
1772717174860371700,4.198371826171875,-0.027100188371539113,-0.003246306711155921,-0.004288353976840153
1772717174880245000,4.218244873046875,-0.02964402763545513,-0.0032138109473511573,0.0009144570969510823
1772717174900117000,4.238116943359375,-0.022157471272349356,-0.0045160526523366565,-0.0022572500080335883
1772717174919989800,4.25798974609375,-0.022604045996069907,-0.0004892265553586185,-0.008045697216363622
1772717174939862000,4.277862060546875,-0.03083645229041576,-0.0037587132127024233,-0.008924516744352877
1772717174959735000,4.297735107421875,-0.022152795097231864,0.0005726122561842203,-0.00021884864876046777
1772717174979606800,4.317606689453125,-0.02169979063272476,0.00026670637847855684,-0.0021891075421124695
1772717174999480000,4.33747998046875,-0.026795652467012404,-0.0005408106121234595,-0.004750719924736768
1772717175019352000,4.35735205078125,-0.028294366592168805,-0.0021574520285241303,0.004555900605535134
1772717175039224800,4.377224853515625,-0.022155717706680296,-0.000776190270576626,-0.012054604064160958
1772717175059096800,4.397096923828125,-0.03202595433592796,-0.0008048501094803214,0.002126362770516425
1772717175078969900,4.416969970703125,-0.018556816431879997,-0.005758636591956019,-0.0013417425983119754
1772717175098841900,4.436841796875,-0.02319558214843273,-0.00034433819195255636,0.0062013205918483435
1772717175118715000,4.45671484375,-0.010929390293359756,-0.0023086422685533762,0.0006097293961793183
1772717175138587000,4.4765869140625,-0.031283027014136315,-0.00398147085160017,0.005133654827717692
1772717175158460000,4.4964599609375,-0.020959785920381543,-0.0002529335814528167,-0.0023822646271903065
1772717175178332000,4.516331787109375,-0.026196517530083653,-0.005861384580377489,-0.00880170321543701
1772717175198205000,4.536204833984375,-0.02605330966711044,0.0057109249927103515,-0.00023210085597820577
1772717175218077000,4.556076904296875,-0.022763035950064656,-0.002856814203225076,0.0008636767577845603
1772717175237950000,4.575949951171875,-0.027255671194195745,-0.0028683767768554387,-0.0033150793647393584
1772717175257821700,4.59582177734375,-0.020972060880064963,-0.0029082521295174953,0.002251313457591459
1772717175277695000,4.615695068359375,-0.021864041283726692,0.001395125886518508,-0.004387914494331926
1772717175297567000,4.63556689453125,-0.02470364862382412,0.001738258502073586,0.0017946739975828675
1772717175317439700,4.655439697265625,-0.025453005686402318,0.00008258198322728275,-0.0028054676084779203
1772717175337312000,4.67531201171875,-0.02470364862382412,-0.0016353278505615888,0.002352791937533766
1772717175357184800,4.695184814453125,-0.02933423103392124,-0.0016010237221606074,0.0003397350820712745
1772717175377056800,4.715056884765625,-0.01900806733071804,-0.00582729964768514,0.0012682755033019929
1772717175396930000,4.734929931640625,-0.017812135544419287,-0.004106558535993099,0.0022029260049108413
1772717175416802000,4.754802001953125,-0.027981062859296798,-0.0005151829805225133,-0.0005355864477343857
1772717175436674800,4.7746748046875,-0.020954525223374366,-0.0012388028136454522,-0.0032411373456940054
1772717175456547000,4.794547119140625,-0.02155833633542061,0.0030234760070219635,0.0026808548481203616
1772717175476419300,4.81441943359375,-0.023206688064336775,-0.002274009346589446,0.0071812076078262175
1772717175496291300,4.834291259765625,-0.018864859467744827,-0.0006795797619968653,0.0017294815405737608
1772717175516164400,4.854164306640625,-0.021405776122212408,-0.0016803177697584033,0.0009753569713328033
1772717175536036400,4.874036376953125,-0.02858312040567398,-0.002733717546518892,0.0067466703817714
1772717175555909400,4.893909423828125,-0.03367079893350601,0.0006991795116104185,0.0007421510036569088
1772717175575781400,4.913781494140625,-0.016018822386860847,-0.009832608032599091,0.004050928491773084
1772717175595654100,4.933654052734375,-0.01931260323524475,-0.001365644063707441,-0.0026523594059981405
1772717175615526400,4.9535263671875,-0.022311785051226614,-0.006860917011741548,-0.005746096770791336
1772717175635399400,4.9733994140625,-0.023811083698272704,-0.0022111367108300327,0.005823363258084282
1772717175655271200,4.993271240234375,-0.025897242322564122,-0.008348050296958535,0.00032887576133944094
1772717175675144400,5.01314453125,-0.038171032962203026,-0.0032993703389540313,0.0055176035108510406
1772717175695016400,5.033016357421875,-0.02784720734655857,-0.0002262282376177609,-0.002920928948000073
1772717175714888400,5.052888427734375,-0.019915829825401306,-0.0029278518791310488,-0.001378348281653598
1772717175734761200,5.07276123046875,-0.0193190329760313,-0.007546963047143072,-0.005821408763015642
1772717175754634500,5.092634521484375,-0.021265490868687627,-0.001710311049222946,0.00004765680031850934
1772717175774506200,5.11250634765625,-0.03039338469803333,-0.0037814730337820943,0.0030767314310651273
1772717175794378200,5.132378173828125,-0.024705986711382865,0.0007236746320500969,-0.00031081038168631495
1772717175814251500,5.15225146484375,-0.02006196029782295,-0.008719112099055201,0.002158657604921609
1772717175834123300,5.172123291015625,-0.022308277919888497,-0.004530300373397768,0.0009277641030959785
1772717175853996300,5.191996337890625,-0.02470657123327255,0.002974211771506816,-0.0020190664711408316
1772717175873868300,5.211868408203125,-0.021420389169454573,0.005380779722891748,0.0024993790676817295
1772717175893741300,5.2317412109375,-0.028607670325040815,-0.00036083266902714966,0.0024492197830229996
1772717175913613300,5.25161328125,-0.025167759004235266,-0.008187251978367567,0.0011670618848409503
1772717175933486300,5.271486328125,-0.027112463331222532,0.002302742250729352,0.00007793320757336914
1772717175953358300,5.2913583984375,-0.02846095533072948,0.0012543109100311993,0.003515908299619332
1772717175973231400,5.3112314453125,-0.0239724117398262,0.002897493273485452,0.0027020346334669736
1772717175993103400,5.331103271484375,-0.02053308494091034,0.00027534634266048667,0.00025591098982840775
1772717176012976400,5.350976318359375,-0.023678981751203535,-0.00514174680262804,-0.000481682569719851
1772717176032848400,5.370848388671875,-0.028917466926574705,0.002522285019233823,0.0014292930176015943
1772717176052721200,5.39072119140625,-0.017692308557033538,-0.0017985738545656202,0.005312664656434208
1772717176072593200,5.41059326171875,-0.021429156997799872,-0.006914017172157764,-0.00254846064010635
1772717176092466400,5.430466552734375,-0.02352934414744377,0.00041765915649011727,-0.0015669387894682585
1772717176112338400,5.45033837890625,-0.013651508733630179,-0.0007669657845050097,-0.0019980145499575884
1772717176132211200,5.470211181640625,-0.01619768608510494,-0.0023177571567706765,-0.0023971425359137354
1772717176152083500,5.49008349609375,-0.023977087914943695,0.003597805296257138,0.00508500251355581
1772717176171956200,5.509956298828125,-0.02786415848135948,-0.0002754011415876448,0.0010008567387703806
1772717176191828200,5.529828125,-0.021878654330968854,0.003973342344071716,-0.0021532599105965346
1772717176211701500,5.549701416015625,-0.03040507513582706,-0.008176200861390679,-0.0020174590359441935
1772717176231573200,5.5695732421875,-0.022022446715831756,-0.008750932009425014,0.003920287849428132
1772717176251446300,5.5894462890625,-0.022470190483331678,-0.0026982809069566425,-0.004132661091629415
1772717176271318500,5.609318603515625,-0.024717677149176595,-0.00275706188948825,0.0036130119985435154
1772717176291191300,5.62919140625,-0.023970073652267453,-0.004814304946549237,-0.0029183533984236416
1772717176311063300,5.649063232421875,-0.029654549029469488,-0.004695482606161386,0.003078740725060925
1772717176330936300,5.668936279296875,-0.022914427119493482,-0.0022310835203155875,-0.004118358571641147
1772717176350808300,5.688808349609375,-0.024857962402701377,-0.00004139145631343126,-0.002567722463002428
1772717176370681300,5.708681396484375,-0.020972060880064963,0.00024464067714288827,0.00466644830792211
1772717176390553300,5.72855322265625,-0.024862054055929183,-0.006264321091771125,-0.0007911047119181603
1772717176410426400,5.74842626953125,-0.022318799313902852,-0.0013508483533747494,0.0017976605391129851
1772717176430298400,5.76829833984375,-0.03458674473464489,0.00034945275848731396,-0.002604958334006369
1772717176450171100,5.788171142578125,-0.02814531351029873,-0.006529273904580623,0.0024024762981571255
1772717176470044000,5.8080439453125,-0.014828151297569274,-0.005182681601215154,-0.0010618936104699968
1772717176489917000,5.8279169921875,-0.023655016353726386,-0.0007491743994876742,0.00176792298797518
1772717176509789000,5.847788818359375,-0.03787351132035255,-0.002131879195850342,0.0007224233898799866
1772717176529662000,5.867661865234375,-0.02545125212073326,-0.004808770254906267,-0.011493846642551942
1772717176549534000,5.887533935546875,-0.030390462088584896,-0.0031922749689780173,0.0014331380756571889
1772717176569407000,5.907406982421875,-0.02380991465449333,-0.0018702691175974905,-0.001719964793557301
1772717176589279000,5.927279052734375,-0.030546529433131218,-0.008501195032056421,0.0001278915628325194
1772717176609151000,5.94715087890625,-0.022025369325280188,-0.0024582250733859836,-0.006348884969530627
1772717176629023700,5.967023681640625,-0.009309095615148543,-0.00770931400200352,-0.004676613508909941
1772717176648896000,5.98689599609375,-0.02636661339998245,-0.006005450959876179,-0.003757361505832523
1772717176668768800,6.006768798828125,-0.028910452663898467,-0.005593162098247557,-0.0038190559646580366
1772717176688640800,6.026640869140625,-0.01933481506705284,-0.008009630389139056,-0.004133346078218892
1772717176708514000,6.04651416015625,-0.026665304085612296,0.0036970826859585937,-0.0008366700198501349
1772717176728386000,6.066385986328125,-0.025319734695553778,-0.0002877674328163266,-0.009660813395958394
1772717176748258800,6.0862587890625,-0.023083938467502594,-0.0015762546070851385,0.0009260927358176558
1772717176768131000,6.106131103515625,-0.018001520636677742,-0.000172086897585541,-0.001269700275408104
1772717176788003800,6.12600390625,-0.02204407402575016,-0.0020979038610123095,0.010238786813849583
1772717176807875800,6.145875732421875,-0.018755553874373436,-0.0013933723208494483,-0.003161806765478104
1772717176827749000,6.1657490234375,-0.019953823748230935,0.0006726020319387316,-0.005134111485444009
1772717176847620900,6.185620849609375,-0.022043489503860474,-0.0011143544500693678,-0.008161569547839462
1772717176867494000,6.205493896484375,-0.020852233892679213,0.0008368344166316092,0.005059310949873179
1772717176887366000,6.225365966796875,-0.020404490125179288,-0.004364551885053515,0.004866911916621029
1772717176907239000,6.245239013671875,-0.027585926061868667,-0.007585669356025755,0.000729419386247173
1772717176927111000,6.26511083984375,-0.02115092457830906,0.008562058373820037,-0.0016568272963166236
1772717176946984000,6.28498388671875,-0.015763970842957494,-0.0019490517085418103,-0.00415804212805815
1772717176966856000,6.30485595703125,-0.024292145213484762,-0.0015430464572273193,-0.002649509861785918
1772717176986729000,6.32472900390625,-0.025640052691102026,0.005988956482801586,-0.006677925127651542
1772717177006601000,6.34460107421875,-0.023093875339627264,-0.004409596603177488,-0.0009179276956710964
1772717177026474000,6.364473876953125,-0.024141338565945625,-0.00018427052572369575,-0.0064091820557136085
1772717177046346000,6.384345947265625,-0.01576338632106781,-0.00298389291530475,-0.005665414483705535
1772717177066218800,6.40421875,-0.019358195942640304,-0.004065605471096933,-0.00889027654803358
1772717177086090800,6.4240908203125,-0.027290742507576942,0.00254933742294088,-0.006377681805752217
1772717177105964000,6.443964111328125,-0.025496260306239128,0.003893116714712232,-0.001462729496322572
1772717177125835800,6.463835693359375,-0.02190904946923256,-0.00449683649521321,-0.000729629448801279
1772717177145708800,6.483708740234375,-0.020863924330472947,-0.0040661351940594614,0.0040210082775447515
1772717177165581000,6.5035810546875,-0.01996492966413498,-0.005299348517134785,0.0018000260261353104
1772717177185453800,6.523453857421875,-0.023557401198148725,-0.007107092058844864,-0.00566595333982259
1772717177205325800,6.543325927734375,-0.023856676405668256,0.0005408288784325122,0.0048460061259102075
1772717177225199000,6.56319921875,-0.03073942165672779,-0.006908847806695848,0.0021525201250798998
1772717177245070800,6.58307080078125,-0.02267009696960449,0.0013129274957813322,-0.003825640969071537
1772717177264942800,6.60294287109375,-0.02416939561665058,-0.0017667174115777015,-0.01157636469369754
1772717177284816000,6.62281591796875,-0.023723989936709402,0.00013666852433234452,-0.0056407275670208035
1772717177304687900,6.64268798828125,-0.03539396946430206,0.003479238684196025,-0.00841913363863714
1772717177324561000,6.662560791015625,-0.02821370257139206,0.0050197643907740706,-0.0046203806764911854
1772717177344433000,6.682432861328125,-0.026420389413833616,-0.0032375023501925167,0.004428493099892511
1772717177364306000,6.702305908203125,-0.02207797629535198,-0.0013921302118338644,-0.000041473654704168437
1772717177384178000,6.722177978515625,-0.030163083073496817,0.001594977573864162,-0.0030965686426963654
1772717177404051000,6.742051025390625,-0.019092823004722596,0.0061675279201008374,-0.0010519932709634303
1772717177423923000,6.7619228515625,-0.021945289826393127,-0.00350702174026519,-0.0007235833005048334
1772717177443796000,6.7817958984375,-0.015963877329230308,-0.004833502837363631,0.0009580222440417856
1772717177463668000,6.80166796875,-0.03526479012668132,-0.002833926517982036,0.0027414441952481865
1772717177483541200,6.821541259765625,-0.028528759869933126,-0.00005112739903852343,0.005205614952230825
1772717177503413200,6.841413330078125,-0.034811201140284534,-0.003753507314622402,0.0012420542166568338
1772717177523286300,6.861286376953125,-0.03137128981947899,-0.0033988669243641195,-0.008825604680832475
1772717177543158300,6.881158203125,-0.013860767570137976,0.004567234850302338,-0.00570524417059496
1772717177563031300,6.90103125,-0.021043957072496414,0.001583360201306641,-0.004669380050525069
1772717177582903300,6.9209033203125,-0.03420972811579704,0.0063036667214706535,-0.0004318064128514379
1772717177602776300,6.9407763671875,-0.037648470392823215,-0.004274791242368519,-0.004170709813386202
1772717177622648300,6.9606484375,-0.02656827345192432,-0.00025276918467134236,-0.0009652922350447625
1772717177642521300,6.980521240234375,-0.016541384956240652,0.00340399975720793,-0.002249167166277766
1772717177662393300,7.000393310546875,-0.02865969277322292,-0.004727996636275202,-0.0027712365453131495
1772717177682266000,7.02026611328125,-0.0346428588360548,-0.009140150522720068,-0.00377597487475723
1772717177702138000,7.04013818359375,-0.03074935852885246,0.006335121305659413,0.0006036193158011883
1772717177722011400,7.060011474609375,-0.016987375158071517,-0.0009605521278455853,-0.0038336690119002014
1772717177741883400,7.07988330078125,-0.027912673798203468,0.003527224278077483,0.0033999446365982292
1772717177761756200,7.099756103515625,-0.031498715591430665,0.0011341185964643954,-0.0029173578845802695
1772717177781628400,7.11962841796875,-0.020726561686396597,-0.0016868388420902191,-0.0007847754358313977
1772717177801501200,7.139501220703125,-0.028809330376982686,0.001227642098814249,-0.0036482842413242903
1772717177821373200,7.159373291015625,-0.029252982491254804,-0.00014945494066923856,0.00013833075845614076
1772717177841245200,7.1792451171875,-0.029849779340624806,-0.000003561930265277624,-0.005434875397151336
1772717177861118200,7.1991181640625,-0.031792730101943015,0.00302628901861608,-0.008344524899311364
1772717177880990200,7.218990234375,-0.023124854999780654,-0.00029437983669340607,0.007654944333108141
1772717177900863200,7.23886328125,-0.030758710879087447,-0.004031557071022689,-0.004029620842263102
1772717177920735200,7.2587353515625,-0.015199322697520255,0.0006963117010891437,-0.0046400443581864235
1772717177940608300,7.278608154296875,-0.02941489505469799,-0.003926434462424367,-0.004583245270187035
1772717177960480300,7.298480224609375,-0.01325111123919487,0.0016502696913667022,-0.004446184020210057
1772717177980353300,7.318353271484375,-0.026713234880566594,0.00046067631430923937,-0.003913995105959475
1772717178000225300,7.338225341796875,-0.033145898276567456,0.0027317082525230942,-0.0007566361867357045
1772717178020098300,7.358098388671875,-0.01428805307149887,0.006648333706986159,-0.004657771811122075
1772717178039970300,7.37797021484375,-0.026706805139780042,0.0009265219940803944,-0.0012982779159210621
1772717178059843300,7.39784326171875,-0.02790507501363754,0.00402609544461593,-0.001735984346596524
1772717178079715300,7.41771533203125,-0.024014497315883634,-0.005648344617895782,-0.003732638056529686
1772717178099588400,7.43758837890625,-0.03000000146627426,0.005408836773596703,-0.006757091311085968
1772717178119460400,7.45746044921875,-0.02656827345192432,-0.0005320610500872135,-0.006804839442949742
1772717178139333400,7.47733349609375,-0.026869302225112912,-0.0030216859087347984,-0.0024914332232438027
1772717178159205000,7.497205078125,-0.027020693394541738,-0.007136208555474877,-0.008108734248904511
1772717178179078400,7.517078369140625,-0.021485855621099472,0.0020864143526181577,0.004510390096530318
1772717178198950400,7.536950439453125,-0.03181318836808204,0.0005238777436316014,0.00031330373287200925
1772717178218823200,7.5568232421875,-0.020593290695548057,-0.0024969861811958254,-0.0012681293728295713
1772717178238695400,7.5766953125,-0.018199089035391806,0.002874678653478622,0.0024501696310937405
1772717178258568200,7.596568115234375,-0.03301964154839516,0.003793967189174145,-0.001019661903940141
1772717178278440200,7.616440185546875,-0.024940964511036872,0.0027814839446917176,-0.0002813924909569323
1772717178298313500,7.6363134765625,-0.022392449072003363,-0.004078190958034247,-0.0019323928346857428
1772717178318185200,7.656185302734375,-0.02837561513483524,0.004674805144313722,-0.0014697072263807058
1772717178338058200,7.676058349609375,-0.029123218631744382,0.007518705067038536,-0.004414108381513506
1772717178357930200,7.69593017578125,-0.02463525956273079,-0.003925448081735521,-0.005196353933541104
1772717178377802500,7.715802490234375,-0.022393618115782738,0.0010179814035072923,-0.005078673237469047
1772717178397675300,7.73567529296875,-0.027634441378712654,0.0008306969367899,0.0005619355985429138
1772717178417547300,7.75554736328125,-0.024947394251823424,-0.00094033132372424,-0.0122815538209863
1772717178437420300,7.775420166015625,-0.01836275516450405,-0.005032477741874754,0.008557062538294122
1772717178457292300,7.795292236328125,-0.01850654754936695,-0.0055305086581967765,-0.0033929851728491485
1772717178477165300,7.815165283203125,-0.024348259314894673,-0.004109389813896269,0.0008295370261650532
1772717178497037000,7.835037109375,-0.024198621711134908,-0.004890018797572702,-0.0022220051647163924
1772717178516910300,7.854910400390625,-0.031084289571642873,0.006722312258649617,-0.002651418691081926
1772717178536782300,7.8747822265625,-0.03168751616179943,0.0014244981114752589,-0.005984782631183043
1772717178556655000,7.894655029296875,-0.02614917125701904,0.003547518147435039,0.0026853392269928006
1772717178576527400,7.91452734375,-0.016873393389582634,-0.005240896328166127,-0.0029403460345230996
1772717178596400400,7.934400390625,-0.029891280394792556,-0.0010592815282754599,-0.0000556300442200154
1772717178616272100,7.954272216796875,-0.028845570734143254,0.0014000029910355807,0.0012880944486241786
1772717178636145400,7.9741455078125,-0.031688685205578805,-0.003676971479691565,-0.0045258890597615386
1772717178656017400,7.994017333984375,-0.027346856608986853,-0.0045282362804748115,-0.0006876443374436348
1772717178675890200,8.01389013671875,-0.02690086640715599,-0.002859426285419613,-0.005736516091693193
1772717178695762400,8.033762451171874,-0.016277765583992004,0.003639105421025306,0.009295222353423014
1772717178715635200,8.05363525390625,-0.019417817175388336,0.001263772858120501,-0.003591256824461743
1772717178735507200,8.073507080078125,-0.028099136281013487,0.0027081081812269986,0.005232064567739144
1772717178755380500,8.09338037109375,-0.02481470778286457,-0.0028039515048265454,-0.005764280881453305
1772717178775252200,8.113252197265625,-0.025561142235994337,-0.003535663312859833,-0.0049291634978726505
1772717178795124200,8.133124267578125,-0.023614099821448326,0.0035776027584448456,-0.001367351963603869
1772717178814997200,8.152997314453126,-0.03707973059415817,0.0025161475393921137,-0.014244816717971115
1772717178834869500,8.172869384765624,-0.024652795219421385,0.0013866320528089999,-0.0012968440106604247
1772717178854742300,8.1927421875,-0.019863222855329512,0.006497709722537547,-0.006761895350366831
1772717178874614300,8.2126142578125,-0.029894203004240987,0.001246456397138536,-0.001360054573137313
1772717178894487300,8.2324873046875,-0.02540332132577896,0.00024137100782245396,-0.006281582753825932
1772717178914359300,8.252359375,-0.032736732953786846,-0.005799370461143553,-0.001199484583409503
1772717178934232300,8.272232421875,-0.030785598886013028,0.0027305209424346682,-0.005963045723410323
1772717178954104000,8.29210400390625,-0.02809679819345474,0.0004341353672556579,-0.0046565023026429115
1772717178973977300,8.311977294921874,-0.028100305324792862,0.0007046594043262302,-0.0020100794470869
1772717178993849300,8.331849365234374,-0.027652561557292937,-0.001010857542976737,-0.004259849401563405
1772717179013722000,8.35172216796875,-0.031981530672311784,0.005689991802535951,0.0022528204280883074
1772717179033594400,8.371594482421875,-0.02195288861095905,0.0019808898852206767,0.004936460888339206
1772717179053467400,8.39146728515625,-0.027034721919894217,-0.005902191514801234,-0.012388804454589262
1772717179073339100,8.411339111328125,-0.02748772638440132,-0.0013454232595860958,-0.007791421061195433
1772717179093212400,8.43121240234375,-0.026583471021056175,0.0002517097387462854,-0.0009769370070658624
1772717179113084400,8.45108447265625,-0.022087328645586966,0.002415792437456548,0.00015590294776484368
1772717179132957200,8.470957275390624,-0.02462766077816486,-0.004164371404144913,-0.007229695525206625
1772717179152829200,8.4908291015625,-0.019082886132597923,-0.008757014690339565,-0.003396939828759059
1772717179172702200,8.5107021484375,-0.027754268366098404,-0.003209993288759142,-0.005742589639453217
1772717179192574200,8.53057421875,-0.01728080514669418,-0.0009909107334911823,-0.000881787803210318
1772717179212446200,8.5504462890625,-0.029555764830112456,-0.003051752253435552,-0.005939829244604334
1772717179232319200,8.5703193359375,-0.025521979269385337,-0.0008554843181744217,-0.0070109473411459474
1772717179252191200,8.590191162109376,-0.023420623075962065,-0.006004007921461016,-0.0033515480507630853
1772717179272064300,8.610064208984374,-0.02835340330302715,-0.0014393303544260562,-0.0018247220759745686
1772717179291936500,8.6299365234375,-0.015334931775927542,-0.003700918610859662,-0.008012014142470434
1772717179311809300,8.649809326171875,-0.026405191844701765,0.0038416422558017072,-0.006289820859208703
1772717179331681300,8.669681396484375,-0.029101006799936293,-0.008376162146590649,-0.004277677319198847
1772717179351554300,8.68955419921875,-0.02221709250509739,-0.002475267539732158,0.004640391418058425
1772717179371426300,8.70942626953125,-0.02221709250509739,-0.002711980638746172,0.004479090775968506
1772717179391299300,8.72929931640625,-0.023711714977025983,0.0011296433507464825,0.0034747543053235855
1772717179411171000,8.749171142578126,-0.029698388171195984,-0.00464724128395319,0.0014386271015275269
1772717179431044400,8.76904443359375,-0.024608371555805204,-0.003543663956224918,0.0012510777733288705
1772717179450916400,8.788916259765625,-0.024757424637675284,0.0023520247525535523,0.005818878879211843
1772717179470788400,8.808788330078125,-0.01922200234234333,-0.0020742489907890557,-0.0042929114209488035
1772717179490660400,8.828660400390625,-0.03388707203269005,-0.002655300281755626,-0.00763160912329331
1772717179510533400,8.848533447265625,-0.025209260058403012,0.0031169812430627644,-0.0061275521027389914
1772717179530405600,8.868405517578125,-0.03569090658426285,0.000847958598844707,-0.005483582510240376
1772717179550278400,8.8882783203125,-0.018628712624311445,-0.003184621385484934,-0.001075748605886474
1772717179570150400,8.908150390625,-0.019369886380434034,-0.0005264898258261383,-0.005227096131676808
1772717179590022400,8.9280224609375,-0.018466215538978575,-0.005271985586173832,0.00080139777706936
1772717179609895400,8.9478955078125,-0.024905893197655675,0.0018084193951450288,-0.011418571182945743
1772717179629767400,8.967767333984375,-0.023554478588700294,-0.0002164922948926687,-0.001803377893846482
1772717179649640400,8.987640380859375,-0.030286417192220687,-0.0008496938982047141,0.003832006777776405
1772717179669512400,9.007512451171875,-0.027291327029466628,-0.002899959225207567,-0.0013016845825593918
1772717179689385500,9.027385498046876,-0.029834581771492955,0.005647887960169464,0.0000057082215789705515
1772717179709257500,9.047257568359376,-0.03252630507349968,-0.009029566287714988,-0.0015192819891497492
1772717179729130500,9.067130615234374,-0.019960838010907173,-0.002330306111089885,0.0012390859414357692
1772717179749002500,9.08700244140625,-0.02070551889836788,0.0025282946349121627,0.0031482074983883645
1772717179768875300,9.106875244140625,-0.026232173365354536,-0.008847798246331513,0.007822893911693244
1772717179788747300,9.126747314453125,-0.03385550785064697,-0.0031076471591368316,-0.004304884986532852
1772717179808620500,9.14662060546875,-0.017242226701974867,-0.008887600533757358,0.00656436348427087
1772717179828492300,9.1664921875,-0.01634557012319565,0.0020810257914476095,0.004137364666210487
1772717179848365300,9.186365234375,-0.026522096222639083,-0.0035911198271438476,-0.00341777255423367
1772717179868237600,9.206237548828126,-0.022175006929039953,-0.0003017228929325938,0.00036959136421792205
1772717179888110300,9.2261103515625,-0.03100654816031456,-0.0037767785923555493,-0.00020496625388041138
1772717179907982300,9.245982421875,-0.0167921448469162,-0.0036150852246209977,0.001992004934279248
1772717179927855600,9.265855712890625,-0.018435820400714873,0.0008449811904691159,-0.004036242379294708
1772717179947727400,9.285727294921875,-0.02875730792880058,-0.004983158707432448,-0.005836076609184965
1772717179967600400,9.305600341796875,-0.025464111602306366,0.002069828543998301,-0.002798261549556628
1772717179987472400,9.325472412109375,-0.02321954754590988,-0.0001584602310322225,0.0036896300318650897
1772717180007344400,9.345344482421876,-0.029203298130631446,0.0058133441875688726,-0.004536985842511058
1772717180027217400,9.365217529296874,-0.02216682362258434,0.0009578669804148376,-0.0038037031318992375
1772717180047089400,9.38508935546875,-0.01842471448481083,-0.004609393491595983,-0.00033187143602408464
1772717180066962400,9.40496240234375,-0.0224649297863245,-0.0012335055840201675,0.003909857786959037
1772717180086834400,9.42483447265625,-0.022164485535025594,-0.006938329629506915,-0.0015400416493881494
1772717180106707500,9.44470751953125,-0.027552023792266844,-0.008601513601373881,0.0010528152548708021
1772717180126579500,9.464579345703125,-0.025752865415811538,-0.006521729918941855,0.003476489604683593
1772717180146452500,9.484452392578126,-0.024406711503863334,-0.000045958033576607704,0.005520051196264103
1772717180166324500,9.504324462890626,-0.02933773816525936,0.006016337680071592,0.004110102199949324
1772717180186197500,9.524197509765624,-0.026944121026992795,-0.00028795009590685367,-0.00003221263601444662
1772717180206069500,9.544069580078125,-0.026048633491992948,0.0023751133671961722,0.0007926573481876403
1772717180225942300,9.5639423828125,-0.027841362127661702,-0.007089994793571531,0.0005079403889831155
1772717180245814300,9.583814208984375,-0.026643676775693893,-0.003318513430841267,-0.00369739321321249
1772717180265687600,9.6036875,-0.027843700215220448,0.000979567355569452,-0.00008179653193801641
1772717180285559300,9.623559326171875,-0.017218845826387403,-0.00600369739420712,0.002641920210374519
1772717180305432300,9.643432373046876,-0.03008943331539631,-0.0049271724701859055,-0.0001372530462220311
1772717180325304600,9.6633046875,-0.022308277919888497,-0.0028625315579585728,0.0000611738690175116
1772717180345177300,9.68317724609375,-0.023059388548135756,-0.000025518033746629953,-0.002372154225129634
1772717180365049300,9.70304931640625,-0.025460604470968245,-0.00594624985223636,-0.002606045179395005
1772717180384921300,9.72292138671875,-0.018423545441031454,-0.000505520103033632,0.00007862732731737196
1772717180404794400,9.74279443359375,-0.029641689547896383,-0.0012271306421607732,-0.004298866237699985
1772717180424666400,9.762666259765625,-0.022005495581030845,-0.006192406633030623,-0.0013471311594825237
1772717180444539400,9.782539306640626,-0.023944354689121244,-0.0005965411210432648,0.0010498926454223692
1772717180464411400,9.802411376953126,-0.021848259192705152,0.0000716221977956593,0.004666439174767584
1772717180484285000,9.822284912109374,-0.011968670213222503,0.002904251807834953,-0.007402750537171959
1772717180504157000,9.842156982421875,-0.021401684468984602,-0.007472929696552455,0.009159768538642674
1772717180524030000,9.862030029296875,-0.032922026392817494,-0.003631323973368853,0.0024739797649439422
1772717180543902000,9.88190185546875,-0.019311434191465377,-0.007922627959121019,-0.00243815039973706
1772717180563774700,9.901774658203125,-0.023504209706187246,-0.005602843242045492,-0.0037417438115924595
1772717180583647000,9.92164697265625,-0.028299627289175986,-0.0007208433541469276,0.0003066730626858771
1772717180603520000,9.94152001953125,-0.025758126112818715,-0.004015354854892939,0.003149166479613632
1772717180623391700,9.961391845703124,-0.023513562056422233,-0.002446041445247829,0.00008042655875906348
1772717180643265000,9.98126513671875,-0.027253917628526685,-0.002541154116485268,0.007134327125642448
1772717180663137000,10.001136962890625,-0.015730068573355675,-0.005919581041019409,0.000647065731883049
1772717180683009800,10.021009765625,-0.014836334604024887,0.002337886629346758,-0.00048065965641289944
1772717180702881800,10.0408818359375,-0.016328618988394737,-0.005876417752727866,0.001970542021142319
1772717180722754000,10.060754150390625,-0.02440554246008396,-0.004042315927054733,0.006658955565700307
1772717180742626800,10.080626708984376,-0.027546178573369978,-0.006147124452888965,0.004384772689174861
1772717180762498800,10.100498779296874,-0.020814824491739273,-0.005490140115190297,0.004053476641885936
1772717180782372000,10.1203720703125,-0.02080839475095272,-0.001963536891620606,0.0034801428664941337
1772717180802243800,10.140243896484375,-0.024700726014375684,-0.00761405520029366,0.002373414600454271
1772717180822116900,10.160116943359375,-0.026198855617642403,0.000794694041647017,0.0013654248679988085
1772717180841988900,10.17998876953125,-0.027697569742798803,0.001015442386548966,0.004299761286843568
1772717180861862000,10.19986181640625,-0.018867197555303573,0.0004697729362174868,-0.007740649855183437
1772717180881734000,10.21973388671875,-0.029643443113565444,-0.00032490283912047744,0.0030595885000191626
1772717180901607000,10.23960693359375,-0.024264672684669492,0.0034446422948502,-0.004776785947754979
1772717180921479000,10.25947900390625,-0.02665770530104637,0.001756817072071135,-0.0024934059846214948
1772717180941352000,10.27935205078125,-0.028597733452916142,0.0006032265901565551,0.002191655692225322
1772717180961224000,10.299223876953125,-0.03293722396194935,-0.006615198622364551,0.001657019092561677
1772717180981097000,10.319096923828125,0.08123217605352401,0.0038194121576845645,0.00611633658898063
1772717181000969000,10.338968994140625,0.02511749012172222,-0.0024163038941100237,0.0037517354826442895
1772717181020841700,10.358841796875,-0.04041851962804794,0.00024949951535090803,-0.026217861712211743
1772717181040714000,10.3787138671875,-0.010037994411587715,-0.0018493907263502478,-0.003556788299279287
1772717181060586000,10.3985859375,0.006867547681927681,0.004389978587254882,0.01839395402036607
