time,seconds_elapsed,z,y,x
1772789158748914000,0.087913818359375,-0.21013094316720962,0.12838131911084055,0.08223569054026156
1772789158768947000,0.107947021484375,-0.22379764946997163,0.2010157626889646,0.20172727195918558
1772789158788980000,0.12797998046875,0.04476502439975738,0.15401304236501454,0.19493355669844895
1772789158809013000,0.148012939453125,0.15815993291139602,0.018585165743529794,0.1876686802620068
1772789158829046000,0.1680458984375,0.011916647765040396,-0.04081000316366553,0.0729777771230787
1772789158849078800,0.188078857421875,-0.42471886574327944,0.12901874023154378,0.0005185074487701058
1772789158869112000,0.208112060546875,-0.4468874429315328,0.36702480166554446,-0.015185549900494515
1772789158889144800,0.228144775390625,-0.029414310532808303,0.00802607006728649,0.1423101469485089
1772789158909178000,0.24817822265625,0.6303425606191158,-0.44730902934446926,0.16457878697775302
1772789158929211000,0.2682109375,0.47356502197682854,-0.5462095485575497,0.2967441546719521
1772789158949244000,0.288243896484375,0.37781390670537945,-0.33508082652464505,0.09909237025706097
1772789158969277000,0.30827685546875,0.06725801123678683,-0.28682284544259307,0.2360562425404787
1772789158989310000,0.32831005859375,0.4154045094311237,-0.981206647209078,0.9118678111102432
1772789159009343000,0.348343017578125,0.1121983922034502,-0.8610854991823435,0.5977165945634245
1772789159029376000,0.3683759765625,0.26073592576682564,-0.6262510535217821,0.1312988779248204
1772789159049409000,0.388408935546875,-0.26316695230603215,-0.18719832280389964,0.17626188171524554
1772789159069442000,0.408442138671875,-0.2520277186542749,-0.008362024023383855,-0.163766411148943
1772789159089474800,0.428474853515625,0.5794716205596924,0.2020885795522481,-0.40210396955963223
1772789159109508000,0.448508056640625,0.11082768837213515,-0.5914565112553537,-0.4360732399830594
1772789159129540900,0.468540771484375,0.5038379951655865,-0.3667586980752647,-0.44655265801921484
1772789159149574100,0.48857421875,0.7085539275467395,-0.14168518345057962,-0.5488124610649422
1772789159169607000,0.50860693359375,0.7308090139746666,0.029518939951062202,-0.11052242181524634
1772789159189640000,0.528639892578125,0.25917525232136246,0.4040232106518,0.23892186110466718
1772789159209673000,0.5486728515625,-0.4313718938916921,-0.036352220037207006,-0.3774834326419979
1772789159229706000,0.5687060546875,0.49212651458382606,-0.08705766733661294,-0.16032405214272438
1772789159249739000,0.588739013671875,0.05612228471636772,0.9187884772188961,0.2914772471196949
1772789159269772300,0.608772216796875,-0.7166413724124431,0.860408476703614,0.2935042229026556
1772789159289804300,0.62880419921875,-1.848317836421728,1.3232158116921782,0.3242278624683618
1772789159309837300,0.64883740234375,-2.973138443186879,1.417004540849477,0.40673546528518195
1772789159329870300,0.668870361328125,-2.0007646523833276,0.4474221343301236,1.0833087389424443
1772789159349903400,0.6889033203125,-0.7817033349096775,0.6189275787658989,1.6456148512981832
1772789159369936100,0.70893603515625,-0.46627954114377496,0.5746915466763078,1.0898936702907085
1772789159389969400,0.728969482421875,-0.008241174122691155,-0.08947583439424633,0.08591755739077925
1772789159410002200,0.749002197265625,0.46194472680985926,-0.07144450314119458,-0.7527293154902756
1772789159430035500,0.769035400390625,0.763387926018238,-0.385642116113007,-0.7870955493420362
1772789159450068200,0.789068115234375,0.6683966892033815,-0.47597968190312384,0.1612543917953968
1772789159470101000,0.80910107421875,0.708487876573205,-0.20748568935543296,-0.43278176068961616
1772789159490134300,0.82913427734375,0.6631003363609314,-0.15385376015007496,-0.7739750787451862
1772789159510167000,0.8491669921875,0.8817612074643373,-0.20366525428444146,-0.3071538319401443
1772789159530200300,0.869200439453125,-0.16101766043007373,0.3993291345514357,-0.6423989821810275
1772789159550233000,0.889233154296875,0.13334990130364893,0.38930794514417644,-0.09176840231083333
1772789159570266400,0.909266357421875,0.05645020149648189,0.2525293845660984,0.38792094776518643
1772789159590299100,0.929299072265625,-0.26752456299364563,0.21769012637510896,0.49945875716805455
1772789159610332200,0.949332275390625,0.5903226849198341,0.27213600231185553,0.7682061399549245
1772789159630365200,0.969365234375,0.6948632558465003,0.26921368512436744,0.17396321285143493
1772789159650398200,0.989398193359375,0.6649217065691948,0.19678879264369606,-0.3492120815992355
1772789159670431200,1.00943115234375,0.45472938860356804,0.03492825164869427,-0.44561376973390576
1772789159690464300,1.02946435546875,-0.33289924470186233,0.08423734921887517,-0.3274687440857291
1772789159710497000,1.0494970703125,-0.6642495063960552,0.33940658076927066,-0.36740050311014055
1772789159730530300,1.0695302734375,-0.6597200462728738,0.352057241897285,-0.1907880909241736
1772789159750563000,1.08956298828125,-0.5261310755163431,0.35038434024900195,-0.18678908441588282
1772789159770596400,1.109596435546875,-0.1983370449990034,0.3470208551652729,-0.4163467587172985
1772789159790629000,1.129629150390625,-0.21494564997255802,0.25561200688183305,-0.6498867806531489
1772789159810662100,1.149662109375,-0.3603799568235874,0.10414017343223095,-0.6896876067742705
1772789159830695200,1.169695068359375,-0.01469546482861042,0.03844035142287612,-0.48952466152235863
1772789159850727400,1.1897275390625,0.2887409540235996,-0.032606676833331585,-0.20805793628543615
1772789159870760200,1.20976025390625,0.1727273874461651,0.05719210590496659,-0.05850245785117149
1772789159890793200,1.229793212890625,-0.09545476267337799,-0.05326850272044539,-0.33836686245799064
1772789159910826200,1.249826171875,0.2625561269313097,-0.04255523939579725,-0.44514585996121164
1772789159930859300,1.269859375,0.5206751481980085,-0.18443185376524923,-0.42063320386484265
1772789159950892300,1.289892333984375,0.2857452793389559,-0.38744931166544555,-0.29788799094483254
1772789159970925300,1.30992529296875,0.5151251128554344,-0.5720188203357159,0.09460705980286002
1772789159990958300,1.329958251953125,0.36981647821068764,-0.6711601625673472,0.46853769533410666
1772789160010991400,1.349991455078125,0.20142507414221764,-0.566728093516454,0.5891117016948759
1772789160031024000,1.370024169921875,0.48867199021577834,-0.39868418771140274,0.8756075071401893
1772789160051057400,1.390057373046875,0.6278361307561398,0.2756225292533636,0.7090529631100595
1772789160071090200,1.410090087890625,0.5716010333150625,0.5307119735658169,0.6074040219716728
1772789160091123500,1.43012353515625,-0.024155951613187787,0.3307355638619512,0.1791834317177534
1772789160111156200,1.45015625,-0.39691666658222674,0.24700506818667053,-0.18702873839065431
1772789160131189200,1.470189208984375,-0.059032034683227534,-0.024926935985684393,-0.1207619301483035
1772789160151222300,1.49022216796875,0.034758594170212744,-0.2633433317862451,0.44386794897988435
1772789160171255300,1.51025537109375,-0.0584060117393732,0.22094284456074237,0.6571630552664399
1772789160191288300,1.530288330078125,-0.6211567991226912,-0.06601414865553379,0.00509469279050827
1772789160211321300,1.5503212890625,-0.9519435817152261,-0.3797041043661535,0.32107056748121976
1772789160231354000,1.57035400390625,-0.41301556846797466,-0.5836470796134322,0.5857490933939814
1772789160251387100,1.59038720703125,-0.0818815798729658,-0.6201021024379879,0.5726775765053927
1772789160271420000,1.610419921875,0.45436347790062426,-0.3941092079460621,0.2479121000289917
1772789160291453200,1.630453125,0.5236760835796594,0.040379064400494095,0.04654387064054608
1772789160311486000,1.65048583984375,-0.14263152438998222,0.28956907541081306,-0.04482026171833276
1772789160331518200,1.670518310546875,-0.975498644825816,0.26699527842253445,0.3139608816064894
1772789160351551000,1.690551025390625,-0.821132258978486,0.008738529185578226,0.41357437139451503
1772789160371584300,1.710584228515625,-0.08527472944259643,-0.04017572384811938,0.5272869675531983
1772789160391617000,1.730616943359375,0.750250796547532,0.04774827799424529,0.5792528632424772
1772789160411650300,1.750650390625,0.32144320018589495,0.018412366459891197,-0.04058730032369494
1772789160431683000,1.77068310546875,-0.2521715110391378,0.14661832900382576,-0.6073331486925483
1772789160451716000,1.790716064453125,-0.21514438741505146,0.22226240272670983,-0.3290418386213481
1772789160471749000,1.8107490234375,-0.19256021516323088,0.2129521380677819,-0.005092208572477102
1772789160491782100,1.8307822265625,0.30896131975352764,0.2342457590524107,-0.05089841258823871
1772789160511815200,1.850815185546875,0.30061493169069287,0.2898109944079071,-0.3454408924974501
1772789160531848200,1.87084814453125,0.005436638095974922,0.18714666568189858,-0.6656183105312288
1772789160551881000,1.890880859375,0.42063130416870115,0.08866502946801483,-0.29134251482412216
1772789160571914200,1.910914306640625,0.3638251288414001,-0.05019603647254407,-0.14621785844415425
1772789160591947000,1.930947021484375,0.22056933507323265,-0.026120968075841664,-0.33315073524489996
1772789160611980300,1.950980224609375,0.041491117295622826,0.12652809245958924,-0.28754239188879727
1772789160632013000,1.971012939453125,-0.341907896065712,0.2687778509903699,0.06821238935217261
1772789160652046000,1.991046142578125,-0.6188549519211054,0.23302798076048492,0.09044847881868481
1772789160672079000,2.0110791015625,-0.3238625362873077,0.16417700124382972,0.2138371042087674
1772789160692112100,2.031112060546875,0.03180968123674392,0.027603607849031684,0.34715134967714545
1772789160712145200,2.051145263671875,-0.010839958444237708,-0.05539945033453405,0.32264278523400425
1772789160732178200,2.07117822265625,-0.19130700023174285,0.03057626698426902,0.47162703965157265
1772789160752211200,2.091211181640625,-0.38022389045655725,0.1289811847001314,0.49450493415296076
1772789160772244200,2.111244140625,-0.41302082916498184,0.294485854351148,0.32649156961664555
1772789160792277000,2.131277099609375,-0.25732231793105603,0.36382578642852603,0.05357172345072031
1772789160812310300,2.151310302734375,-0.13968611858785152,0.011458601799234747,-0.6510790591776371
1772789160832343000,2.171343017578125,0.5072457577824593,-0.2075438492834568,-0.3505646652519703
1772789160852375000,2.191375,1.0010171169638633,-0.3047837418079376,0.0788403124809265
1772789160872408000,2.211407958984375,0.6330722778439521,-0.2975451688565314,0.12448182745426893
1772789160892441000,2.231441162109375,0.1300064360946417,-0.2713801424432546,0.011546353147923946
1772789160912474000,2.25147412109375,-0.06557108106315136,-0.18143866329863667,0.2586331082686782
1772789160932507100,2.271507080078125,0.04427461053431034,-0.07289623631946743,0.43506753353923555
1772789160952540200,2.2915400390625,0.03214052062630653,0.05063070156276226,0.4325767396368086
1772789160972573000,2.311572998046875,-0.0012070377022027968,0.14551372876279056,0.3656752867527306
1772789160992606200,2.331606201171875,0.21546704349815846,0.0963938701543957,0.32312209318354723
1772789161012639000,2.351638916015625,0.050070145070552824,-0.18042722123377025,0.4471450709544122
1772789161032672300,2.37167236328125,-0.1283797116756439,-0.13372852535769342,0.4088704314872622
1772789161052705000,2.391705078125,-0.2997673749506473,-0.09821721312403678,0.18464432747215032
1772789161072738000,2.411738037109375,-0.07760463320612906,-0.04728087967820465,0.08780804731249808
1772789161092771000,2.43177099609375,0.43203415719270705,0.06969707495197654,-0.1593438819989562
1772789161112804000,2.45180419921875,0.26902327711880203,0.1817310703739524,-0.418934437122941
1772789161132837000,2.471837158203125,-0.2237041259676218,0.20866956537775694,-0.5466156451404094
1772789161152870100,2.4918701171875,-0.3664841189175844,0.1783490267202258,-0.5443406859457492
1772789161172903200,2.511903076171875,-0.02122048268318176,0.2453366965830326,-0.35237449115291236
1772789161192936200,2.531936279296875,0.09168693457245826,0.33868096990846097,-0.20653584128469227
1772789161212969000,2.551968994140625,-0.04964636670053005,0.256402864998579,-0.1485479088269174
1772789161233002200,2.572002197265625,-0.02951251021027565,0.16125073853358626,0.030882044997811317
1772789161253035000,2.592034912109375,0.08671031520366668,0.043576472202315926,0.12280687997937202
1772789161273068500,2.612068603515625,0.14223814115822314,0.020558730838820337,0.11300254819318652
1772789161293101600,2.6321015625,0.003231821528077125,-0.05906235675625503,0.039677930393815036
1772789161313134300,2.65213427734375,0.12699790192842483,-0.2412275076985359,-0.04232157677039504
1772789161333167600,2.672167724609375,0.4055483013272285,-0.26440694242976603,0.021769494868069887
1772789161353200400,2.692200439453125,0.30411914041936394,-0.26747597461156547,0.04838073067888617
1772789161373232600,2.712232666015625,-0.06026888300180435,-0.18668087480105458,0.12391235700324177
1772789161393265400,2.732265380859375,-0.3720703946173191,-0.08955350274033844,0.10513619873225688
1772789161413298400,2.75229833984375,-0.3519949903160333,0.08104396000504493,-0.04014072559997439
1772789161433331500,2.77233154296875,-0.25200492230057714,0.30440606760196387,-0.09237228648811578
1772789161453364500,2.792364501953125,-0.13096914364695547,0.29957148705236614,-0.190308929105103
1772789161473397500,2.8123974609375,-0.10025310286581515,0.30529782880991696,-0.1846943040937185
1772789161493430300,2.83243017578125,-0.0801788676083088,0.22985125042051074,-0.21370631743595003
1772789161513463600,2.852463623046875,-0.07416939806044101,0.22110219984091817,-0.11900712237022816
1772789161533496300,2.872496337890625,-0.07698211739361285,0.16873437228724358,-0.08943141073063016
1772789161553529600,2.892529541015625,0.018635142365097997,0.12924838426895438,0.06919613969251513
1772789161573562400,2.912562255859375,0.23695056103169918,0.18261062968745825,0.1379611214261502
1772789161593595400,2.932595458984375,0.26602584886848923,0.24508739799708126,0.07023103569820523
1772789161613628400,2.95262841796875,0.3324772198975086,0.18283070217892528,0.08269552660435438
1772789161633661400,2.972661376953125,0.11505495067834853,0.2092734495550394,0.04275076196789741
1772789161653694500,2.992694580078125,-0.08224222987890244,0.386758406791836,-0.08289864796102046
1772789161673727500,3.0127275390625,0.42708734844028945,0.35427214146777986,0.04187865530848503
1772789161693760500,3.032760498046875,0.6813415109723806,0.046708705813437695,0.13909589760974048
1772789161713793500,3.05279345703125,0.36497488339841366,-0.24112419345453381,0.33355449374020096
1772789161733826300,3.072826416015625,-0.051935354420542715,-0.32325857904478905,0.5107428061179816
1772789161753859600,3.092859619140625,-0.4576601813584566,-0.5051515619821846,0.5852154249086976
1772789161773892400,3.112892333984375,-0.6241910522520542,-0.4863780340597033,0.40680896891281004
1772789161793925600,3.132925537109375,-0.3982119670897722,-0.34887481246888635,0.2054093214727938
1772789161813958400,3.15295849609375,-0.4159796789705753,-0.2014053465284407,-0.014685820217430591
1772789161833991400,3.172991455078125,-0.438166376337409,-0.17398031011670828,0.007415975344926118
1772789161854024400,3.1930244140625,-0.6130921506106853,-0.07224369069486856,0.14342340542003512
1772789161874057500,3.213057373046875,-0.6047457625478506,-0.022902882812172173,-0.06420753762498498
1772789161894089500,3.23308935546875,-0.5039928934663533,-0.02964768089726567,-0.1852665510237217
1772789161914122500,3.25312255859375,-0.1775660596489906,0.011216098280251026,-0.3046742900840938
1772789161934155500,3.273155517578125,-0.14962357523441314,0.08303849482312799,-0.4284818715386092
1772789161954188500,3.2931884765625,0.06329729091227054,0.20213629115149379,-0.30344825542047615
1772789161974221600,3.3132216796875,0.10955869134962558,0.11053761938437819,-0.17989983635880052
1772789161994254600,3.333254638671875,0.09055062401890754,0.15876842019855975,-0.1775982083529234
1772789162014287400,3.353287353515625,0.06186696584820747,0.09648600541725755,-0.2501332832098007
1772789162034320600,3.373320556640625,0.14963000497519968,0.079740183930099,-0.22209574092291295
1772789162054353400,3.393353515625,0.7867500969052315,-0.06689677670896053,0.18563699177131054
1772789162074386700,3.41338671875,0.7903717945337295,-0.1115476732097566,0.42830330010131
1772789162094419500,3.43341943359375,0.3148877871930599,-0.1140460658967495,0.4187602495998144
1772789162114452500,3.453452392578125,-0.07157061373889446,-0.10218334027603268,0.21770050163865087
1772789162134485500,3.473485595703125,0.0056862289428710935,-0.07202157237678766,0.036279593192413445
1772789162154518500,3.4935185546875,0.13553250603973865,0.0050276189036667345,-0.0827652308396995
1772789162174551600,3.513551513671875,0.18053133919537068,0.10173165098577737,-0.12570070172473788
1772789162194584300,3.533584228515625,0.18943010044395922,0.07817541883140802,-0.04759432954154908
1772789162214617600,3.55361767578125,-0.029981881287693975,0.10082958757951856,-0.03433116253837943
1772789162234650400,3.573650390625,-0.1725216357409954,0.19402225053980945,-0.0802545631930232
1772789162254683400,3.593683349609375,-0.4013461734622717,0.13007833228707313,-0.0778532742049545
1772789162274717000,3.613717041015625,-0.45133857712149617,0.07618000723049044,0.09310790728628635
1772789162294750000,3.63375,-0.43658290653824805,0.03132350515499711,0.2009111332707107
1772789162314783000,3.653782958984375,-0.2952940289288759,0.09515651037916541,0.4647474362056702
1772789162334816000,3.67381591796875,-0.20625497851669788,0.12399652815535664,0.7422619166854768
1772789162354848800,3.693848876953125,-0.16872048989236355,0.025939620159566402,0.826462148764357
1772789162374882000,3.713882080078125,-0.324947408914566,-0.010548720412701367,0.5805806777801364
1772789162394913800,3.733913818359375,-0.2999474076926708,-0.008853168541193009,0.306613076126948
1772789162414946800,3.75394677734375,-0.061141574183106416,-0.069940528319031,0.14184512325264512
1772789162434979800,3.773979736328125,0.015880290699005126,-0.027019962742179632,0.03472264607399702
1772789162455012900,3.794012939453125,0.0316670578956604,0.0013686580047011375,-0.030404344483464955
1772789162475046000,3.8140458984375,0.05485913291275501,0.048617900435626506,-0.0398349475864321
1772789162495079000,3.834078857421875,0.0024140754044055935,0.06988806747943163,0.014675371888652443
1772789162515112000,3.85411181640625,-0.0780740042835474,0.08819953084811567,-0.08235336210317909
1772789162535144700,3.874144775390625,-0.10799509529471396,0.16005597579106687,-0.13282390466816724
1772789162555178000,3.894177978515625,-0.19479308878183363,0.24008067575097083,-0.13011712992750107
1772789162575210800,3.914210693359375,-0.11256371838450431,0.24158202022463082,-0.10988850782588123
1772789162595244000,3.934244140625,0.16916005035340784,0.13179258885905146,-0.05130940454192459
1772789162615276800,3.95427685546875,0.25893793643414975,0.062295420393347734,-0.048672041775658724
1772789162635309800,3.974309814453125,0.32058103039860725,-0.06713453098759055,-0.15352606256566942
1772789162655342800,3.9943427734375,0.3856593595087528,-0.11676920725032687,-0.2018738408230245
1772789162675375900,4.0143759765625,0.5053986686110497,-0.1544758375711739,-0.1671748678855598
1772789162695409000,4.034408935546875,0.5077782572239637,-0.0948472982995212,-0.07588862306848168
1772789162715442000,4.05444189453125,0.20163433297872543,-0.03101736181527376,-0.28253128572851416
1772789162735475000,4.074474853515625,0.06334931336045264,-0.0596947363756597,-0.26002704684510825
1772789162755508000,4.094508056640625,0.08029343389868736,-0.023271423863619564,-0.1513813786871731
1772789162775540700,4.114540771484375,0.0201034613519907,-0.04989171976372599,-0.11350304506123066
1772789162795574000,4.134573974609375,-0.22730361176431177,-0.0033668460845947264,-0.06653261957168578
1772789162815606800,4.154606689453125,-0.3514525540024042,0.012319383347034453,-0.03374620225727558
1772789162835640000,4.17464013671875,-0.4869722005605697,0.023526129277050493,-0.06822232622429727
1772789162855672800,4.1946728515625,-0.3869716111510992,0.10828165715113282,0.03912994112223386
1772789162875705900,4.214705810546875,-0.2187795290470123,0.18632278207838535,0.09465104507505893
1772789162895739000,4.23473876953125,-0.3117652712583542,0.2559796711504459,0.1841468262787908
1772789162915772000,4.25477197265625,-0.3612146540820598,0.12516367223858832,0.12900631914138794
1772789162935805000,4.274804931640625,-0.3435387121379375,0.1394227914765477,0.050979295804724094
1772789162955837000,4.2948369140625,-0.09446692067980765,0.029698534301668404,0.025530527902022003
1772789162975870000,4.314869873046875,0.2536526895076036,0.008841624233871697,0.15228409968055784
1772789162995903000,4.334903076171875,0.29328794980347156,-0.0381242712110281,0.07163797988668083
1772789163015936000,4.35493603515625,0.3531459139168262,-0.07537249023988843,0.005893003561347723
1772789163035969000,4.374968994140625,0.29080490081608296,-0.05143778016194701,-0.08065941766686736
1772789163056001800,4.395001708984375,0.23405776219964025,-0.05599281311780214,-0.11918430556803941
1772789163076034800,4.415034912109375,0.23866028755903243,-0.08426379883438348,-0.14121668915599583
1772789163096067800,4.43506787109375,0.12373626978397369,-0.0164303257972002,-0.2068599586725235
1772789163116100900,4.455100830078125,-0.01092529864013195,0.01781666558906436,-0.26520547239631415
1772789163136134000,4.4751337890625,0.2157698258370161,-0.02254310958907008,-0.19391674433872103
1772789163156167000,4.4951669921875,0.4922375737428665,-0.09174246415197848,0.06517419070005416
1772789163176200000,4.515199951171875,0.47108080394566054,-0.20088672948181627,0.28788382573761045
1772789163196232700,4.535232666015625,0.04209025223255157,-0.16818828271180392,0.1875816230330616
1772789163216266000,4.555265869140625,-0.3288958542793989,-0.05096840908452868,0.044518136966601014
1772789163236298800,4.575298828125,-0.3313303879499435,-0.05227861490026116,0.08950308772735298
1772789163256332000,4.59533203125,-0.2799012294858694,0.01908624713346362,0.13206256490685045
1772789163276364800,4.61536474609375,-0.1823819354981184,0.05204217579588294,0.250446002420783
1772789163296397600,4.6353974609375,-0.3366115432232618,0.08424662850387393,0.22601189145334064
1772789163316430800,4.655430908203125,-0.43789808079004283,0.12812756354548036,0.043501799530908464
1772789163336463600,4.675463623046875,-0.3628647593766451,0.09961582787558436,-0.04185805091187358
1772789163356497000,4.695496826171875,-0.2374362987220287,0.00423537254743278,0.013753653933852911
1772789163376529700,4.71552978515625,-0.19733575900197028,-0.021832477101683616,0.014146452643722295
1772789163396562700,4.735562744140625,-0.23380583326518534,-0.09400302949510514,0.04238032122030854
1772789163416595700,4.755595703125,-0.15805705705881118,-0.05631517693996429,0.0924837840385735
1772789163436628700,4.775628662109375,-0.09565759176909923,0.0171749336194247,0.13162263911962507
1772789163456661800,4.795661865234375,-0.05667874955534934,0.13821575377434492,0.2200783366858959
1772789163476694800,4.81569482421875,-0.04870061028301716,0.21656192606277763,0.22931875097900628
1772789163496727800,4.835727783203125,-0.15367898810505867,0.2960992078319192,0.12972396589145063
1772789163516760800,4.8557607421875,-0.001979191118478775,0.306513634340465,0.08083952347412705
1772789163536793600,4.875793701171875,0.06645020198523997,0.3174700587712228,0.009666092359274625
1772789163556827000,4.895826904296875,0.15321429320275784,0.24975275945961473,-0.09040186319798231
1772789163576859000,4.91585888671875,0.20129823289215565,0.14814999555051325,-0.031353973358497024
1772789163596891600,4.9358916015625,0.3197966020226478,0.04213526041805744,-0.053127559879794714
1772789163616924700,4.955924560546875,0.33960429529845715,-0.017872925820946694,0.01652845240943134
1772789163636957700,4.975957763671875,0.1793658025473356,-0.04620557859688997,-0.05243570515811443
1772789163656990700,4.99599072265625,0.0361807359278202,-0.06989230526313185,0.0059596390567719934
1772789163677023700,5.016023681640625,0.05141396089494228,-0.1413144504420459,0.2599605574801564
1772789163697056800,5.036056884765625,-0.17599077315628528,-0.10924743344336747,0.3810052500925958
1772789163717089500,5.056089599609375,-0.19559505281448364,-0.11136384107545018,0.469167882996425
1772789163737122800,5.076122802734375,-0.2233686104029417,-0.15451602345108986,0.454151296454668
1772789163757155600,5.096155517578125,-0.24024726448953151,-0.04282002781182527,0.30313159068673845
1772789163777188900,5.11618896484375,-0.23390461746454239,0.051359161967784166,0.09000804157480596
1772789163797221600,5.1362216796875,-0.12561609218120573,0.07193374796286225,-0.09626001464165747
1772789163817254700,5.156254638671875,-0.06496902351677418,0.15495558391213415,-0.15656974111050367
1772789163837287700,5.17628759765625,0.14637714065909385,0.15304156698435545,-0.2597807439338416
1772789163857320700,5.19632080078125,0.28027356992959973,0.10773483692333101,-0.2262572445165366
1772789163877353700,5.216353759765625,0.2998831102848053,0.05178688586056232,-0.24514402355514464
1772789163897386800,5.23638671875,0.24592355656027792,0.03346577788069844,-0.18045768943727014
1772789163917419800,5.256419677734375,0.09898001419007778,-0.043445320103317496,-0.14643296249955892
1772789163937452800,5.276452880859375,0.22105331919789312,-0.14117621101513503,0.044182767532393336
1772789163957485600,5.296485595703125,0.3042740387201309,-0.18908318670243024,0.24414748679846524
1772789163977518800,5.316518798828125,0.33580431849360465,-0.2277230062201619,0.3342986631710082
1772789163997551600,5.336551513671875,0.19093290622234343,-0.17366203794777393,0.37382067235074934
1772789164017585000,5.3565849609375,-0.07689151650071144,-0.09890037308260798,0.2592961022220552
1772789164037617700,5.37661767578125,-0.2373983047991991,-0.06974325218126178,0.08084712225869298
1772789164057650700,5.396650634765625,-0.14762860202491282,-0.025570640716701745,0.012301555429399013
1772789164077683700,5.41668359375,-0.029769699841737746,0.044143823761492965,-0.04565525123775005
1772789164097716700,5.436716796875,-0.05305412931740284,0.08224763670638204,-0.14810462203882635
1772789164117749800,5.456749755859375,-0.13222002049088477,0.07409457925856112,-0.2605094235345721
1772789164137782800,5.47678271484375,-0.09843348622322082,0.05505699357241392,-0.2871113069951534
1772789164157814800,5.496814697265625,-0.013720482316613197,0.018578005350381135,-0.22517763258628545
1772789164177847600,5.51684765625,0.020472294664382933,-0.009159311880916357,-0.17342179945111275
1772789164197880800,5.536880859375,0.003796469673514366,0.025494214479625223,-0.1667524046897888
1772789164217913600,5.55691357421875,0.0035690906584262844,0.01916091980487108,-0.1431134626880288
1772789164237946600,5.576946533203125,0.08095920433104038,0.06752206900045275,0.03721636258587241
1772789164257979600,5.596979736328125,0.08242810783982277,0.025088848549127577,0.10701485208570957
1772789164278012200,5.61701220703125,0.029883097088336943,-0.028115210632979868,0.11489661831147968
1772789164298045200,5.637045166015625,0.16000877564847468,-0.028140345074236392,0.14618125276081262
1772789164318078000,5.657077880859375,0.10601005895733832,-0.09430120872408151,0.12694704852402208
1772789164338111200,5.677111328125,0.14353928688466547,-0.1149804241374135,0.14547186238244175
1772789164358144000,5.69714404296875,0.12471066777408123,-0.10613982281684875,0.15885814430862663
1772789164378177300,5.71717724609375,0.023591887989640233,-0.03734006203077733,0.0622708704739809
1772789164398210000,5.7372099609375,-0.15745324594676494,0.07669986638613045,-0.013312632168084383
1772789164418243000,5.7572431640625,-0.13963760327100752,0.06156316059604287,-0.023017741363495586
1772789164438276000,5.777276123046875,-0.2087947261273861,0.11303462383188306,-0.07090572008937597
1772789164458309000,5.79730908203125,-0.3395078491866588,0.159631466768682,-0.16309928900972007
1772789164478342100,5.817342041015625,-0.18635142365097998,0.1438615776415914,-0.06784677091017365
1772789164498375200,5.837375244140625,-0.10546470003426074,0.096067853070423,-0.0008675766147673129
1772789164518408000,5.857407958984375,-0.1460568226635456,0.07226539107002318,-0.06495820986181497
1772789164538441200,5.877441162109375,0.0063280339777469635,-0.012913549847900867,-0.0161015322342515
1772789164558474000,5.897473876953125,0.11237842494547366,-0.03264057910293341,0.023052082024514673
1772789164578507300,5.91750732421875,-0.039433600243926045,-0.061768839235976335,-0.1039711004756391
1772789164598540000,5.9375400390625,-0.00020867431461811065,-0.01976195443794131,-0.1353344992496073
1772789164618573300,5.9575732421875,0.10515957960784435,0.001169774431735277,0.13706219982504844
1772789164638606000,5.977606201171875,0.05727554640471935,0.013489742300659417,0.10617167925983667
1772789164658639000,5.99763916015625,-0.14850772294700146,0.12669343908913433,0.034744127253443
1772789164678672100,6.017672119140625,-0.20068623847365377,0.0884143426425755,-0.03289608823396265
1772789164698705200,6.037705078125,-0.1763952623039484,0.11364990618601441,-0.07450228327661752
1772789164718738200,6.05773828125,-0.08760930987000465,0.10882781979180872,-0.029104660061746834
1772789164738771200,6.077771240234375,0.2140834801852703,0.06092055184356868,0.1817312165044248
1772789164758804000,6.097803955078125,0.23994740476012227,-0.0002604775670915842,0.35844007480219003
1772789164778836000,6.1178359375,0.12784253605902193,-0.060240387559682126,0.1455605635792017
1772789164798869200,6.137869140625,-0.0691027623206377,0.004603475207462906,-0.04945683547779917
1772789164818902000,6.157902099609375,-0.12804653419852255,0.049955213453993196,-0.13607786496281624
1772789164838935000,6.17793505859375,-0.22881576989293098,0.13238536712042986,-0.10576762850359081
1772789164858968000,6.197968017578125,-0.12603519437611102,0.22738244915418326,-0.14329407995194196
1772789164879001000,6.2180009765625,0.4386491914182901,0.10672653666362165,0.1773255288913846
1772789164899034000,6.2380341796875,0.23585282892286777,0.051971083321049806,0.3367228946432471
1772789164919067100,6.258067138671875,-0.2642150000542402,0.021482494620233772,0.21392850881926714
1772789164939100000,6.278099853515625,-0.24185703777372836,0.005014467161148786,0.12383395800478755
1772789164959133200,6.29813330078125,-0.08297872745990753,-0.023674743967503308,0.14221907113157212
1772789164979166000,6.318166015625,0.009972527959942816,-0.07341229608282446,0.18993446976952252
1772789164999199200,6.33819921875,0.014471008422970772,-0.05486088647842407,0.16859123748950658
1772789165019232000,6.35823193359375,-0.09481295763850212,-0.04438676567189395,0.013029139051586388
1772789165039265300,6.378265380859375,-0.1430856978982687,0.021019772479310632,-0.1037253820862621
1772789165059298000,6.398298095703125,0.012732055801153183,0.012318579629436135,-0.16318024529144168
1772789165079331000,6.4183310546875,0.22848960667848586,-0.033145898276567456,-0.0066775050025433295
1772789165099364000,6.438364013671875,0.172059863448143,-0.0025421587634831665,-0.05660962984189391
1772789165119397000,6.458397216796875,0.08364858954548836,0.003170446729660034,-0.07247041212283074
1772789165139430100,6.47843017578125,0.23181436718702314,-0.05297134640477597,0.09492160564474761
1772789165159463200,6.498463134765625,0.06407821215689181,-0.09285159443765878,0.13174443886838852
1772789165179496000,6.518495849609375,-0.09087620271146298,-0.03393551428429782,-0.008124562005698681
1772789165199529200,6.538529296875,-0.09908581265211104,0.05299238919280469,-0.06337693201974035
1772789165219562000,6.55856201171875,-0.053358665221929544,0.13538352602310477,-0.022769831017032265
1772789165239595300,6.57859521484375,0.12760638921558856,0.0782731801174581,0.07344860950522124
1772789165259628000,6.5986279296875,-0.017980477848649024,0.05601648625433445,0.1874808660723269
1772789165279661600,6.61866162109375,-0.26374270636737346,0.04676218956634402,0.0434642439994961
1772789165299694800,6.63869482421875,-0.35522272019088263,0.01059672427289188,0.008661299230903386
1772789165319727600,6.6587275390625,-0.22905600838959217,0.03772277773804963,0.05866875432878732
1772789165339761000,6.678760986328125,-0.01614332554936409,-0.015172873082011937,0.18132190505117177
1772789165359793700,6.698793701171875,0.06337561684548855,-0.038482217803224916,0.13116013617441058
1772789165379826700,6.71882666015625,0.05883797341585159,-0.005216638669744133,0.12267945420742034
1772789165399859700,6.738859619140625,-0.09344517641663551,-0.019381284557282923,-0.04839198272526264
1772789165419892700,6.758892822265625,-0.06504267327487469,0.031023207034170625,-0.12186653038933873
1772789165439924700,6.7789248046875,0.14281564878523348,0.03470956739671528,0.001666910298913717
1772789165459957800,6.798957763671875,0.06589373714625835,0.016095467819646,-0.06860124253928661
1772789165479990800,6.81899072265625,0.037167408877611156,0.009300108591094612,-0.13628946188688276
1772789165500023800,6.83902392578125,0.10110767386853695,0.03584419744983315,-0.09800006324201822
1772789165520056800,6.859056884765625,0.0520581040173769,0.06179528885148465,0.07452113410755991
1772789165540089900,6.87908984375,0.11163491310179233,-0.000520662873238325,0.25534678007438777
1772789165560122600,6.89912255859375,0.06428571742773055,-0.0547875289812684,0.33784444601908326
1772789165580156000,6.919156005859375,0.030581016224622726,-0.051933527789637446,0.23061858153119683
1772789165600188700,6.939188720703125,-0.003234744137525558,0.00971256184950471,0.10216711979359387
1772789165620222000,6.959221923828125,-0.02667524095773697,0.06252258021272719,-0.07497998379096388
1772789165640254700,6.979254638671875,-0.00831014770567417,0.09136362090222537,-0.09862067935839294
1772789165660287700,6.999287841796875,0.06127250708639621,0.08954495410770177,-0.04250029433816671
1772789165680320800,7.01932080078125,0.05533142659962177,0.02633395323939621,-0.0825573602426797
1772789165700353500,7.039353515625,-0.0958545756459236,-0.016708485151454806,0.035937428691238164
1772789165720386800,7.05938671875,-0.15478957969546317,-0.035766675234213466,0.19662746460214256
1772789165740419600,7.079419677734375,-0.2547960143238306,-0.037744478113204236,0.2665425662189722
1772789165760452900,7.099452880859375,-0.20806582733094692,-0.06213124280758202,0.1815807021178305
1772789165780485600,7.119485595703125,-0.020364158114790917,-0.043937268338724966,0.0695753482684493
1772789165800518700,7.1395185546875,0.08455226038694381,-0.03592018529549241,0.01715016450434923
1772789165820551700,7.1595517578125,0.06218260766863823,0.012917130044475197,-0.07267170684859156
1772789165840584700,7.179584716796875,0.0321855288118124,-0.025133126082271338,-0.1290614103294909
1772789165860617700,7.19961767578125,-0.0033154081583023068,0.001204480418935418,-0.09689034843444824
1772789165880650800,7.219650634765625,0.0486246224373579,0.0017361761428415774,0.0017839608073234557
1772789165900683500,7.23968359375,-0.07679916204214096,0.03342617652267217,0.017019231601059434
1772789165920716800,7.259716796875,-0.11091127500236034,0.07480426189787685,-0.029131401938199995
1772789165940749600,7.27974951171875,-0.0840904880940914,0.051666547416523094,-0.05747209189012646
1772789165960782800,7.299782958984375,-0.011808511215448379,0.049553354654833674,-0.04909267834052443
1772789165980815600,7.319815673828125,0.0868880098581314,0.033959991138428444,0.02078793648481369
1772789166000849000,7.339848876953125,0.1267553253442049,-0.020701865636557338,0.11811550729274749
1772789166020881700,7.359881591796875,0.012433949637413025,-0.05108158713541925,0.003586334054172039
1772789166040914700,7.379914794921875,-0.024554011020064354,-0.02783580916970968,0.06286591375768184
1772789166060947700,7.39994775390625,-0.07643792751431465,0.005437734074518084,0.04891147655472159
1772789166080980700,7.419980712890625,-0.03572539337575435,0.007175152326375246,0.05192001072093844
1772789166101013800,7.440013671875,0.02804886739850044,-0.023637553762271998,0.00937616950199008
1772789166121046800,7.460046875,0.06483049182891845,-0.006721928666159511,0.02580810273438692
1772789166141079600,7.48007958984375,0.13321779935657976,-0.03541530451327562,0.018279022403806446
1772789166161111800,7.50011181640625,0.07853285396695137,-0.011211787431314587,-0.04585501159355044
1772789166181144800,7.520144775390625,0.05648410376608371,-0.024608444621041416,-0.075749068467319
1772789166201177900,7.540177734375,-0.03010579992830753,-0.0016672025598585606,-0.0906907631419599
1772789166221210600,7.560210693359375,-0.08100888869166374,0.03539185057245195,-0.08082622560113668
1772789166241244000,7.580243896484375,-0.042378421524167056,0.0630235885374248,0.040108138504624365
1772789166261276000,7.60027587890625,-0.14617898773849008,0.07071640806235373,0.02261252156347036
1772789166281309000,7.620308837890625,-0.2551888130337,0.0936739436712116,-0.019507395154982805
1772789166301342000,7.640342041015625,-0.2614811911761761,0.1319543552920222,-0.03023344489596784
1772789166321375000,7.660375,-0.22100480388104915,0.08493380705043672,0.00485145861916244
1772789166341408000,7.680407958984375,0.052992754518985746,-0.0021845044322311878,0.1904552787732333
1772789166361441000,7.70044091796875,0.12161971602141856,-0.042080534556135536,0.25611440344601866
1772789166381474000,7.72047412109375,-0.018717559951543807,-0.03749992876760661,0.1109150743946433
1772789166401506800,7.7405068359375,0.008421206864714622,-0.033205884835496545,-0.04088211855180561
1772789166421540000,7.7605400390625,0.3037649201542139,-0.04417451116070151,0.07752396918535231
1772789166441572900,7.78057275390625,0.4908581020832061,-0.07180792962610721,0.1455323603980243
1772789166461606100,7.800606201171875,0.378650357529521,-0.08762494583055376,0.2161835212044418
1772789166481639000,7.820638916015625,0.054150107860565184,-0.08636223241835832,0.12068484632410108
1772789166501672000,7.840671875,-0.15891571971476076,-0.09855725873336195,0.010101707297563552
1772789166521705000,7.860705078125,-0.3363549381136894,0.026968232554942368,-0.115816874961555
1772789166541738000,7.880738037109375,-0.35043899304568765,0.06993563294820487,-0.17766732806637883
1772789166561771000,7.90077099609375,-0.07793781068325042,0.07331365801393985,-0.05675327609628439
1772789166581804000,7.920803955078125,-0.02348141335248947,0.06875190305635333,-0.04267762366645038
1772789166601836800,7.9408369140625,-0.061954644131660457,0.1738872250057757,-0.05568579299524426
1772789166621870000,7.9608701171875,-0.27165070301294325,0.08757949925363064,-0.12318104705400765
1772789166641902800,7.98090283203125,-0.013306056296825408,0.05135280529223382,0.050802550998330115
1772789166661936000,8.00093603515625,0.0406686949968338,0.023531389974057675,0.10435235487818717
1772789166681969000,8.020968994140626,-0.09021627749800681,0.028449995545297858,-0.0023762276120483875
1772789166702002200,8.041002197265625,-0.13836977529227734,0.08034457956403493,-0.04895575408786535
1772789166722035000,8.061034912109376,0.0016465981632471083,-0.0035338732145726677,-0.035129107983037824
1772789166742068000,8.08106787109375,0.2280120522946119,-0.017970906302705408,0.03218355605043471
1772789166762101000,8.10110107421875,0.22161036855876445,-0.03264708190895617,0.10126900191009044
1772789166782134000,8.121134033203125,-0.031190088033676146,-0.007603533806279301,0.06482150480486452
1772789166802167000,8.1411669921875,-0.051124038037657735,0.026525968680158257,0.09822926888801158
1772789166822200000,8.161199951171875,-0.12809154238402842,0.012393909887969493,0.04734269286803901
1772789166842232800,8.18123291015625,-0.08925240090191364,0.0718172819763422,0.09590710955075919
1772789166862266000,8.20126611328125,0.03316401845514774,0.07033632270358503,0.12964096378311515
1772789166882299000,8.221298828125,0.014467501291632651,0.06734262078031897,0.056350102122873065
1772789166902332200,8.241332275390626,-0.1066121165037155,0.05488565559349954,-0.05968976793959736
1772789166922365000,8.261364990234375,-0.0366992068439722,0.04174063507728278,-0.04962656602151692
1772789166942398000,8.28139794921875,0.04344049779772758,-0.02434358313977718,-0.034417890973761675
1772789166962431000,8.301430908203125,0.10363982269465923,-0.030060499481856823,-0.006814648450911045
1772789166982464000,8.321464111328124,0.08453121759891509,-0.05561879217363894,0.046602980416640634
1772789167002497000,8.3414970703125,0.0791758280456066,-0.01954151662029326,0.03760959968715906
1772789167022530000,8.361530029296874,-0.05899170267283916,0.023835049095749853,-0.005064005391299724
1772789167042563000,8.38156298828125,-0.0851800368964672,0.07134191954955459,-0.028756942602619528
1772789167062596000,8.40159619140625,-0.16183949820697308,0.11092771468050777,-0.05559409612379968
1772789167082630000,8.4216298828125,-0.011271920120716095,0.06537190522924065,0.058669192720204585
1772789167102663200,8.4416630859375,-0.018806991800665855,-0.009427095971629024,0.1303564185760915
1772789167122696000,8.461696044921876,-0.04641746778190136,0.000783332397416234,0.08101436858437955
1772789167142728200,8.481728271484375,-0.10080372248589992,0.004902604284510016,0.033611908353120085
1772789167162761000,8.501760986328126,0.08604863642454147,0.01930909610390663,0.10039777203351259
1772789167182794000,8.5217939453125,0.03942015624046325,-0.008530804719030857,0.12029168228805065
1772789167202827000,8.541826904296874,0.026374212184548378,0.016892244220525026,0.10060922282710671
1772789167222860000,8.561860107421875,-0.11661387055814265,0.05277925789877772,0.004347966076433658
1772789167242893000,8.58189306640625,0.024507833790779112,0.03177950529418885,0.012894625951722263
1772789167262926000,8.601926025390625,-0.006595745003223419,0.00377286960221827,0.027001184976473448
1772789167282959000,8.621958984375,0.042024201259016986,0.027520971066877245,0.013890870447456835
1772789167302992100,8.6419921875,0.07479074482917786,0.047312005468830465,0.14707323316447435
1772789167323025200,8.662025146484375,0.07920446961820125,-0.02442263972535729,0.05988061433658003
1772789167343058200,8.68205810546875,0.07845803516507148,-0.01539418768249452,0.015501301318779586
1772789167363091000,8.702091064453125,0.04329027567207813,-0.06409509022645651,0.034585721821337935
1772789167383124200,8.722124267578126,0.0782832631200552,-0.04645597316138446,0.1683738684117794
1772789167403157000,8.742156982421875,0.06332476344108581,0.00577025396451354,0.12260843479782342
1772789167423190000,8.76218994140625,0.05837386303544044,0.035283860153332354,0.10434548674598336
1772789167443223000,8.78222314453125,-0.03440788103640079,0.09113931062705814,-0.025193989424034953
1772789167463256000,8.802256103515624,-0.011022329273819922,0.0736333184223622,-0.08615494634322822
1772789167483289000,8.8222890625,-0.051173137876391404,0.12597725364379583,-0.14568039056658744
1772789167503322000,8.842322021484375,-0.010457681128382683,0.03768821788132191,-0.03417494906336069
1772789167523355000,8.86235498046875,-0.0432002593010664,0.08448847443573176,0.0056540802389383315
1772789167543388200,8.88238818359375,-0.05411562106907367,-0.0117100923422724,0.015789105284214018
1772789167563421000,8.9024208984375,0.039466333469748496,0.007313464818522334,0.051885158603265875
1772789167583454200,8.9224541015625,0.10384206726849078,-0.04069565606899559,0.17169694841988384
1772789167603487000,8.942487060546876,-0.1122632741332054,-0.018023147946596145,0.058597150397300714
1772789167623520300,8.962520263671875,-0.238138894033432,0.043869682995229954,-0.02861877624094486
1772789167643553000,8.982552978515624,-0.08030395529270172,0.04945734693445265,-0.08475830435305834
1772789167663586000,9.0025859375,-0.03364274188280105,0.08886595886759459,-0.025925737764686343
1772789167683619000,9.022619140625,-0.04476619344353676,0.06965827731154858,-0.03194441353231668
1772789167703652000,9.042652099609375,-0.04221943157017231,0.04980732941590249,-0.03752250592559576
1772789167723685000,9.06268505859375,-0.11272504642605781,0.037193347036466,-0.04748137068636715
1772789167743718100,9.08271826171875,-0.09389934992492198,0.07644333434179425,-0.07836589990220963
1772789167763751000,9.1027509765625,0.06289630889594555,0.03753244279772043,0.11084105931036174
1772789167783784200,9.1227841796875,0.22718729190826414,-0.03545534426271915,0.20081658685505388
1772789167803817000,9.14281689453125,0.15252631093859673,-0.07964797560200094,0.1458339006278664
1772789167823850200,9.162850341796876,0.040136780077219006,-0.06468896446637809,-0.019253639589622614
1772789167843883000,9.182883056640625,-0.05295300703048706,-0.014300985618308186,-0.08536949505396187
1772789167863916000,9.202916015625,-0.08731763344705104,0.05524111796766519,-0.06405395449846983
1772789167883949000,9.222948974609375,-0.04618248998224735,0.06875175692588091,-0.05433708180002868
1772789167903982000,9.242982177734374,0.17516309016048906,0.06301905849277972,0.07081650743596256
1772789167924015000,9.26301513671875,0.07311433604955672,0.04331431413479149,0.0208892779674381
1772789167944048000,9.283048095703125,-0.01216273148059845,0.04689114970825612,-0.022335019796341657
1772789167964081200,9.3030810546875,-0.208723998978734,0.03162599523290992,-0.011694237186014651
1772789167984114200,9.3231142578125,-0.022698154020309447,0.00910363617092371,0.06756298553273081
1772789168004147000,9.34314697265625,0.23063480201363562,-0.0028404110576957463,0.22185192222967742
1772789168024180200,9.36318017578125,0.27417817566394803,-0.021695041392371057,0.17423742668293415
1772789168044213000,9.383212890625,-0.040734161448478697,0.01693440286181867,-0.041380350397527216
1772789168064246300,9.403246337890625,-0.19377251356244085,0.05851984737738967,-0.1921040688935667
1772789168084279000,9.423279052734374,-0.12731880444586277,0.051178398573398586,-0.011748159330338239
1772789168104312000,9.44331201171875,-0.13432020764052868,0.02981003185212612,0.1723643993526697
1772789168124345000,9.463344970703124,-0.15462065286934376,0.03381188790462911,0.23063984351493416
1772789168144378000,9.483378173828125,-0.24828911664783954,0.031225232412293552,0.02847147672474384
1772789168164411100,9.5034111328125,-0.1303852062791586,0.01717339924946427,-0.07182758417464792
1772789168184444200,9.523444091796875,0.042480128332972523,-0.01848608928322792,-0.03780256497599184
1772789168204477200,9.543477294921875,-0.009358779975771904,-0.01968903533220291,-0.06849719764292239
1772789168224510200,9.56351025390625,-0.01984334911108017,-0.014962591332197189,-0.09469115788973867
1772789168244543000,9.58354296875,0.14074468773007393,-0.04948788820318877,0.08734137964881956
1772789168264576000,9.603575927734376,0.1477297243118286,-0.015195084913820028,0.04840155427120626
1772789168284608800,9.62360888671875,0.03886310687959194,0.0185527978438884,0.020443214700371026
1772789168304642000,9.64364208984375,-0.054151861426234245,-0.015087240625172853,-0.041857539455220104
1772789168324674800,9.6636748046875,-0.01956219408214092,-0.003147650375962257,-0.020369784137979147
1772789168344707800,9.683707763671874,0.17211773111522197,-0.048502676558122036,0.08224442183598875
1772789168364740900,9.703740966796875,0.21349662020802496,-0.023856749470904468,0.17417641721069813
1772789168384772900,9.72377294921875,0.023891747719049453,-0.028956337632238864,0.10989778711088001
1772789168404806000,9.743805908203125,-0.12970365375578402,-0.020800138379260896,-0.03531564353108406
1772789168424838700,9.763838623046874,-0.20048867007493973,0.03327222806997597,-0.09873721841014921
1772789168444872000,9.783871826171875,0.008210194462537766,-0.0013593787197023629,0.018079188982769844
1772789168464904700,9.80390478515625,0.09062836543023586,0.027605288349464532,0.18698416859656572
1772789168484938000,9.82393798828125,0.05710545053482055,0.016535320541635156,0.18390322678126395
1772789168504970800,9.843970703125,-0.16197919893860815,0.025097324116528034,0.0003701484866440296
1772789168525004000,9.864004150390626,-0.15377543421685694,0.015523367020115255,-0.12334712433591484
1772789168545036800,9.884036865234375,0.03096680067181587,-0.006570537496730685,-0.06682320001609623
1772789168565069800,9.90406982421875,0.07500000366568566,-0.004354980339109898,0.1112114269927144
1772789168585102800,9.924102783203125,-0.003867196822166443,-0.06455781236737966,0.14320873975604773
1772789168605136000,9.944135986328124,-0.03417524132430553,-0.01385850254781544,0.1652132124237716
1772789168625169000,9.9641689453125,-0.018224807998538015,-0.03489434937909245,0.10428959184028208
1772789168645202000,9.984201904296874,-0.08861877917349338,0.041466348180547355,0.03938325829617679
1772789168665234700,10.004234619140625,-0.10595628294348716,0.06359590853266417,-0.027262393195927142
1772789168685268000,10.02426806640625,0.08176467549502849,0.04835450025908649,0.02931377276778221
1772789168705300700,10.04430078125,0.14013035522401332,0.013638210860639809,0.07367744982503355
1772789168725334000,10.064333984375,-0.09308686449825763,0.06722410896718502,-0.030575097940489647
1772789168745366800,10.08436669921875,-0.25816461397409435,0.016235972268879413,-0.11816153839156031
1772789168765399800,10.10439990234375,-0.1632452733516693,0.027102161132916806,-0.023971096565574408
1772789168785432800,10.124432861328126,0.12449907085001467,-0.00978825743421912,0.1102791145786643
1772789168805465900,10.1444658203125,0.27973639431297775,-0.03607727555334568,0.24645766343697903
1772789168825499000,10.164498779296874,0.05351297900080681,-0.0532408840611577,0.14060396408513187
1772789168845532000,10.184531982421875,-0.15961889954805372,-0.007873363723605871,-0.04797689911834895
1772789168865565000,10.20456494140625,-0.11790741750001907,0.020925006867945194,-0.04375957368426025
1772789168885598000,10.224597900390625,0.06117372288703918,0.01699475474692881,0.08526815357133746
1772789168905630700,10.244630615234374,0.12447276736497878,-0.00429214423596859,0.15671411801725624
1772789168925664000,10.2646640625,0.12267068637907504,-0.03228182879313826,0.13585472373142837
1772789168945696800,10.28469677734375,-0.05534545512497425,-0.018257468159124254,0.017899886893108487
1772789168965730000,10.30472998046875,-0.17904256194233895,-0.001241670624166727,-0.026880335075780748
1772789168985762800,10.3247626953125,-0.2508428927838802,0.04928250182420015,-0.04434044231213629
1772789169005795800,10.3447958984375,-0.1529968510597944,0.06447356815002858,0.05251541933082044
1772789169025828900,10.364828857421875,-0.0039472763210535045,0.05046119021475315,0.07627228862382471
1772789169045862000,10.38486181640625,0.046697453767061234,0.017940730360150335,0.07166355271935462
1772789169065895000,10.40489501953125,-0.06541618276238441,-0.011232757154107093,-0.019734554974362252
1772789169085928000,10.424927978515624,-0.13587269777953623,-0.03523322594463825,-0.08122918037883937
1772789169105961000,10.4449609375,-0.05481120211780071,-0.058560763909667725,-0.09444719306603074
1772789169125994000,10.464993896484375,0.009161796098947525,-0.060833092755824325,-0.1035471759751439
1772789169146026800,10.48502685546875,0.20500994689166543,-0.11376432634592056,0.02710245339386165
1772789169166060000,10.50506005859375,0.36267011358737944,-0.1321182406168431,0.11223792049624025
1772789169186092800,10.5250927734375,0.41318975599110125,-0.1174620848853141,0.23198921229727565
1772789169206126000,10.5451259765625,0.21070435914099214,-0.06934468131773174,0.23585494781471789
1772789169226158800,10.565158935546876,0.11138707582056522,-0.017537337191030383,0.17749248295612632
1772789169246191900,10.58519189453125,-0.12200433142483234,0.03836421744674444,0.02406023615375161
1772789169266225400,10.605225341796874,-0.10295768564939499,0.07029715973697602,0.031975027866289016
1772789169286258400,10.625258544921875,-0.17692367009222507,0.12602518443875013,-0.023106954016909
1772789169306291500,10.64529150390625,-0.20217267763912677,0.13435798236764968,0.03329261327087879
1772789169326324500,10.665324462890625,-0.31692484597861764,0.09900354119613766,-0.11607464911490678
1772789169346357200,10.685357177734375,-0.3042565030634403,0.0859881384089589,-0.2217553299874067
1772789169366390500,10.705390625,0.019075871869921684,0.027340865259617566,-0.09628741410523653
1772789169386423300,10.72542333984375,-0.01970832455456257,0.02041420780159533,-0.010561726024746894
1772789169406456600,10.74545654296875,-0.1891997988194227,0.004137611261382699,-0.030929172075167297
1772789169426489300,10.7654892578125,-0.06614741964638232,-0.026450784552097317,-0.006688245592266321
1772789169446522400,10.7855224609375,0.06117372288703918,0.003432093340530991,0.14214447152540086
1772789169466555400,10.805555419921875,-0.03256079186499119,-0.004491320069879293,0.01275755556859076
1772789169486588400,10.82558837890625,-0.1510240896821022,0.0412594274315983,-0.02499839378669858
1772789169506621400,10.845621337890625,-0.0043932665228843685,-0.013917685389146207,-0.02716477804034948
1772789169526654500,10.865654541015624,0.16828852821588516,-0.023826062071695922,0.09177015587650239
1772789169546687500,10.8856875,0.18763503372073173,-0.04969071729891002,0.0975536346487701
1772789169566720500,10.905720458984375,0.06689969931840896,-0.03970043448656797,0.051956616404280065
1772789169586753300,10.925753173828125,0.017774726143479348,-0.025901041714847087,0.06447393347620964
1772789169606786600,10.94578662109375,0.00864741683602333,-0.010870426647737621,0.08717427945360541
1772789169626819300,10.9658193359375,0.011225158369541167,0.036810192937776445,0.05023534556962549
1772789169646852600,10.9858525390625,0.046373044118285175,0.06056377429515123,0.033927111782133576
1772789169666885400,11.005885498046876,0.06952420260310173,0.08575126091316342,0.027792846810817718
1772789169686918400,11.02591845703125,-0.07217559389472007,0.06818586667142808,-0.05249364589042961
1772789169706951400,11.045951416015624,-0.09130757986605167,0.034210751029103995,-0.08183138405568897
1772789169726984400,11.065984375,-0.06496668542921542,0.01966134360767901,-0.03699373281113803
1772789169747017500,11.086017578125,-0.05446867229044437,-0.03265833395533264,-0.021282807329669595
1772789169767050500,11.106050537109375,0.024375731843709943,-0.015275602804124355,-0.01847191462740302
1772789169787083300,11.126083251953125,0.11863514725267886,-0.04460135827064514,0.20136450306139886
1772789169807116500,11.146116455078126,0.07087094103693961,-0.05012552851960063,0.2910971617609262
1772789169827149300,11.1661494140625,-0.06856558670401573,-0.026166195457056163,0.20717070512212812
1772789169847182600,11.1861826171875,-0.077289575907588,0.032193419857323165,0.09766951611340045
1772789169867215400,11.20621533203125,-0.14315759409070014,0.05545673347972333,-0.008921922928467392
1772789169887248600,11.22624853515625,-0.0923427681326866,0.06887545637078583,-0.030773762317746877
1772789169907281400,11.246281494140625,0.09537702126204967,0.03893522226773202,0.07007474915795028
1772789169927314400,11.266314453125,0.008423544952273368,0.02661613118164241,0.0219997964926064
1772789169947347500,11.286347412109375,-0.15659049163758754,0.04787095452584326,-0.08197145011350512
1772789169967380200,11.306380126953124,0.010139116698503493,0.04496149681992829,0.026626214184239504
1772789169987413500,11.32641357421875,0.09986731841862201,-0.07497735344246029,0.15828092894256113
1772789170007446300,11.3464462890625,0.11756956384778022,-0.12443740379065274,0.1337804747406393
1772789170027479300,11.366479248046875,-0.010054945546388626,-0.06310870953761041,0.11772248938716948
1772789170047512300,11.38651220703125,-0.14753917017579077,-0.015807298528030513,0.008245704167336224
1772789170067545300,11.40654541015625,-0.07091828731000423,0.012515709636732935,0.04965133513659239
1772789170087578400,11.426578369140625,-0.020610826352238654,0.014763561628758906,0.023740794941037893
1772789170107611400,11.446611328125,-0.02498947982788086,0.024329773810133338,-0.03738068630211055
1772789170127644400,11.46664453125,-0.01999064862728119,0.033801585706323384,0.009207388806343078
1772789170147677400,11.486677490234374,-0.10990122117698192,-0.013937486068159342,-0.011448372666165232
1772789170167710200,11.506710205078125,0.025911855369806287,-0.04266666388101876,0.05857530389167368
1772789170187743500,11.526743408203124,0.15384849945306778,-0.041945583064854144,0.08704049700610339
1772789170207776300,11.5467763671875,0.06120002637207508,-0.013154738192632794,0.03957958458587527
1772789170227809500,11.5668095703125,-0.025440146204829213,-0.006780307789891958,0.05171513579860329
1772789170247842300,11.58684228515625,-0.07619067475497722,-0.04310812403820455,-0.03389204046875238
1772789170267875000,11.606875,0.0005026888251304626,-0.013070859301462769,-0.07128887418806552
1772789170287908000,11.626908203125,0.10367957018315792,-0.0021625117961317298,0.01789762187078595
1772789170307940900,11.64694091796875,0.14895137506127357,-0.03605053367689252,0.09777063840031623
1772789170327974100,11.66697412109375,0.003273322582244873,-0.08754033628702163,0.07112564645037055
1772789170348007000,11.6870068359375,0.01888999390900135,-0.10223455900661647,-0.009324147053807973
1772789170368040200,11.707040283203124,0.09909048882722854,-0.0745817782536149,0.06784370217025279
1772789170388073000,11.727072998046875,0.04670855968296528,-0.0836286427360028,0.13128975390344857
1772789170408106000,11.74710595703125,-0.016850597035884856,-0.05457951225377619,0.1384871911268681
1772789170428139000,11.767138916015625,0.0016553659915924071,-0.017837708377093076,0.12034034373536705
1772789170448172000,11.787172119140624,-0.07066986550688743,0.04201652940921485,-0.03728599375598132
1772789170468205000,11.807205078125,-0.14691139366626738,0.08650339445471764,-0.10555946564562618
1772789170488238000,11.827238037109375,-0.0976893898576498,0.08313252978213131,-0.06824249222949147
1772789170508271000,11.84727099609375,-0.00032090251743793486,0.0284225960817188,0.05359064734689891
1772789170528304000,11.86730419921875,0.09836392811834811,-0.031736616000533104,0.15771175075247884
1772789170548337000,11.8873369140625,0.14353344166576862,-0.09291333456225692,0.12993980059921742
1772789170568370200,11.9073701171875,-0.026731939581036566,-0.04435783183835446,0.038705285969376564
1772789170588403000,11.92740283203125,-0.11657821472287178,-0.04760528932698071,-0.035245208643376824
1772789170608435000,11.94743505859375,0.09158698132932186,-0.04965623050741851,0.06287680047787726
1772789170628468000,11.967468017578126,0.22717560147047042,-0.08722951677218078,0.2144473450616002
1772789170648501000,11.9875009765625,0.20192834748923777,-0.05211714072823524,0.2179652900546789
1772789170668533000,12.007532958984376,-0.12771686385273934,0.01873918726146221,-0.03774440504796803
1772789170688566000,12.02756591796875,-0.24126082544624805,0.05071764919385314,-0.16465141382254658
1772789170708599000,12.04759912109375,-0.043833881029486654,0.08607859317138791,-0.021691972652450202
1772789170728632000,12.067632080078125,0.18009703943133354,0.0586537028901279,-0.00768149441331625
1772789170748665000,12.0876650390625,0.07614742013514042,-0.012455723077803849,0.10502820831313729
1772789170768697900,12.10769775390625,-0.08054419378936291,0.006521802984178066,-0.01272913319170475
1772789170788731100,12.127731201171875,-0.2555547237366438,0.05084346753060817,0.00947298093996942
1772789170808764000,12.147763916015625,-0.15200082575976848,0.037520533164218065,0.048429538256675
1772789170828797200,12.167797119140625,-0.09391863914728164,0.03572334754914045,0.15374686570949853
1772789170848830000,12.187829833984376,-0.012040566405653952,-0.016804346741363406,0.14367328852787614
1772789170868863000,12.207863037109375,0.007383680510520935,0.0468680610936135,0.06879837254658341
1772789170888896000,12.22789599609375,-0.05248597404062748,0.019269567811116575,-0.03330240401253104
1772789170908928800,12.2479287109375,-0.10608663132488727,0.03089556206651032,-0.005241553915292024
1772789170928962000,12.267962158203124,0.20429916827380656,-0.03560527412742376,-0.1932449825569987
1772789170948994800,12.287994873046875,0.25350480546951293,-0.0184825821518898,-0.055792541305348275
1772789170969028000,12.308028076171874,0.13980711461901663,-0.056362815473973746,0.06928133375793695
1772789170989060900,12.328060791015625,-0.01471943022608757,-0.04840082361884415,0.10352562173046172
1772789171009094000,12.348093994140624,-0.11843173363506793,0.009190072345361113,0.11418328241035341
1772789171029127000,12.368126953125,-0.07567863357961177,0.10061148784942925,0.023915566986054182
1772789171049160000,12.388159912109375,-0.055414428707957264,0.11359890665113925,-0.03624671383611858
1772789171069196000,12.408196044921874,-0.09660977792739868,0.10954780462943017,0.04222958763800561
1772789171089228800,12.428228759765625,-0.2161269687116146,0.10307955846339463,-0.013924188195168972
1772789171109262000,12.448261962890625,-0.033038930770754815,0.038525034031644464,0.010320318484306335
1772789171129294800,12.468294921875,0.06888298209011555,-0.03335727600492537,0.03251914468035102
1772789171149328000,12.488327880859375,0.17415303633511064,-0.04990238728821277,0.08743716817349195
1772789171169361000,12.50836083984375,0.15772563314735888,-0.04225421062260866,-0.00829940711595118
1772789171189394000,12.528393798828125,0.05096563260555267,-0.03500314351581037,-0.03990406729988753
1772789171209427000,12.548427001953126,-0.08811141417324543,0.01916793406754732,-0.016030512824654577
1772789171229460000,12.5684599609375,-0.004163549420237541,0.0718666010107845,0.12224413153007625
1772789171249493000,12.588492919921874,0.018894670084118843,0.05578976482637226,0.02380275426134467
1772789171269526300,12.6085263671875,-0.1404839909672737,0.12195815419554709,-0.05681793883033096
1772789171289559300,12.628559326171874,-0.25034020395874973,0.11944580604843795,-0.14188582058921456
1772789171309592300,12.64859228515625,-0.15341244612336158,0.11284056256450713,-0.09377798856757581
1772789171329625300,12.668625244140625,0.049771454384922975,0.038646249258518214,0.11572232854589819
1772789171349658400,12.688658447265626,0.027004326781630516,-0.010512333925068378,0.14924224776662887
1772789171369691400,12.70869140625,-0.0713946726500988,-0.030627412649616596,0.08795666200295091
1772789171389724200,12.72872412109375,-0.010107552516460418,-0.01026654247045517,0.042362127976492046
1772789171409757400,12.74875732421875,-0.048715807852149004,0.010033902758359909,0.0036066461898386477
1772789171429790200,12.768790283203124,-0.09628945993185042,0.057728989260643716,-0.012683613549545407
1772789171449823500,12.788823486328125,0.021617957568168637,0.03643346857987344,0.022503873557224868
1772789171469856300,12.808856201171874,0.12374153048098087,0.017475743196904658,0.023597806273773312
1772789171489889300,12.82888916015625,0.05121814606189728,0.04956643333211541,-0.008454159286245704
1772789171509922300,12.84892236328125,-0.14049918853640556,0.06665368866808712,-0.08193309086449443
1772789171529955300,12.868955322265625,-0.0536702153891325,0.01525382936373353,-0.038533655729517335
1772789171549988400,12.88898828125,0.07429974644184112,0.03030351445749402,0.01587977924235165
1772789171570021400,12.909021484375,0.11608721633553504,-0.035691637236624954,0.0885527281999588
1772789171590054400,12.929054443359375,-0.00018470891714096068,-0.03291859232671559,0.08685432678423821
1772789171610087400,12.94908740234375,0.01815758798122406,-0.05625891670808196,0.11113280879855156
1772789171630120200,12.9691201171875,0.11285714837312698,-0.039227337082102895,0.12202325532101094
1772789171650153500,12.989153564453124,0.023896423894166945,-0.02923661587834358,0.0386643694370985
1772789171670186200,13.009186279296875,-0.15979776324629782,0.02635777250640094,-0.08211326973699033
1772789171690219500,13.029219482421874,-0.2803799529135227,0.1063831300534308,-0.1827028380155563
1772789171710252300,13.049252197265625,-0.04009527902305126,0.10428257757760584,-0.07855294690690934
1772789171730285300,13.069285400390624,0.00661444970369339,0.06587028320543467,-0.05297383062280714
1772789171750318300,13.089318359375,-0.08320786004066467,0.03154883834347129,-0.06421455188766122
1772789171770351400,13.109351318359375,-0.014350012391805647,0.028023367631062862,-0.0027959873940795656
1772789171790384400,13.12938427734375,0.012966449078917502,-0.013384528360515832,0.06181837746612727
1772789171810417400,13.14941748046875,-0.06682195790708065,-0.020829948995634912,0.1365731741990894
1772789171830450200,13.1694501953125,-0.005649404063820839,-0.021458383092284202,0.2179187474992126
1772789171850483500,13.1894833984375,-0.0002291325807571411,0.009545973110944033,0.1826310148883611
1772789171870516200,13.20951611328125,-0.06181143626868724,0.045233737890049815,0.04560878174751997
1772789171890549500,13.229549560546875,-0.04170797491669655,0.07208345863185822,-0.037540041582286354
1772789171910582300,13.249582275390624,0.10614391447007655,0.05648293472230434,-0.012118161686509848
1772789171930615600,13.269615478515625,0.044668578287959095,0.01573854414075613,-0.019985680191218852
1772789171950648300,13.2896484375,0.10195698417425154,0.027780937177315352,-0.06335954249352216
1772789171970681300,13.309681396484375,-0.004378068953752518,0.03515044303201139,-0.029489859987050292
1772789171990714400,13.32971435546875,-0.05668284120857715,0.044815074086561796,-0.02668539702557027
1772789172010747400,13.349747314453126,0.00949614261984825,0.08432517363280058,0.08657287949435412
1772789172030780400,13.369780517578125,0.058135962626338,0.06804068604707718,0.042177199863642455
1772789172050813400,13.3898134765625,-0.04909691612422466,0.054034299461171026,0.06810527571588754
1772789172070846200,13.40984619140625,-0.10105389785468578,0.041188042695820326,0.020675635216757655
1772789172090879500,13.42987939453125,-0.13207739714980124,0.020474925012886523,-0.004271393708884716
1772789172110912300,13.449912353515625,0.04200608108043671,0.007022226786985993,-0.05329100681319832
1772789172130945500,13.469945556640624,-0.10134440523386001,0.043042949847504494,-0.04809599545337259
1772789172150978300,13.489978271484375,-0.10899930390119551,0.0465723660826683,-0.053324909082800145
1772789172171011300,13.51001123046875,-0.1096107137978077,0.01377140878625214,0.014436960022896527
1772789172191044400,13.53004443359375,0.001205284136533737,-0.016347981275990603,0.08196874669976532
1772789172211077400,13.550077392578125,0.04992693720757961,-0.011456848233565688,0.12762005241476
1772789172231110400,13.5701103515625,0.08394669570922851,-0.01216638474240899,0.039654622583463785
1772789172251143400,13.590143310546875,0.07982289377748966,0.014884119268506765,0.032033553120493885
1772789172271176200,13.61017626953125,-0.002710428002476692,0.04094838872104883,0.03461187917590141
1772789172291209200,13.630209228515625,0.14774609092473984,0.026295813186094162,0.07476268777847289
1772789172311242000,13.650241943359376,0.11741232745945453,0.05609408153519034,0.021599179802462457
1772789172331275300,13.670275146484375,0.12300737098753452,0.046797187814489,-0.03595306465178728
1772789172351308000,13.69030810546875,0.1430716693729162,0.0581764407671988,0.008857406324893236
1772789172371341300,13.71034130859375,0.08973404693901538,0.02909450399391353,0.0037690702099353072
1772789172391374000,13.7303740234375,0.01583820512294769,0.014647826294600963,0.05255370551459491
1772789172411407000,13.750406982421875,0.03442717025876045,-0.046874783095344895,0.1393666773751378
1772789172431440100,13.770440185546875,0.06630056438148021,-0.14628982770182192,0.3890908683273941
1772789172451473000,13.790472900390625,0.011876900276541709,-0.18819712458290158,0.4727092819303274
1772789172471506200,13.810506103515625,-0.22275135528743265,-0.15986878265589474,0.26545542856939136
1772789172491539000,13.8305390625,-0.11894377481043338,-0.19702252833433448,0.13620989384464918
1772789172511572200,13.850572265625,0.1304372287273407,-0.3605091361612081,0.29044366628825663
1772789172531605000,13.87060498046875,0.20672961029112338,-0.4142931871883571,0.6511928217504173
1772789172551638000,13.890637939453125,0.17060381942093372,-0.17266243245117366,0.9207000099286436
1772789172571671000,13.910671142578124,-0.39829672276377676,-0.13958580001853405,0.968857964702323
1772789172591704000,13.9307041015625,-0.8956815962672233,0.035517888104915615,0.5172693583425134
1772789172611737000,13.950737060546874,-0.7778449059158563,0.4109201305586844,-0.08115589594691991
1772789172631770000,13.97077001953125,-0.7363619719266891,0.5838488127306103,-0.4252770110826939
1772789172651803100,13.99080322265625,-0.44741117454469204,0.5888013936366886,-0.6959126918341965
1772789172671836200,14.010836181640625,-0.004927519530057906,0.5472836075298488,-1.1137322995830328
1772789172691869000,14.030868896484375,0.10389993493556976,0.5399618132743984,-1.494593245834112
1772789172711902200,14.050902099609376,0.24670213971734045,0.45928222960233683,-1.6734220188952982
1772789172731935000,14.07093505859375,0.4817793080925941,0.36114458452053366,-1.3153713818021118
1772789172751968300,14.09096826171875,0.46864159409999845,0.09317965734824538,-0.6605263942196965
1772789172772001000,14.1110009765625,0.1967822167724371,-0.059560004080086944,-0.1778076133199036
1772789172792034000,14.131033935546874,0.14919687425494194,-0.12801138981990515,0.265817466814816
1772789172812067000,14.151067138671875,-0.0017518121033906935,-0.10764788929224013,0.5941303335744887
1772789172832100000,14.17110009765625,0.07429273217916488,-0.09690722650401294,0.7128905685115605
1772789172852133000,14.191133056640625,0.23261574669778345,-0.05552051943093538,0.8330592820070684
1772789172872166100,14.211166259765625,0.1519254224359989,-0.03649308981262147,0.73458159131594
1772789172892199000,14.231198974609375,-0.04036415909230709,0.04853241410925984,0.7150860327292233
1772789172912232200,14.251232177734375,-0.3594178337931633,0.10805625089742242,0.7969988114580512
1772789172932265000,14.271264892578126,-0.37167818042933937,0.04894939741231501,0.7918118372742086
1772789172952298200,14.29129833984375,-0.11320318533182143,0.11565722742043436,0.6776925600107759
1772789172972331000,14.3113310546875,0.046053310644626616,0.25451062151119114,0.3875065948106348
1772789172992364300,14.3313642578125,0.1595849972784519,0.2602189892206341,-0.036412571922317144
1772789173012397000,14.35139697265625,0.084029697817564,0.2099791136063635,-0.4663636392306536
1772789173032430000,14.37143017578125,0.4661480237185955,0.15477956975810228,-0.5375993949919938
1772789173052463000,14.391463134765624,0.43419922627210616,-0.048272594129294154,-0.7265029142785817
1772789173072496000,14.41149609375,0.37845395817458627,-0.16454576149098574,-0.6074803020782769
1772789173092529200,14.431529052734374,-0.12655775694549082,-0.29251448121294377,0.004692103338986635
1772789173112562200,14.451562255859375,-0.6965262206226587,-0.279651565573737,0.4810793431296944
1772789173132595000,14.471594970703125,-0.8021896580994129,-0.1631277113866061,0.7494844883501529
1772789173152628200,14.491628173828126,-0.5238210450083017,-0.0795902540653944,0.6552272648982703
1772789173172661000,14.511660888671875,0.02494622520804405,-0.06628083676770329,0.0989066566929221
1772789173192694300,14.5316943359375,0.06519932514131069,-0.07127696455456316,-0.14842596294768154
1772789173212727000,14.55172705078125,0.04536240577101707,-0.08375080781094729,-0.16976956055387854
1772789173232760000,14.571760009765624,0.15300269627869129,-0.13381839559823275,0.10349098880849777
1772789173252793000,14.59179296875,0.06464402934610844,-0.17856069670952857,0.18105908939652143
1772789173272826000,14.611826171875,0.14492051210999488,-0.1976282391425222,0.0019187661681324241
1772789173292859400,14.631859375,0.37155835344195365,-0.2095509513221681,-0.1317996031217277
1772789173312892200,14.65189208984375,0.5404501082479953,-0.19540902872309088,-0.1865242959998548
1772789173332925400,14.671925537109376,0.3609165479183197,-0.27515133154504,-0.1688808680858463
1772789173352958200,14.691958251953125,0.052363224443793294,-0.26555720844343306,-0.19461904738917946
1772789173372991200,14.7119912109375,0.0626806203186512,-0.18936543770991265,-0.16063158372193573
1772789173393024300,14.732024169921875,0.12576865239441395,-0.141668670707196,-0.28073629207052286
1772789173413057300,14.752057373046876,0.16798983753025531,-0.09509769286401569,-0.4715137154702097
1772789173433090300,14.77209033203125,0.1448591373115778,-0.025628654514253137,-0.41976526192389424
1772789173453123300,14.792123291015624,-0.008036591461300849,0.0479340098246932,-0.31241328683830794
1772789173473156000,14.812156005859375,-0.1110831244379282,0.07084164187721907,-0.2596485689215362
1772789173493189400,14.832189453125,-0.15438099889457224,0.09388356783390045,-0.21948227048888802
1772789173513222100,14.85222216796875,-0.1570411580145359,0.22181955433003603,-0.1837714170951396
1772789173533255400,14.87225537109375,-0.19945114372074602,0.2663515006262809,-0.08678279591798782
1772789173553288200,14.8922880859375,0.021512743628025053,0.2289563474074006,0.20191183474585414
1772789173573321200,14.9123212890625,-0.06391454602777957,0.1909083563029766,0.24469576833099124
1772789173593354200,14.932354248046876,-0.11072422799766063,0.1581638053689152,0.17620595027692615
1772789173613387300,14.95238720703125,-0.016759411621093748,0.041349370737373825,0.18138576406762003
1772789173633420300,14.972420166015626,0.06287000541090965,0.013974237881973385,0.1342528414927423
1772789173653453300,14.992453369140625,0.167110132086277,-0.03618782325573265,0.22789222530722616
1772789173673486300,15.012486328125,0.205007024282217,-0.07119922314323485,0.26457565006017686
1772789173693519400,15.032519287109375,0.036194764453172684,-0.09624481707252562,0.20496179690100252
1772789173713552100,15.05255224609375,-0.04268120386302471,-0.08041391847319901,0.09024192339591681
1772789173733585400,15.07258544921875,0.05958849952220916,-0.07093918396756052,0.03969422394149005
1772789173753618200,15.0926181640625,-0.02542553315758705,-0.04815715105608105,0.006788271900638938
1772789173773651500,15.1126513671875,-0.11480477530956268,0.014130305226519703,-0.03731039754487574
1772789173793684200,15.132684326171875,-0.13765724310874938,0.1122470536507666,-0.07942651487104595
1772789173813717200,15.15271728515625,-0.23457681763768196,0.11219356989786028,-0.11737718308083712
1772789173833750300,15.172750244140625,-0.2265098310381174,0.09161416159719228,-0.09604439912959933
1772789173853783300,15.192783203125,-0.12955284710824488,0.10994345288351177,-0.10243775342851877
1772789173873816300,15.21281640625,-0.06317454131543636,0.14174955392368138,-0.11472206546217202
1772789173893849300,15.232849365234374,-0.16719781036973,0.132326841866225,-0.022237039314582943
1772789173913882400,15.25288232421875,-0.15868191095888615,0.1083726964354515,0.0038395781628787515
1772789173933915400,15.272915283203124,0.007723872250318527,0.11998166649080812,0.007381926944851875
1772789173953948200,15.2929482421875,0.06690379097163676,0.006769494134932756,-0.09058101915717125
1772789173973981400,15.3129814453125,0.12700082453787326,-0.060114276961982245,-0.03813698456212878
1772789173994014200,15.33301416015625,0.20983166795969008,-0.10144406621605158,0.1422271083075553
1772789174014047500,15.353047607421875,0.25628245348930356,-0.05722301249988377,0.20740531759560107
1772789174034080300,15.373080322265626,0.21414251689612865,-0.06383132472373544,0.13586312623359262
1772789174054113300,15.39311328125,0.016107669714093206,-0.09228321996517479,0.0659744011670351
1772789174074146300,15.413146240234376,-0.09462941776514053,-0.05683430544324219,0.0821953950624913
1772789174094179300,15.433179443359375,-0.12339958517551422,0.002488675010576844,0.11848660562746226
1772789174114212400,15.45321240234375,-0.07929507051110267,0.03867328339591622,0.11108268604651093
1772789174134245400,15.473245361328125,-0.032874095597863195,0.05593633369021117,0.18738230106867848
1772789174154278400,15.4932783203125,-0.010650573351979255,0.07320384096391498,0.23154183385595678
1772789174174311200,15.513311279296875,-0.07798048078119754,0.06400887324772775,0.19197759296968578
1772789174194344200,15.53334423828125,-0.023073417073488235,-0.01632518492229283,0.08454933777749538
1772789174214377200,15.553377197265625,0.0730500386416912,-0.07821494712419808,0.02061221459172666
1772789174234410200,15.57341015625,0.10056582207679748,-0.06491378619819879,0.07799808950312435
1772789174254443300,15.593443359375,0.07551496745049953,-0.030708588127046823,0.18644165921770034
1772789174274476000,15.61347607421875,0.050775078469514845,-0.017689385947585106,0.18702976130396126
1772789174294509800,15.633509765625,-0.0730675742983818,0.0012865326792001724,0.12453421522863209
1772789174314543000,15.653543212890625,-0.2394055529683828,0.03502791263088584,0.08779818350560963
1772789174334575900,15.673575927734374,-0.20137597430348395,0.05836122274957597,0.1476654269039631
1772789174354609000,15.69360888671875,-0.10032616810202598,0.08138539385385811,0.1858654667649418
1772789174374642000,15.713641845703124,-0.10652034656703471,0.11653897869102656,0.167088650906831
1772789174394675000,15.733675048828125,-0.1365145028144121,0.10379822812676429,0.11436178078241646
1772789174414708000,15.7537080078125,-0.1344540631532669,0.017548881498351692,0.07086524194851518
1772789174434741000,15.773740966796876,-0.04379822519421577,-0.014366379004716873,0.12007687049359082
1772789174454774000,15.79377392578125,-0.07282149058282375,-0.05731522082798183,0.09752820794656872
1772789174474807000,15.81380712890625,-0.05402560469806194,-0.04465301539264619,0.011763210768997669
1772789174494839800,15.83383984375,0.03358487421572208,0.011794044298678636,-0.057304114912077785
1772789174514873000,15.853873046875,0.11710077729225157,0.0023320231441408394,-0.11385784984827041
1772789174534905900,15.87390576171875,0.1560258434921503,-0.07788893004022539,-0.09842172272019088
1772789174554939100,15.893939208984374,0.07046703641116618,-0.07216456104405224,-0.14897512126304208
1772789174574972000,15.913971923828125,0.0474134930819273,-0.0076927464596927165,-0.24888547510579226
1772789174595005000,15.9340048828125,0.11715163069665431,0.024963614734262226,-0.22863113404102622
1772789174615038000,15.954037841796875,0.026609189984202385,0.02641067173741758,-0.20948285452201962
1772789174635071000,15.974071044921875,-0.1371504626303911,0.08989099106639623,-0.13709332561567425
1772789174655104000,15.99410400390625,-0.1383136611908674,0.09729878310486674,0.0011911094807088374
1772789174675135000,16.014135009765624,-0.1262234104245901,0.07309621587097645,0.03074205200523138
1772789174695168000,16.03416796875,-0.06490823324024676,0.0843286807641387,-0.013755626695230602
1772789174715201000,16.054200927734374,-0.03594517360627651,0.0946980990871787,-0.0572738659042865
1772789174735234000,16.074234130859374,0.12676584673821925,0.14556100197061894,-0.10764116729050874
1772789174755266800,16.094266845703125,0.09342705623805522,0.191600941677019,-0.17514409319907426
1772789174775300000,16.114300048828124,-0.008170446974039076,0.09054507106095552,-0.13883848878256977
1772789174795332900,16.134332763671875,-0.1501736103326082,-0.037704219168052076,0.026457360423356294
1772789174815366100,16.1543662109375,-0.25716391249895093,0.04669022030867636,0.06130604402981698
1772789174835399000,16.17439892578125,0.015169512081146239,0.09610233986191451,-0.026534225051850078
1772789174855432000,16.194431884765624,0.27529811960458755,0.0784244251564145,-0.03302585209347308
1772789174875465000,16.21446484375,0.174348266646266,-0.0008310439966619014,-0.031808731388673184
1772789174895498000,16.234498046875,0.015441314759850501,-0.017733225089311598,0.0012736001323908567
1772789174915531000,16.254531005859373,0.022404139509797093,-0.051566886434331535,0.08818309116996824
1772789174935564000,16.27456396484375,0.11408873599469661,-0.1258466860666871,0.07082103748060763
1772789174955596800,16.2945966796875,0.15960194841325281,-0.18089900346398352,-0.003774111711233854
1772789174975630000,16.314630126953126,0.09994096817672252,-0.21999445779472587,-0.03622939737513661
1772789174995662800,16.334662841796874,0.0735556500762701,-0.19865758219026028,-0.05739990343675017
1772789175015696100,16.354696044921877,-0.20532675775587558,-0.162171141314134,-0.12341441741846501
1772789175035729000,16.37472900390625,-0.39394437277317046,0.02254142908863723,-0.15787044844552875
1772789175055762200,16.39476220703125,-0.34093057546615596,0.1117224452547729,-0.14475947632938624
1772789175075795000,16.414794921875,-0.2445341480284929,0.17084866102747617,-0.14165040439814328
1772789175095828000,16.434827880859373,-0.18575111967027186,0.34211057903096076,-0.29697599066644903
1772789175115861000,16.454861083984376,-0.271839503583312,0.3959944371707737,-0.3845252409122884
1772789175135894000,16.47489404296875,-0.17349895634055137,0.2549221249215305,-0.23203400128707288
1772789175155927000,16.494927001953126,0.14693068288862704,0.17651435863897202,0.0825046802073717
1772789175175960000,16.5149599609375,0.3104612029224634,0.0710052349410951,0.018680077485367656
1772789175195992800,16.534992919921876,0.17378712563216686,0.03087254651710391,-0.16535737013481555
1772789175216026000,16.555026123046876,0.11755202819108962,0.13337788528911768,-0.16820150751955806
1772789175236059000,16.575058837890627,0.03472761451005935,0.21911767496019602,0.06997011973969638
1772789175256092200,16.595092041015626,0.02405307576060295,0.22039215187542138,0.28589769342169163
1772789175276125200,16.615125244140625,-0.12081132224798202,0.13061273142471908,0.36154037890508767
1772789175296158200,16.635158203125,-0.35688451592326165,0.043504064553231,0.2381151478316635
1772789175316191200,16.655191162109375,-0.5054039293080568,0.22077245642989873,0.3953754284895956
1772789175336224300,16.675224365234374,-0.2760702730208635,0.15443857430070637,0.34783019878678023
1772789175356257300,16.69525732421875,-0.2380734275817871,0.10556143840700387,0.3616840251594782
1772789175376290300,16.715290283203124,-0.38606969387531276,0.08556947460547089,0.15902385626435278
1772789175396323300,16.7353232421875,-0.21237316913604734,0.018501871374249457,0.17037234875261784
1772789175416356400,16.7553564453125,0.30180969443321226,-0.0964047568745911,0.2348411676622927
1772789175436389000,16.77538916015625,0.5252320808500052,-0.12290040348172188,0.16667517473511398
1772789175456422400,16.79542236328125,0.4402227243453264,-0.08788841907233,-0.03662679919488728
1772789175476455200,16.815455078125,0.2809457701027393,-0.12760434338897467,-0.17914032322838902
1772789175496488400,16.835488525390623,0.3355658335626125,-0.017426351097226143,-0.10888955991640686
1772789175516521200,16.855521240234374,0.3601484861552715,0.1260099138043821,-0.012760843504220246
1772789175536554200,16.87555419921875,0.34171617288589473,0.13613763232603668,-0.146347037781775
1772789175556587300,16.895587158203124,0.23426409842669962,0.15842881298065184,-0.38722054441086945
1772789175576620300,16.915620361328124,0.3146867116630077,0.19925605954006312,-0.37132958618737755
1772789175596653300,16.9356533203125,0.20993746642172334,0.16546821009814738,-0.1612698085602373
1772789175616687400,16.955687255859374,0.027382512444257736,0.015466887592524289,0.1728255871236324
1772789175636720000,16.97572021484375,-0.02796177363693714,-0.04493760448768735,0.4976452049400657
1772789175656753400,16.99575341796875,-0.23279402587413786,-0.08819120141118765,0.49338024097196753
1772789175676786200,17.0157861328125,0.005350713378190994,-0.17530995128527282,0.30765995483137665
1772789175696819200,17.035819091796874,0.3636217152237892,-0.17873349599316715,0.21387027582600712
1772789175716852200,17.055852294921873,-0.04139934735894203,-0.2511341308154166,0.23360205432139336
1772789175736885200,17.07588525390625,-0.5135977571576833,-0.26961569005399943,0.20752960156239567
1772789175756918300,17.095918212890624,-0.8069073342710733,-0.18069325175881384,0.3854857565075159
1772789175776951300,17.115951416015626,-0.7422539525747299,0.002163315513730049,0.3565416938349604
1772789175796984300,17.135984375,-0.33736090028584004,0.07786357640326022,0.3075267569057643
1772789175817017300,17.156017333984376,-0.2010036338597536,0.17327654576152562,-0.02493658059686422
1772789175837050000,17.176050048828124,-0.14443886607289314,0.1251242170110345,-0.305034793959558
1772789175857083400,17.19608349609375,-0.05802548798918724,0.033287790965288874,-0.2749003524586558
1772789175877116200,17.2161162109375,0.07113631397485733,-0.004472323108464479,0.04302008042857051
1772789175897149400,17.2361494140625,0.19547113417387008,0.08119315921738743,0.2728377208404243
1772789175917182200,17.25618212890625,0.3333925811767578,0.08717325654029846,0.26150807918310165
1772789175937215200,17.27621533203125,0.6484808593779802,-0.004127162932604551,0.10826952832192181
1772789175957248300,17.296248291015626,0.6176029060333967,0.02469049688130617,-0.0134403502009809
1772789175977281300,17.31628125,0.3835334533959627,0.013410539584606885,-0.020795389138907192
1772789175997314300,17.336314208984376,0.1645692154318094,-0.03905556071177125,0.3310176687389612
1772789176017347300,17.356347412109375,0.0287783507168293,0.074437985868752,0.61415568818897
1772789176037380000,17.376380126953126,-0.18265256913304329,0.16211276219040155,0.7747676904276013
1772789176057413400,17.396413330078126,-0.14469137952923775,0.2117544527158141,0.4398936385214329
1772789176077446100,17.416446044921877,0.1490109962940216,0.10878215401917696,-0.03455868768393993
1772789176097479400,17.4364794921875,0.20264789393544197,0.08518485920205712,-0.17427812401950357
1772789176117512200,17.45651220703125,-0.01822597704231739,0.11538798202499746,0.0023828034833073613
1772789176137545500,17.47654541015625,-0.22659517123401163,0.08716171223297714,-0.025629092905670402
1772789176157578200,17.496578125,-0.34719723464548585,0.021189649153500793,-0.03718772101327777
1772789176177611300,17.516611328125,-0.5532587364166974,0.04418357124999165,0.05238631305843591
1772789176197644300,17.536644287109375,-0.8638537948518991,-0.030610096188634632,0.1034742568694055
1772789176217677300,17.55667724609375,-0.6321434725612401,-0.18801804168894887,0.34981910758167506
1772789176237710300,17.57671044921875,-0.38018589653372764,-0.21580855041220784,0.4473075680397451
1772789176257743400,17.596743408203125,-0.16889818454682826,-0.25034721822142597,0.25111834872439504
1772789176277776100,17.616776123046876,0.22887772921323776,-0.1542950741767883,-0.04248495063856244
1772789176297809400,17.636809326171875,0.26269290505349635,0.12682049953490496,-0.4993975285001099
1772789176317842200,17.65684228515625,0.17650281433165071,0.0902823284715414,-0.768140819633752
1772789176337875500,17.67687548828125,0.31256606624722477,-0.061913289207965135,-0.7532930868528783
1772789176357908200,17.696908203125,0.46347909677028654,-0.21357026996612546,-0.3272955794759094
1772789176377941200,17.716941162109375,0.4384896169424057,-0.15579861060753464,-0.08975728168413043
1772789176397974300,17.736974365234374,0.4327022657126188,-0.10667626778110861,-0.016871932084858418
1772789176418007300,17.75700732421875,0.28534955801963807,-0.11169102720320224,-0.37648207357972857
1772789176438040300,17.777040283203124,0.511280127865076,-0.1108591064237058,-0.7797237053997814
1772789176458073300,17.7970732421875,0.6425462086319923,-0.07762099981904029,0.17819003676623105
1772789176478106400,17.8171064453125,0.3461906879514456,-0.02104541837722063,0.3774686003990471
1772789176498139400,17.837139404296874,-0.010137363132834434,0.17809008352309463,0.14487491940259933
1772789176518172200,17.857172119140625,-0.14827566775679588,0.2467659987337887,-0.07878595194518566
1772789176538205400,17.877205322265624,-0.1703863772779703,0.24847557913064955,-0.16830284900218248
1772789176558238200,17.89723828125,-0.2656657833844423,0.18760376179963348,0.16284765233621
1772789176578271500,17.917271484375,-0.25045944642424584,0.12015753451436757,0.4841758478403091
1772789176598305500,17.937305419921874,-0.18046119656860826,0.034005072389170526,0.5544897395163774
1772789176618338300,17.95733837890625,-0.11179799470901489,0.08031900673136115,0.21093582980930803
1772789176638371600,17.97737158203125,-0.060603814044594764,0.15520122923627494,-0.11919000465646386
1772789176658404400,17.997404296875,0.005729483562707901,0.25114874386265873,-0.24247692323774098
1772789176678437400,18.017437255859374,0.025726561930775643,0.21599778937399386,-0.27131854844912884
1772789176698470400,18.037470458984377,0.05507423696815967,0.16069288545511662,-0.06183715523183345
1772789176718503400,18.05750341796875,-0.2633312029570341,0.0578564880978316,0.0721251788817346
1772789176738536400,18.077536376953127,-0.3986971202582121,-0.04992627962045371,-0.017948767536133527
1772789176758569500,18.097569580078126,-0.22167232787907123,-0.11377660130560398,-0.1091875199496746
1772789176778602200,18.117602294921873,0.025610826596617696,-0.13765899667441844,-0.08683218801766633
1772789176798635300,18.13763525390625,-0.004542319604754447,-0.17092852133065461,-0.02696151055321097
1772789176818668300,18.157668212890623,-0.17026771933436394,-0.15912278659418225,0.022299071700125933
1772789176838701300,18.177701416015626,-0.5213292281925678,-0.134840870513767,0.1009744028776884
1772789176858734300,18.197734375,-0.4444979174464941,-0.08444850775152445,0.09649009707048535
1772789176878767400,18.217767333984376,0.10221008215248584,-0.13990633720979093,0.00016615034714341162
1772789176898800400,18.23780029296875,0.31632746460735794,-0.015062544575333594,-0.005739128173887729
1772789176918833200,18.257833251953127,0.15095511609911919,-0.01816036446020007,-0.19243454295694826
1772789176938866400,18.277866455078126,-0.13961013074219225,-0.04529299379661679,-0.21599092124179003
1772789176958899200,18.297899169921877,-0.05013853413164615,-0.05376490793526172,0.04069412169903516
1772789176978932500,18.317932373046876,0.1020505076766014,-0.06781126120537519,0.25577728044614195
1772789176998965200,18.33796533203125,-0.009425999993085861,-0.009494096793234348,0.22405425457954406
1772789177018998300,18.357998291015626,-0.05515723907649517,-0.00761412826552987,0.1995927441485226
1772789177039031300,18.37803125,0.06701426560878754,0.049572863072901964,0.2779723072499037
1772789177059064300,18.398064208984376,-0.005654664760828018,-0.009414455685764551,0.2853416669741273
1772789177079097300,18.418097412109375,0.017115969973802565,-0.09678367318958044,0.35420229110196233
1772789177099130400,18.43813037109375,0.17370996874272823,-0.09303747239857911,0.16398469354212283
1772789177119163400,18.458163330078126,0.3056593555986881,-0.018501871374249457,-0.16785729719176887
1772789177139196400,18.478196533203125,0.58081894351542,0.019069734390079973,-0.21478636775761842
1772789177159229200,18.498229248046876,0.5253431400090456,-0.01750160829052329,-0.12465016975849866
1772789177179262500,18.518262451171875,-0.12346972780227661,-0.04685337498113513,0.12232567233368753
1772789177199295200,18.538295166015626,-0.5981564472854137,0.04559972165822983,0.16932123226448892
1772789177219328500,18.55832861328125,-0.5756336498320103,0.12150339616537094,0.07708090159296989
1772789177239361300,18.578361328125,-0.07882102325856685,0.15939897318705915,0.15371990463733673
1772789177259394300,18.598394287109375,0.18795126006305216,0.08885770249590277,0.08651888428479433
1772789177279427000,18.618427001953126,-0.06998071419894696,0.07415683083981275,0.014638766205310821
1772789177299459800,18.6384599609375,-0.2527098556995392,0.0019954116009175777,-0.19494243412464857
1772789177319493000,18.6584931640625,-0.06158230368793011,-0.0000263034850358963,-0.17217384521663187
1772789177339526000,18.67852587890625,0.14927578471004962,-0.0781388862133026,-0.06306362828686833
1772789177359559200,18.69855908203125,0.09028408203721046,-0.16340908561125397,0.19629604069069026
1772789177379592000,18.718592041015626,-0.17152327235341072,-0.07174991582855582,0.2783712434396148
1772789177399625000,18.738625,-0.215699098688364,0.0216818165846169,0.11761143022812902
1772789177419658000,18.758657958984376,-0.015479308682680128,-0.02562456286102533,0.05579685215428471
1772789177439692000,18.778692138671875,0.01639817709326744,-0.0458513583317399,-0.09507913429401814
1772789177459725000,18.79872509765625,0.03352583750486374,0.0159543788485229,-0.1650336180731654
1772789177479758000,18.818758056640625,0.13687515282034873,0.031152094110846518,-0.1275026365801692
1772789177499791000,18.838791015625,0.19331600196659565,0.023052008959278465,-0.13414192846417428
1772789177519824100,18.85882421875,0.14776128849387168,0.03352510685250163,-0.25209471947588025
1772789177539857000,18.87885693359375,-0.019664485412836073,0.08102087139040232,-0.26667905208021403
1772789177559890000,18.898889892578126,0.09803951846957207,0.0488042167879641,-0.08817439640685916
1772789177579923000,18.9189228515625,0.05389174918532371,0.05954122631438076,0.10009214015044271
1772789177599956000,18.9389560546875,-0.12426818470358848,0.06167538879886269,0.16505129986032843
1772789177619989000,18.958989013671875,-0.17131576708257198,0.03231025117002427,0.09849471489116549
1772789177640022000,18.97902197265625,-0.07516542336046696,-0.007823094841092825,0.20468327222056687
1772789177660055000,18.999054931640625,0.14699498029649258,-0.06983326855227351,0.3281383139103651
1772789177680088000,19.019088134765624,-0.08912263704240321,-0.10360562816411256,0.4169695667907595
1772789177700120800,19.039120849609375,-0.254739315700531,0.0001004646997898817,0.18157763337790964
1772789177720154000,19.059154052734375,-0.3188397396892309,0.10368453861922025,0.07727481672987341
1772789177740187000,19.079186767578125,-0.21788521055579185,0.07493519480116664,0.0513762592330575
1772789177760220200,19.09922021484375,0.1158925705462694,0.07878069124817848,0.0010769815817475317
1772789177780253000,19.1192529296875,0.31156945642530914,0.005292991841584444,0.03904796192720532
1772789177800286000,19.139285888671875,0.22635493273735044,-0.02447583121731877,-0.04737893322519958
1772789177820319000,19.159319091796874,0.07247019292712212,-0.02106046981588006,-0.0801735338460654
1772789177840352000,19.17935205078125,-0.13397943137884138,-0.03610533260405063,-0.12307239904776215
1772789177860385000,19.199385009765624,0.047617491221427916,-0.054976256486400955,-0.018260244638100265
1772789177880418000,19.21941796875,0.40394320421814917,-0.15376315925717354,0.21970066247992218
1772789177900451000,19.239451171875,0.15491583642363546,-0.11659005129113793,0.12260215118750929
1772789177920484000,19.259484130859374,-0.23891747719049453,-0.01323072603829205,-0.048412952448055144
1772789177940516900,19.279516845703125,-0.35661738941967486,0.11327851559035479,-0.0793681357473135
1772789177960550100,19.299550048828124,-0.3762795367449522,0.09383717140890657,-0.009174363319575786
1772789177980583000,19.3195830078125,-0.19209435121715068,0.1252297962773591,-0.009885288067907094
1772789178000616200,19.3396162109375,0.0967827964067459,0.025727730974555014,0.09218721224479377
1772789178020649000,19.35964892578125,0.16715981644690037,0.016824805007502434,0.06425875635556877
1772789178040682000,19.379681884765624,-0.008788871133327483,-0.040064372428134085,-0.03922697175592184
1772789178060715000,19.399715087890623,0.042647301593422886,-0.01990918088890612,-0.038780981554090974
1772789178080748000,19.419748046875,-0.07218962242007256,-0.05461852908991277,-0.09931216875389218
1772789178100781000,19.439781005859373,0.0990530794262886,-0.029881928044557568,-0.08918832268975675
1772789178120814000,19.45981396484375,0.19079437453448772,-0.0951004693429917,0.06776566849797963
1772789178140846800,19.479846923828124,0.0668196198195219,-0.05014795954711735,0.10880787298232317
1772789178160881200,19.499881103515627,-0.13805997869074343,-0.026312033668532967,0.12630538961961865
1772789178180914000,19.519913818359374,-0.19968495247662066,-0.006247296891734004,0.051559872171655294
1772789178200947000,19.539947021484377,-0.03309972104728222,-0.046103798722848296,0.11406345542296767
1772789178220980000,19.55997998046875,0.051399932369589806,-0.09141856595985591,0.12650295801833272
1772789178241013000,19.580012939453123,0.09031506169736385,-0.0926248730096966,0.05826594568155705
1772789178261046000,19.6000458984375,0.09496142619848251,-0.08708667423538863,0.03620521278195083
1772789178281079000,19.6200791015625,0.08820552219748497,-0.036931992686539884,0.14668445304259656
1772789178301112000,19.640112060546876,-0.016126374414563178,-0.0424489294771105,0.09360591993629931
1772789178321145000,19.66014501953125,-0.0171013569265604,-0.0004103343665599823,0.02201762441024184
1772789178341177900,19.680177734375,-0.04211772476136684,0.02691591784581542,-0.08679631298668682
1772789178361211100,19.700211181640626,-0.10980126793384551,0.0177919695392251,-0.08871420237198471
1772789178381244000,19.720243896484376,0.05260170937478542,0.06553045679181814,-0.04926211662329733
1772789178401277200,19.740277099609376,-0.03536532789170742,-0.00730067840218544,-0.04433050544001162
1772789178421310000,19.76031005859375,-0.039542905837297436,0.004063815372809768,-0.030220073957741258
1772789178441343000,19.780343017578126,-0.022260347124934195,-0.07065320663303136,0.03181011962816119
1772789178461376000,19.8003759765625,0.0549988336443901,-0.09389087435752153,0.08587327985763549
1772789178481409000,19.820408935546876,-0.004527122035622597,-0.06236497849822044,0.10296462684683501
1772789178501442000,19.840442138671875,-0.00898468596637249,-0.0383997271515429,0.038910307022184135
1772789178521475000,19.86047509765625,0.09466332003474234,-0.04746631924770772,0.008881006396189332
1772789178541507800,19.8805078125,0.3173451172173023,-0.05290105764754116,0.06668437606729567
1772789178561541000,19.900541015625,0.11233633936941623,-0.010843319445103406,0.08178469536975026
1772789178581574000,19.920573974609376,-0.1951291888684034,0.014179551195725797,-0.0055230742704123256
1772789178601607200,19.940607177734375,-0.25060206976532934,0.045554275081306696,0.06399922863654792
1772789178621640000,19.960639892578126,-0.030965631628036498,-0.020057064926996826,0.0784939832612872
1772789178641673200,19.980673095703125,-0.11054127264618872,0.005659779327362775,0.06569032352864741
1772789178661706000,20.0007060546875,-0.19910276867449284,0.026703298008441925,-0.05294277789741754
1772789178681739000,20.020739013671875,0.06008242051899433,-0.05539886581264436,0.06048756725378334
1772789178701772000,20.04077197265625,0.08099018399119377,-0.054804480116069317,0.043786900082603095
1772789178721805000,20.06080517578125,0.02238601933121681,0.0002708528306335211,0.019455226576328276
1772789178741838000,20.080838134765624,0.007134089663624763,0.01156001634709537,0.07148030510693788
1772789178761871000,20.10087109375,-0.12065408585965633,0.025067294304445386,-0.006767594438791275
1772789178781904000,20.12090380859375,-0.19218670567572116,0.07449804549291729,-0.07403992646187543
1772789178801937200,20.140937255859374,-0.07644201916754245,0.05412877281159162,0.02223506655320525
1772789178821970000,20.160969970703125,0.0694862086802721,-0.0032173546113073823,0.19335582252033054
1772789178842004000,20.18100390625,0.0513216064363718,-0.006308525559678674,0.036741950007155535
1772789178862037000,20.201037109375,-0.026844752305746077,0.057476768065243954,-0.14494944594353437
1772789178882070000,20.221070068359374,-0.0009422492861747741,0.050562897023558616,-0.08405300562791526
1772789178902103000,20.24110302734375,-0.023117840737104413,0.05764701006561517,-0.03866721898131072
1772789178922136000,20.261135986328124,-0.014520108261704445,0.02992642477340996,0.02942563564442098
1772789178942168800,20.2811689453125,0.12353753234148025,-0.003469721937179565,0.15294563232921063
1772789178962202000,20.3012021484375,0.11180150184035301,0.005230667195096612,0.15654957510530948
1772789178982235000,20.32123486328125,-0.026225743624567983,-0.013529416723921894,0.08278985382430255
1772789179002268200,20.34126806640625,-0.12772154002785682,0.01510572612993419,0.045672567698732014
1772789179022301000,20.361301025390624,-0.10814999359548091,0.019462313904240726,0.013230579907819628
1772789179042334000,20.381333984375,0.08926116873025894,-0.014367401918023824,0.0894297302301973
1772789179062367000,20.401366943359374,0.10580372273027897,0.028791575524583456,0.07002930258102714
1772789179082401000,20.421401123046873,-0.04762509000599384,0.03295278685726225,0.013675693326815962
1772789179102433800,20.441433837890624,-0.19945523537397383,0.07100669624581933,-0.08308971355371177
1772789179122467000,20.461467041015624,-0.20361235505342481,0.08045987650677561,-0.1277214669626206
1772789179142499800,20.481499755859375,-0.06560556785464286,0.05516074620783329,-0.04718216854408383
1772789179162533000,20.501533203125,0.1431499953061342,0.0030848142728209494,0.031334464940428734
1772789179182566000,20.52156591796875,0.116956400385499,-0.025536811512336135,0.04163724776804447
1772789179202599200,20.54159912109375,-0.07864099051654339,0.020300518294051287,-0.02354337267279625
1772789179222632000,20.5616318359375,-0.17878595683276652,0.06429572736509144,-0.06310476401485503
1772789179242665000,20.5816650390625,-0.06528817246854304,0.05269304092004895,0.010797726737707852
1772789179262698000,20.601697998046873,0.14443945059478283,0.010462430368736385,0.14517799400240183
1772789179282731000,20.62173095703125,0.09067162005007266,0.04375577429197729,0.06885222162567078
1772789179302764300,20.641764404296875,-0.11248773053884506,0.05471892072446644,-0.100500501755625
1772789179322797000,20.661797119140626,-0.040267128458619114,0.12075827688649296,-0.1418652892578393
1772789179342831000,20.6818310546875,-0.005960369709134101,0.10925846629403531,0.004078209224343299
1772789179362864000,20.701864013671877,0.0652729748994112,-0.026873174682632086,0.10033340156041085
1772789179382897200,20.721897216796876,-0.050838206833601,0.057365635840967294,0.10800042905695736
1772789179402930000,20.741929931640627,-0.012986907345056533,0.04445413181968033,-0.0528499850474298
1772789179422963200,20.761963134765626,0.014922259321808814,0.04476860459633171,0.07389547648988663
1772789179442996000,20.781995849609373,-0.027454993158578873,0.06615742958374321,0.10285035281740128
1772789179463029200,20.802029296875,-0.050533086407184596,0.05855221527703106,-0.04997136087119579
1772789179483062000,20.82206201171875,0.020731822383403778,0.030852745838090775,-0.07934599698074161
1772789179503095000,20.842094970703126,-0.012452654337882995,0.018466215538978575,0.12183759655579923
1772789179523128000,20.862128173828125,-0.012834931653738021,-0.002174859821051359,0.022443229411169885
1772789179543161000,20.8821611328125,-0.11609715320765972,-0.004705766538158059,0.18094890702031552
1772789179563194000,20.902194091796876,-0.24335516737699509,-0.0408766386590898,0.3676639032866806
1772789179583227100,20.92222705078125,-0.2736830856233835,-0.2262620668221265,0.5957197216577828
1772789179603260200,20.94226025390625,-0.13936463154852388,-0.16856398415639995,0.2774467490058392
1772789179623293200,20.962293212890625,-0.10855974344015121,-0.08144092343337833,-0.12124043438024819
1772789179643326000,20.982325927734376,-0.3949146791100502,0.026593480958417057,-0.07274360304102301
1772789179663359200,21.002359130859375,-0.46440264135599135,0.153959485546872,0.23448650900572537
1772789179683392000,21.02239208984375,-0.59417234608531,0.13036876660101115,0.5577616738591343
1772789179703425300,21.04242529296875,-0.7212135026335715,-0.018594810354709623,0.907619506016001
1772789179723458000,21.0624580078125,-0.7330623458594083,-0.021547668810933826,0.8707190775115042
1772789179743491000,21.082490966796875,-0.5801479123860597,0.006141936821117997,0.31838037854917345
1772789179763524000,21.102524169921875,0.06592588585019112,0.22982816180586813,-0.4480354439228773
1772789179783557000,21.12255712890625,0.5316793572932481,0.21752543733268975,-0.8394047055110335
1772789179803590100,21.142590087890625,0.5456079294025897,0.007577449516952038,-1.0236308806363492
1772789179823623200,21.162623046875,0.5201292047530413,0.0029801848545670507,-0.8613984375890343
1772789179843656000,21.182656005859375,0.7872381726831197,0.11832301256358622,-0.731346335721761
1772789179863689200,21.202689208984374,0.952348655384779,0.08291545296534895,-0.5466587536297738
1772789179883722000,21.222721923828125,0.5580851336598396,-0.038673721787333484,-0.2073569484092295
1772789179903756000,21.242756103515624,0.319283391803503,-0.06511866112053394,0.10145933685041963
1772789179923789000,21.2627890625,-0.12042319971323012,-0.034961861657351254,0.4274580814488232
1772789179943822000,21.282822021484375,-0.13815525575876236,0.01209448854997754,0.5116028570134192
1772789179963855000,21.302855224609374,0.0070674541682004925,-0.01298223116993904,0.4949103000834584
1772789179983888100,21.32288818359375,0.014801263290643692,0.0813381206460297,0.2710978914357722
1772789180003921200,21.342921142578124,0.051399932369589806,0.19280147657319902,-0.21952231023833155
1772789180023954200,21.3629541015625,-0.04320727356374263,0.28244331518411636,-0.27318521910384297
1772789180043987000,21.382987060546874,-0.4224707945555448,0.18477087646126747,0.2529430068682879
1772789180064020200,21.403020263671873,-0.5389706833451986,0.12992737950906158,0.5174958605747669
1772789180084053000,21.423052978515624,-0.20347674597501753,0.06191884216591716,0.5120054464649408
1772789180104086300,21.443086181640624,0.0041489363729953765,0.06419453201293945,0.32556590613909064
1772789180124119000,21.463119140625,0.37911446790993214,0.01422244048938155,0.07606302978731691
1772789180144152000,21.483152099609374,0.4776853167772293,-0.06914718598425387,-0.15375168801508843
1772789180164185000,21.50318505859375,0.28430384835898875,-0.1140880053423345,-0.18068053840771317
1772789180184218000,21.523218017578124,0.23063830914497374,-0.1043573233142495,0.024573665568605064
1772789180204251100,21.543251220703127,0.2043359931528568,-0.1400337629817426,0.052973319166153665
1772789180224284200,21.5632841796875,0.07876841628849506,-0.11298793514594435,-0.1491623143982142
1772789180244317000,21.58331689453125,-0.017666005071997642,0.05366247047409415,-0.3199371064718812
1772789180264350200,21.60335009765625,0.19129004909694194,0.036441286560148,-0.32526436590924857
1772789180284383000,21.623383056640623,0.08010872498154639,-0.0034684067629277703,-0.14840375111587345
1772789180304416000,21.643416015625,-0.01609305666685104,-0.010778583645820617,0.09269611161500214
1772789180324449000,21.663448974609373,-0.16673720712065696,-0.01931976362839341,-0.09087328010201454
1772789180344482000,21.68348193359375,-0.30564006637632846,0.05625833218619227,-0.2257767675232142
1772789180364515000,21.70351513671875,0.039193946269154546,0.016953180627524853,-0.26067703518643975
1772789180384547800,21.7235478515625,0.24480244357585906,-0.08602057937383652,-0.02524615800268948
1772789180404581000,21.7435810546875,-0.012311784562468528,-0.1125426755964756,0.07742365061603486
1772789180424614000,21.76361376953125,-0.0035509704798460003,-0.0822562584042549,0.027309008816629645
1772789180444647200,21.783647216796876,0.07616846292316913,-0.018177461725473402,-0.010817965808138251
1772789180464680000,21.803679931640627,0.027440964633226393,-0.040367227832227945,-0.13494469621442257
1772789180484713000,21.823712890625,0.06814239285588264,-0.041231443446129556,-0.1581537954315543
1772789180504747000,21.8437470703125,0.016596914535760877,0.021950404392927884,0.012341156787425278
1772789180524780000,21.863780029296876,-0.12029226680994033,0.06809343914762139,0.13377974408827722
1772789180544812800,21.883812744140624,-0.09839783038794994,0.07669394810199737,0.11141498674079775
1772789180564846000,21.90384619140625,-0.1261930152863264,0.10464110869169235,0.04787387713529169
1772789180584878800,21.92387890625,-0.17276304328143596,0.08490326578170061,0.06120799048282206
1772789180604912000,21.943912109375,-0.08926116873025894,0.06982464685440062,0.14920498449616132
1772789180624945000,21.96394482421875,-0.050398646372556685,0.05318842322155833,0.30620237643420695
1772789180644978000,21.98397802734375,-0.057305941542983053,0.029995179160684345,0.2561176913816482
1772789180665011000,22.004010986328126,0.0658434682637453,0.08118541430234909,0.17163571975193917
1772789180685044000,22.0240439453125,-0.028677812951803206,0.021539485504478213,0.03555113278739154
1772789180705077000,22.044076904296876,-0.05602466956079006,0.05272708932012319,-0.0355758288372308
1772789180725110000,22.064110107421875,0.16423545343279838,0.05010360894873738,0.06195398654453456
1772789180745143000,22.08414306640625,0.3401812184035778,0.04133198121115565,0.23682065104171632
1772789180765176000,22.104176025390625,0.21924071681797502,-0.05740910965651273,0.08801478539835661
1772789180785208800,22.124208740234376,-0.015223872616887091,-0.03857990602403879,0.004487264949269592
1772789180805242000,22.1442421875,-0.196799167907238,-0.034403643252700566,0.12149608964174985
1772789180825275000,22.16427490234375,-0.19423779298663138,-0.0007473112359642982,0.2297482284374535
1772789180845308200,22.18430810546875,-0.2364262448966503,-0.009320932183414697,0.1658962993171066
1772789180865341000,22.2043408203125,-0.24329846875369548,0.06217931973300874,0.09793013981096446
1772789180885374000,22.2243740234375,-0.20950082857012747,0.03584427051506937,0.06759089645296334
1772789180905407000,22.244406982421875,-0.23632804521918296,0.042543037501350044,-0.014022570535726845
1772789180925440000,22.26443994140625,-0.34507717375159264,-0.011250365876033902,-0.05695738383363932
1772789180945473000,22.28447314453125,-0.028640988072752952,-0.0926978651806712,-0.11442041563447564
1772789180965506000,22.304506103515624,0.32211013966202734,-0.08144567267373204,-0.11429678925480694
1772789180985539000,22.3245390625,0.37238779000341893,-0.04177840980440378,-0.267464028445445
1772789181005572000,22.344572021484375,0.11385668080449103,0.010715309151262044,-0.34115378976278005
1772789181025604900,22.36460498046875,0.04224631957709789,0.13715952271968126,-0.22835860070995986
1772789181045638100,22.38463818359375,-0.11411445495784282,0.1779122427381575,-0.2619767926733941
1772789181065672000,22.404671875,-0.28289690417051316,0.20709391355887055,-0.11437770900391042
1772789181085705000,22.424705078125,-0.09827975696623324,0.12423793569579719,0.05007803611606359
1772789181105738000,22.444738037109374,0.10465396817326546,0.04232398792319,0.13250683807563035
1772789181125771000,22.46477099609375,0.08676584478318691,-0.034782486502453684,0.04560392290931195
1772789181145804000,22.484803955078124,-0.1719242543697357,-0.020787351962924003,0.08593761379811912
1772789181165837000,22.504837158203124,-0.2921370262026787,-0.017097557534277438,0.12334770885780454
1772789181185869800,22.524869873046875,-0.12819909441173075,0.005415814503654837,0.2458950245855376
1772789181205903000,22.544903076171874,0.2713309695392847,-0.04984831901341676,0.13048563444633035
1772789181225936000,22.564935791015625,0.1983802996188402,-0.056564329395443196,0.22512078783251344
1772789181245969200,22.58496923828125,0.061647770139575,-0.029344533232226966,0.11567563985995948
1772789181266002000,22.605001953125,-0.10441782132983207,-0.005619520382210612,-0.007197181495092809
1772789181286035000,22.625034912109374,-0.0727928490102291,0.06631203562356532,-0.051288179090805346
1772789181306068200,22.645068115234373,0.02912204958796501,0.08294394840747117,0.07562193495631217
1772789181326101000,22.66510107421875,0.0038028994143009184,0.03877615924850106,0.0831237254211679
1772789181346134300,22.68513427734375,0.03390577673316002,0.036790099997818466,0.08842829810269176
1772789181366167000,22.7051669921875,-0.17256430583894253,0.07750621433295309,-0.014087671661190689
1772789181386200000,22.725199951171874,-0.12706336838006974,0.06785765763036906,0.01911331780347973
1772789181406233000,22.745233154296876,-0.00509469279050827,0.03632102118134498,0.13047971616219728
1772789181426266000,22.76526611328125,-0.008980009791254996,0.014969021072983741,0.14097553734388202
1772789181446299100,22.785299072265627,-0.11512100165188312,0.00473608861118555,0.10850330054517834
1772789181466332200,22.805332275390626,-0.06043021104335784,-0.0137252315569669,0.17727982658613473
1772789181486365200,22.825365234375,0.06981120285093784,-0.08839863361679016,0.31517299734260884
1772789181506398200,22.845398193359376,-0.059089317828416824,-0.05332235179953277,0.24070662562958894
1772789181526431000,22.865430908203123,-0.09500351177453994,-0.033808015447109936,0.07124737313389777
1772789181546464300,22.88546435546875,0.19644670120775698,0.00922711642012,-0.02626183785125613
1772789181566498000,22.905498046875,0.345068990445137,-0.017381635172665118,0.016073913574963808
1772789181586531000,22.925531005859376,0.2670475931316614,-0.1161497601777315,0.04848272974863648
1772789181606564000,22.945564208984376,0.1096142209291458,-0.09929777490235865,-0.06281162628717721
1772789181626597000,22.96559716796875,0.09348083225190638,-0.0682845047403127,-0.1715967029158026
1772789181646630100,22.985630126953126,0.06861585558652877,-0.03726663146838546,-0.1381420309510082
1772789181666663200,23.0056630859375,-0.02601940739750862,-0.05566518859863281,0.020579992822557687
1772789181686696000,23.025696044921876,-0.11267594658732413,-0.08385697159916163,0.06544022122509777
1772789181706729200,23.045729248046875,-0.020297522619366643,-0.13670702971182763,0.004541077495738863
1772789181726762000,23.065761962890626,0.11205343077480792,-0.16161043869145214,0.009493731467053294
1772789181746795300,23.085795166015625,0.027591186758875844,-0.11315825021155178,0.020578823778778312
1772789181766828000,23.105828125,-0.0016559505134820937,-0.05478292587138712,0.021083193104341626
1772789181786861000,23.125861083984375,-0.09675298579037189,0.009338394774869084,-0.10343085611909628
1772789181806894000,23.14589404296875,-0.17597031489014625,0.0845177735954523,-0.17195596468225122
1772789181826927000,23.165927001953126,-0.04647358188331127,0.08185973336733877,-0.16818609075471758
1772789181846960000,23.185960205078125,0.012855389919877051,0.09045958473458886,0.05095394216775894
1772789181866993200,23.2059931640625,0.12392097870111465,0.05384856763072311,0.16039821335747836
1772789181887026200,23.226026123046875,0.016627309674024583,0.05623385533206165,0.191976277795434
1772789181907059200,23.24605908203125,-0.011758242332935332,-0.10041194668933749,0.08756064842268824
1772789181927092000,23.266092041015625,-0.16262977180182933,0.0030183249078691004,-0.032591625394672155
1772789181947125200,23.286125244140624,-0.10095686722099781,0.06715674281939864,0.024399112719297407
1772789181967158000,23.306157958984375,0.07896013946831226,0.04332081694081425,0.024248817528411744
1772789181987191300,23.32619140625,0.02484334935545921,0.06258833892531693,0.0052806438166648146
1772789182007224000,23.34622412109375,-0.06748012955486773,0.11658186798468231,-0.12010397769622504
1772789182027257000,23.366257080078125,-0.13206395314633845,0.08879691221937537,-0.1985516375977546
1772789182047291100,23.386291015625,-0.11442366703748702,0.07212291385941207,-0.05397526275031268
1772789182067324200,23.40632421875,0.007713350856304168,0.11322948881685733,0.0699682931087911
1772789182087357000,23.42635693359375,-0.1859445964157581,0.10442023248262702,0.046520197504013774
1772789182107390200,23.44639013671875,-0.18680325907170772,0.0698838296957314,-0.015092793583124875
1772789182127423000,23.466423095703124,-0.09717267250716685,0.0509442244913429,-0.08490012397654353
1772789182147456300,23.486456298828124,0.007673018845915794,0.07495061156600713,0.02013480633832514
1772789182167489000,23.506489013671874,0.11695289325416088,0.018727862149849533,0.04918839379996061
1772789182187522000,23.52652197265625,0.3265262025386095,-0.051728872063010925,0.1219474136058241
1772789182207555000,23.54655517578125,0.2558960845202207,-0.039404885606095195,0.06885280614756047
1772789182227588000,23.566588134765624,0.19638240379989147,-0.047598859586194156,-0.08679492474719881
1772789182247621000,23.58662109375,0.05923778638839721,-0.16980068634450435,0.026002017871290445
1772789182267654100,23.606654052734374,0.08053951761424541,-0.13801372839622197,0.28639607139788564
1772789182287687400,23.6266875,0.21584230655133724,-0.10214914574548602,0.2933632800620049
1772789182307720400,23.646720458984376,0.055898412832617754,-0.20375724341683088,0.34392902662977576
1772789182327753500,23.66675341796875,-0.09243219998180865,-0.07206621523611247,0.234741798941046
1772789182347786500,23.686786376953126,-0.2762579045474529,-0.011370850450545549,0.19168642800338564
1772789182367819500,23.706819580078125,-0.40270986303091044,0.02718070626184344,0.052636488427221774
1772789182387852500,23.7268525390625,-0.2012216605246067,0.1355605630904436,-0.04753448911309242
1772789182407885600,23.746885498046876,-0.07482756970822811,0.1414100928362459,0.029920798750221727
1772789182427918300,23.76691845703125,-0.3354974445015192,0.15816731250025332,-0.083250603203848
1772789182447951600,23.78695166015625,-0.46680736441016196,0.18985833579339087,-0.1934418933685869
1772789182467984400,23.806984375,-0.33763737913966174,0.1938902947232127,-0.23180764518529176
1772789182488017700,23.827017578125,-0.1988864955753088,0.22479593979232013,-0.19191548751890658
1772789182508050400,23.847050537109375,0.06267945127487182,0.06648256988488137,-0.14282624324448406
1772789182528084500,23.86708447265625,0.1583043098181486,0.004797536474838853,-0.20165501044057307
1772789182548117800,23.88711767578125,0.05376256984770297,0.012458864882960915,-0.13460888838879764
1772789182568150500,23.907150634765625,-0.02210369525849819,-0.010140285742282866,-0.2032989051900804
1772789182588183600,23.92718359375,-0.004142506632208824,0.047405090579763054,-0.19694924390241503
1772789182608216600,23.947216552734375,0.000019289222359657286,0.027404797341302037,-0.13949958303980528
1772789182628249600,23.96724951171875,0.4127554562270641,-0.026378669163957237,0.16913725399971008
1772789182648282600,23.98728271484375,0.27068273476362226,-0.07230586921088397,0.28990166836604475
1772789182668315400,24.0073154296875,-0.14154197558760642,-0.08105762320421636,0.1607811482604593
1772789182688348400,24.027348388671875,-0.10455343040823936,-0.05163929408341646,0.1006477282065898
1772789182708381400,24.04738134765625,0.1311041682034731,-0.07362871531248093,0.21568229368403552
1772789182728414500,24.06741455078125,0.086622052398324,-0.039383039100468156,0.36603323334492743
1772789182748447500,24.087447509765624,-0.1389239020437002,-0.001670636625960469,0.2630600578654557
1772789182768480500,24.10748046875,-0.14959844079315662,0.0729797498844564,0.21116642369478938
1772789182788513500,24.127513427734375,-0.19255203185677527,0.0927139395326376,0.14323263208828865
1772789182808546600,24.147546630859374,-0.13648527671992777,0.09392287693098186,0.0516618712414056
1772789182828579300,24.167579345703125,-0.014452888244390488,0.032628304143249985,0.08383088730983436
1772789182848612600,24.187612548828124,0.0201817872852087,-0.03194762840270996,0.09991400710456072
1772789182868645400,24.207645263671875,-0.033661446583271026,-0.041608167804032564,0.10387940360419451
1772789182888678700,24.2276787109375,-0.09760054253041743,-0.023771409275010227,0.032002208134159445
1772789182908711400,24.24771142578125,0.04214402824640274,-0.04770231996066868,0.003391030677780509
1772789182928744400,24.267744384765624,0.15185060363411904,-0.08863901824392378,-0.0695503599576652
1772789182948777500,24.287777587890623,0.18605390200912952,-0.027723142575472592,-0.1611024891693145
1772789182968811500,24.3078115234375,-0.027223522490262983,0.07887750268615781,-0.20636538008861244
1772789182988844500,24.327844482421874,-0.15252046571969985,0.1680249088436365,-0.3348408072236925
1772789183008877600,24.347877685546877,0.24086802673637867,0.2847087028328329,-0.2974571983121335
