time,seconds_elapsed,z,y,x
1772789816455925000,0.066925048828125,-0.9929351806640625,-0.1831512451171875,0.0436859130859375
1772789816475960000,0.0869599609375,-0.998046875,-0.1766357421875,0.040008544921875
1772789816495995100,0.1069951171875,-0.9903717041015625,-0.1778411865234375,0.0348358154296875
1772789816516030000,0.127030029296875,-0.9909210205078125,-0.1752166748046875,0.021087646484375
1772789816536064800,0.147064697265625,-0.990081787109375,-0.1745452880859375,0.0132904052734375
1772789816556099800,0.167099853515625,-0.9835205078125,-0.174102783203125,0.0210113525390625
1772789816576135000,0.187135009765625,-0.97930908203125,-0.1741790771484375,0.0221405029296875
1772789816596170000,0.207169921875,-0.9864349365234375,-0.174163818359375,0.0181884765625
1772789816616205000,0.227205078125,-0.9834747314453125,-0.1781463623046875,0.0182342529296875
1772789816636240100,0.247240234375,-0.978363037109375,-0.1822052001953125,0.0134735107421875
1772789816656275000,0.26727490234375,-0.972442626953125,-0.1865234375,0.014495849609375
1772789816676309800,0.287309814453125,-0.9692230224609375,-0.1928863525390625,0.0158538818359375
1772789816696344800,0.3073447265625,-0.970428466796875,-0.19482421875,0.0161590576171875
1772789816716380000,0.3273798828125,-0.9736328125,-0.1938323974609375,0.0073394775390625
1772789816736415000,0.3474150390625,-0.969451904296875,-0.1961669921875,-0.000213623046875
1772789816756450000,0.367449951171875,-0.9780120849609375,-0.1947479248046875,-0.0071258544921875
1772789816776484900,0.38748486328125,-0.9812164306640625,-0.1907501220703125,-0.0091552734375
1772789816796520000,0.40752001953125,-0.9805755615234375,-0.1860809326171875,-0.0081634521484375
1772789816816556000,0.42755615234375,-0.9864044189453125,-0.18304443359375,-0.016387939453125
1772789816836591000,0.447591064453125,-0.986785888671875,-0.180328369140625,-0.0142364501953125
1772789816856626000,0.4676259765625,-0.9836883544921875,-0.18109130859375,-0.0016021728515625
1772789816876660700,0.48766064453125,-0.988555908203125,-0.1783447265625,-0.009521484375
1772789816896695800,0.50769580078125,-0.9880523681640625,-0.17156982421875,-0.0006256103515625
1772789816916731000,0.52773095703125,-0.99993896484375,-0.1663665771484375,0.001190185546875
1772789816936766500,0.547766357421875,-0.993499755859375,-0.1654510498046875,-0.0001068115234375
1772789816956801500,0.567801513671875,-0.9966278076171875,-0.160858154296875,0.0038909912109375
1772789816976836000,0.587836181640625,-0.995269775390625,-0.1655120849609375,-0.0006256103515625
1772789816996871200,0.60787109375,-0.9862060546875,-0.1741180419921875,0.006866455078125
1772789817016906200,0.62790625,-0.98779296875,-0.1768035888671875,0.000274658203125
1772789817036941300,0.64794140625,-0.986907958984375,-0.173370361328125,0.00091552734375
1772789817056976400,0.667976318359375,-0.9940948486328125,-0.170257568359375,-0.0033721923828125
1772789817077011500,0.688011474609375,-0.992340087890625,-0.1711578369140625,-0.008544921875
1772789817097046300,0.70804638671875,-0.99298095703125,-0.1704864501953125,-0.0088348388671875
1772789817117081300,0.728081298828125,-0.9818572998046875,-0.1692657470703125,0.0007171630859375
1772789817137116400,0.748116455078125,-0.985260009765625,-0.171417236328125,-0.005462646484375
1772789817157151200,0.768151123046875,-0.990264892578125,-0.1707305908203125,0.0010528564453125
1772789817177186300,0.788186279296875,-0.988677978515625,-0.1693572998046875,0.007965087890625
1772789817197221400,0.808221435546875,-0.98797607421875,-0.17327880859375,0.0091552734375
1772789817217256200,0.828256103515625,-0.974884033203125,-0.183258056640625,0.00628662109375
1772789817237291300,0.848291259765625,-0.97979736328125,-0.182647705078125,0.0027008056640625
1772789817257326300,0.868326416015625,-0.9779815673828125,-0.17913818359375,0.018341064453125
1772789817277362400,0.888362548828125,-0.9793243408203125,-0.1788787841796875,0.020172119140625
1772789817297397200,0.908397216796875,-0.983367919921875,-0.1778106689453125,0.021484375
1772789817317432300,0.928432373046875,-0.999969482421875,-0.167144775390625,0.0145721435546875
1772789817337467400,0.94846728515625,-0.998565673828125,-0.1623992919921875,0.00640869140625
1772789817357502200,0.968502197265625,-0.9965972900390625,-0.1576995849609375,0.0076446533203125
1772789817377537300,0.988537353515625,-0.984405517578125,-0.1617584228515625,0.01336669921875
1772789817397572400,1.008572265625,-0.9868011474609375,-0.166473388671875,0.0015106201171875
1772789817417607400,1.028607421875,-0.9905853271484375,-0.169830322265625,-0.007720947265625
1772789817437642200,1.048642333984375,-0.9848175048828125,-0.1719970703125,-0.0130157470703125
1772789817457677300,1.06867724609375,-0.9931488037109375,-0.1685638427734375,-0.014007568359375
1772789817477712400,1.08871240234375,-0.992828369140625,-0.1589508056640625,-0.0153961181640625
1772789817497747500,1.10874755859375,-0.983917236328125,-0.1708984375,-0.0287933349609375
1772789817517782300,1.1287822265625,-0.965789794921875,-0.18255615234375,-0.0352325439453125
1772789817537817300,1.1488173828125,-0.962921142578125,-0.1806182861328125,-0.0331878662109375
1772789817557852200,1.16885205078125,-0.9770355224609375,-0.175262451171875,-0.0297393798828125
1772789817577887200,1.18888720703125,-0.9820709228515625,-0.1782379150390625,-0.0286865234375
1772789817597922300,1.20892236328125,-0.9813385009765625,-0.1792449951171875,-0.0211944580078125
1772789817617957400,1.228957275390625,-0.977630615234375,-0.1813507080078125,-0.025665283203125
1772789817637992400,1.248992431640625,-0.9796295166015625,-0.17718505859375,-0.03607177734375
1772789817658027500,1.269027587890625,-0.9767913818359375,-0.17572021484375,-0.0362396240234375
1772789817678062000,1.28906201171875,-0.9760589599609375,-0.1759796142578125,-0.0296630859375
1772789817698097200,1.30909716796875,-0.9774322509765625,-0.179901123046875,-0.0352935791015625
1772789817718133200,1.32913330078125,-0.979583740234375,-0.1759185791015625,-0.0327606201171875
1772789817738168300,1.349168212890625,-0.9828033447265625,-0.1625823974609375,-0.0360107421875
1772789817758203400,1.369203369140625,-0.9844818115234375,-0.1632080078125,-0.0388031005859375
1772789817778238200,1.38923828125,-0.973358154296875,-0.169891357421875,-0.04620361328125
1772789817798273300,1.409273193359375,-0.97515869140625,-0.165069580078125,-0.0516815185546875
1772789817818308400,1.429308349609375,-0.9895477294921875,-0.150787353515625,-0.0587615966796875
1772789817838343400,1.449343505859375,-0.9887847900390625,-0.150360107421875,-0.0563507080078125
1772789817858378500,1.46937841796875,-0.9910736083984375,-0.1395416259765625,-0.0501251220703125
1772789817878413300,1.489413330078125,-1.0096435546875,-0.1211395263671875,-0.039947509765625
1772789817898448100,1.5094482421875,-1.0111846923828125,-0.1326446533203125,-0.0391082763671875
1772789817918483200,1.529483154296875,-0.98614501953125,-0.1513671875,-0.044097900390625
1772789817938518000,1.54951806640625,-0.96728515625,-0.165557861328125,-0.047332763671875
1772789817958553000,1.569552978515625,-0.9821319580078125,-0.1551361083984375,-0.04925537109375
1772789817978588200,1.589588134765625,-0.998321533203125,-0.15045166015625,-0.05657958984375
1772789817998623200,1.609623291015625,-0.99383544921875,-0.15692138671875,-0.0589599609375
1772789818018658000,1.629657958984375,-0.992034912109375,-0.1515350341796875,-0.069793701171875
1772789818038692900,1.64969287109375,-0.9849700927734375,-0.1434173583984375,-0.0709075927734375
1772789818058728000,1.66972802734375,-1.010833740234375,-0.1193084716796875,-0.065460205078125
1772789818078763000,1.689762939453125,-1.0204925537109375,-0.1291961669921875,-0.0740203857421875
1772789818098798000,1.709798095703125,-0.9920654296875,-0.14288330078125,-0.0821075439453125
1772789818118833200,1.729833251953125,-0.97381591796875,-0.1559600830078125,-0.0803375244140625
1772789818138868000,1.749867919921875,-0.98565673828125,-0.1473236083984375,-0.0708160400390625
1772789818158903000,1.769903076171875,-1.0098876953125,-0.1338043212890625,-0.075347900390625
1772789818178937900,1.789937744140625,-1.0041046142578125,-0.1344146728515625,-0.06158447265625
1772789818198974200,1.80997412109375,-0.9982757568359375,-0.144500732421875,-0.05303955078125
1772789818219009000,1.830009033203125,-0.997802734375,-0.1464385986328125,-0.0537567138671875
1772789818239043800,1.8500439453125,-0.9998626708984375,-0.1417694091796875,-0.04998779296875
1772789818259079000,1.870078857421875,-0.998199462890625,-0.136993408203125,-0.0433807373046875
1772789818279114000,1.890114013671875,-0.992523193359375,-0.1371002197265625,-0.0384368896484375
1772789818299149000,1.910149169921875,-0.9948577880859375,-0.13397216796875,-0.0258026123046875
1772789818319184100,1.93018408203125,-0.9984588623046875,-0.135711669921875,-0.0273284912109375
1772789818339219200,1.95021923828125,-0.9794464111328125,-0.151153564453125,-0.027252197265625
1772789818359254000,1.97025390625,-0.9801483154296875,-0.149810791015625,-0.0294342041015625
1772789818379288800,1.990288818359375,-0.9864654541015625,-0.1417388916015625,-0.0225982666015625
1772789818399324000,2.010323974609375,-0.9879302978515625,-0.13861083984375,-0.019805908203125
1772789818419359000,2.03035888671875,-0.99053955078125,-0.1359100341796875,-0.0284423828125
1772789818439394000,2.05039404296875,-0.9801788330078125,-0.1405792236328125,-0.032073974609375
1772789818459429000,2.07042919921875,-0.9710845947265625,-0.153045654296875,-0.0409088134765625
1772789818479464000,2.0904638671875,-0.9741058349609375,-0.1522979736328125,-0.03485107421875
1772789818499499000,2.1104990234375,-0.989990234375,-0.136932373046875,-0.0326080322265625
1772789818519534000,2.1305341796875,-1.001708984375,-0.1280059814453125,-0.0393524169921875
1772789818539569200,2.150569091796875,-0.996246337890625,-0.1349334716796875,-0.041961669921875
1772789818559604000,2.17060400390625,-0.985809326171875,-0.1458740234375,-0.0480804443359375
1772789818579639000,2.19063916015625,-0.9831085205078125,-0.1488800048828125,-0.04443359375
1772789818599674000,2.210674072265625,-0.9774932861328125,-0.1494293212890625,-0.0455780029296875
1772789818619709000,2.230708984375,-0.9900665283203125,-0.13641357421875,-0.0401153564453125
1772789818639745000,2.2507451171875,-1.0046539306640625,-0.136322021484375,-0.0485687255859375
1772789818659780000,2.270780029296875,-0.9988555908203125,-0.13885498046875,-0.0525360107421875
1772789818679815200,2.290815185546875,-1.0007171630859375,-0.1402435302734375,-0.0537109375
1772789818699850000,2.31085009765625,-0.993316650390625,-0.1424713134765625,-0.0479736328125
1772789818719885000,2.330885009765625,-0.9840240478515625,-0.1493988037109375,-0.0432281494140625
1772789818739920100,2.350920166015625,-0.9902191162109375,-0.1461639404296875,-0.03826904296875
1772789818759955000,2.370954833984375,-0.9994659423828125,-0.143218994140625,-0.0506439208984375
1772789818779990000,2.390989990234375,-0.9953765869140625,-0.1432342529296875,-0.0533294677734375
1772789818800025000,2.411025146484375,-0.98345947265625,-0.146392822265625,-0.0620880126953125
1772789818820060000,2.431059814453125,-0.982025146484375,-0.1497650146484375,-0.0662994384765625
1772789818840095000,2.451094970703125,-0.9820404052734375,-0.150787353515625,-0.0696258544921875
1772789818860130000,2.471130126953125,-0.978118896484375,-0.156463623046875,-0.0718536376953125
1772789818880165000,2.4911650390625,-0.9704437255859375,-0.1585235595703125,-0.070098876953125
1772789818900200200,2.5112001953125,-0.98052978515625,-0.153167724609375,-0.066925048828125
1772789818920235000,2.531235107421875,-0.99688720703125,-0.14813232421875,-0.06964111328125
1772789818940270300,2.551270263671875,-1.0051116943359375,-0.14129638671875,-0.066009521484375
1772789818960305400,2.571305419921875,-1.007843017578125,-0.1346893310546875,-0.0626373291015625
1772789818980340500,2.591340576171875,-1.003082275390625,-0.1345977783203125,-0.0504608154296875
1772789819000375600,2.61137548828125,-1.001739501953125,-0.136474609375,-0.0511627197265625
1772789819020410400,2.631410400390625,-1.0029754638671875,-0.1299896240234375,-0.04754638671875
1772789819040445400,2.651445556640625,-0.992828369140625,-0.1319732666015625,-0.04290771484375
1772789819060481300,2.671481201171875,-0.9776458740234375,-0.142425537109375,-0.0323944091796875
1772789819080516400,2.691516357421875,-0.977325439453125,-0.1387786865234375,-0.0162506103515625
1772789819100551400,2.711551513671875,-0.988922119140625,-0.13494873046875,-0.01763916015625
1772789819120586500,2.73158642578125,-0.98919677734375,-0.1368408203125,-0.0205078125
1772789819140621300,2.751621337890625,-0.9876708984375,-0.1390380859375,-0.0144195556640625
1772789819160656400,2.771656494140625,-0.9878997802734375,-0.1436920166015625,-0.0202178955078125
1772789819180691500,2.79169140625,-0.9944915771484375,-0.141143798828125,-0.0179901123046875
1772789819200726500,2.8117265625,-0.997161865234375,-0.1392059326171875,-0.019439697265625
1772789819220761300,2.83176123046875,-0.995452880859375,-0.138702392578125,-0.018341064453125
1772789819240796400,2.85179638671875,-0.9938812255859375,-0.145782470703125,-0.0162200927734375
1772789819260831200,2.871831298828125,-0.9907684326171875,-0.1506195068359375,-0.0183868408203125
1772789819280866300,2.8918662109375,-0.987518310546875,-0.1560211181640625,-0.0279541015625
1772789819300901400,2.9119013671875,-0.976104736328125,-0.1635589599609375,-0.0344696044921875
1772789819320936400,2.9319365234375,-0.9775238037109375,-0.16351318359375,-0.0369720458984375
1772789819340971500,2.951971435546875,-0.9902191162109375,-0.1573028564453125,-0.03131103515625
1772789819361006600,2.972006591796875,-0.986175537109375,-0.1605682373046875,-0.032470703125
1772789819381041400,2.99204150390625,-0.9797821044921875,-0.16558837890625,-0.03106689453125
1772789819401076200,3.012076171875,-0.9823760986328125,-0.16644287109375,-0.040008544921875
1772789819421111300,3.032111328125,-0.9873504638671875,-0.1581878662109375,-0.0357208251953125
1772789819441146400,3.052146484375,-0.98541259765625,-0.155426025390625,-0.044219970703125
1772789819461182500,3.072182373046875,-0.987213134765625,-0.1546173095703125,-0.04864501953125
1772789819481217300,3.09221728515625,-0.989959716796875,-0.1525726318359375,-0.0415802001953125
1772789819501252400,3.11225244140625,-0.99334716796875,-0.1541748046875,-0.045745849609375
1772789819521287400,3.132287353515625,-0.987945556640625,-0.15972900390625,-0.05426025390625
1772789819541322500,3.152322509765625,-0.9880218505859375,-0.1550140380859375,-0.052490234375
1772789819561357600,3.172357666015625,-0.9970703125,-0.1517181396484375,-0.051788330078125
1772789819581392400,3.192392333984375,-0.9961090087890625,-0.153472900390625,-0.0489501953125
1772789819601427200,3.21242724609375,-0.9949951171875,-0.154052734375,-0.0474853515625
1772789819621462300,3.232462158203125,-0.99102783203125,-0.1588287353515625,-0.044769287109375
1772789819641497300,3.252497314453125,-0.9871826171875,-0.159454345703125,-0.036895751953125
1772789819661532400,3.272532470703125,-0.988922119140625,-0.15496826171875,-0.033477783203125
1772789819681567500,3.2925673828125,-0.989044189453125,-0.1534271240234375,-0.0372314453125
1772789819701602600,3.3126025390625,-0.9790191650390625,-0.1579742431640625,-0.0413055419921875
1772789819721637400,3.332637451171875,-0.98089599609375,-0.160675048828125,-0.037353515625
1772789819741672400,3.35267236328125,-0.974090576171875,-0.165557861328125,-0.0379638671875
1772789819761707300,3.372707275390625,-0.977142333984375,-0.16204833984375,-0.034271240234375
1772789819781742300,3.392742431640625,-0.9896392822265625,-0.15863037109375,-0.0394439697265625
1772789819801777400,3.41277734375,-0.995086669921875,-0.152557373046875,-0.0426483154296875
1772789819821812500,3.4328125,-1.0062255859375,-0.1448822021484375,-0.0452117919921875
1772789819841848300,3.452848388671875,-1.0041351318359375,-0.142608642578125,-0.0468597412109375
1772789819861883400,3.47288330078125,-0.9986572265625,-0.152740478515625,-0.0499267578125
1772789819881918500,3.49291845703125,-0.993560791015625,-0.157623291015625,-0.049774169921875
1772789819901953500,3.51295361328125,-0.983612060546875,-0.1600494384765625,-0.044921875
1772789819921988600,3.532988525390625,-0.975830078125,-0.1662750244140625,-0.05145263671875
1772789819942023200,3.553023193359375,-0.977813720703125,-0.1628265380859375,-0.0493011474609375
1772789819962058200,3.573058349609375,-0.9855499267578125,-0.1561737060546875,-0.049072265625
1772789819982093300,3.59309326171875,-0.9922027587890625,-0.154571533203125,-0.056121826171875
1772789820002128400,3.61312841796875,-0.9955291748046875,-0.15338134765625,-0.0580596923828125
1772789820022163500,3.63316357421875,-0.9991302490234375,-0.1493682861328125,-0.0539093017578125
1772789820042198300,3.6531982421875,-0.9937286376953125,-0.15594482421875,-0.0428619384765625
1772789820062233000,3.673233154296875,-0.9879302978515625,-0.16143798828125,-0.031951904296875
1772789820082268200,3.69326806640625,-0.9815673828125,-0.1617431640625,-0.0270843505859375
1772789820102303200,3.71330322265625,-0.9820709228515625,-0.165679931640625,-0.0374755859375
1772789820122338300,3.73333837890625,-0.9748992919921875,-0.165985107421875,-0.0357513427734375
1772789820142373400,3.753373291015625,-0.9776763916015625,-0.1636962890625,-0.040496826171875
1772789820162408400,3.773408447265625,-0.977203369140625,-0.160369873046875,-0.0415802001953125
1772789820182443300,3.793443359375,-0.987396240234375,-0.15643310546875,-0.0424652099609375
1772789820202479400,3.813479248046875,-0.990020751953125,-0.158538818359375,-0.050750732421875
1772789820222514400,3.833514404296875,-0.9857330322265625,-0.1572418212890625,-0.0496826171875
1772789820242549200,3.85354931640625,-0.983428955078125,-0.1615753173828125,-0.057403564453125
1772789820262584300,3.873584228515625,-0.9814300537109375,-0.1648406982421875,-0.0549468994140625
1772789820282619100,3.893619140625,-0.991424560546875,-0.1623382568359375,-0.056610107421875
1772789820302654200,3.913654296875,-0.9917449951171875,-0.158416748046875,-0.0493621826171875
1772789820322689300,3.933689208984375,-0.9905853271484375,-0.1611175537109375,-0.0558929443359375
1772789820342724400,3.953724365234375,-0.9944915771484375,-0.1589508056640625,-0.055145263671875
1772789820362759400,3.973759521484375,-0.99786376953125,-0.1624755859375,-0.0503082275390625
1772789820382790400,3.993790283203125,-0.996337890625,-0.1615447998046875,-0.0463409423828125
1772789820402825500,4.013825439453125,-0.9925537109375,-0.1576385498046875,-0.039215087890625
1772789820422861300,4.033861328125,-0.993988037109375,-0.1613006591796875,-0.0455322265625
1772789820442896400,4.053896484375,-0.99285888671875,-0.1655731201171875,-0.04132080078125
1772789820462931200,4.07393115234375,-0.9849853515625,-0.1647796630859375,-0.0423583984375
1772789820482966300,4.09396630859375,-0.981597900390625,-0.160675048828125,-0.0391845703125
1772789820503001000,4.1140009765625,-0.9892120361328125,-0.1529998779296875,-0.0396881103515625
1772789820523036200,4.1340361328125,-0.9849700927734375,-0.1605224609375,-0.045806884765625
1772789820543071200,4.1540712890625,-0.9757232666015625,-0.1614532470703125,-0.0447235107421875
1772789820563106300,4.174106201171875,-0.968170166015625,-0.1643218994140625,-0.0459136962890625
1772789820583141400,4.194141357421875,-0.970367431640625,-0.16351318359375,-0.0432281494140625
1772789820603176400,4.214176513671875,-0.97662353515625,-0.1610260009765625,-0.0374298095703125
1772789820623211300,4.234211181640625,-0.981170654296875,-0.161956787109375,-0.039520263671875
1772789820643246000,4.25424609375,-0.997222900390625,-0.15899658203125,-0.028411865234375
1772789820663281200,4.27428125,-1.0128173828125,-0.152130126953125,-0.0221099853515625
1772789820683316200,4.294316162109375,-1.0060882568359375,-0.158538818359375,-0.0211334228515625
1772789820703351300,4.314351318359375,-0.9900970458984375,-0.1688385009765625,-0.0250396728515625
1772789820723386400,4.334386474609375,-0.9866485595703125,-0.1639556884765625,-0.0247650146484375
1772789820743421400,4.35442138671875,-0.99029541015625,-0.1586761474609375,-0.0257720947265625
1772789820763456300,4.374456298828125,-0.9901275634765625,-0.16387939453125,-0.03997802734375
1772789820783492400,4.394492431640625,-0.977264404296875,-0.1725006103515625,-0.055999755859375
1772789820803530200,4.4145302734375,-0.974761962890625,-0.177825927734375,-0.0623321533203125
1772789820823565300,4.4345654296875,-0.981353759765625,-0.1715240478515625,-0.0674896240234375
1772789820843600400,4.454600341796875,-0.9917144775390625,-0.16455078125,-0.0758819580078125
1772789820863635200,4.47463525390625,-0.9890289306640625,-0.158660888671875,-0.066162109375
1772789820883670300,4.494670166015625,-0.9924163818359375,-0.1574249267578125,-0.05963134765625
1772789820903706400,4.514706298828125,-0.976776123046875,-0.1628570556640625,-0.054351806640625
1772789820923741400,4.534741455078125,-0.9649505615234375,-0.167938232421875,-0.037811279296875
1772789820943776000,4.55477587890625,-0.9561309814453125,-0.1724395751953125,-0.0306549072265625
1772789820963810600,4.574810546875,-0.9560546875,-0.1856842041015625,-0.030059814453125
1772789820983845600,4.594845703125,-0.9526214599609375,-0.1946563720703125,-0.0409088134765625
1772789821003880700,4.614880615234375,-0.95458984375,-0.1938323974609375,-0.054046630859375
1772789821023915800,4.634915771484375,-0.9647064208984375,-0.181976318359375,-0.062713623046875
1772789821043950800,4.654950927734375,-1.00360107421875,-0.1547393798828125,-0.0615692138671875
1772789821063986000,4.67498583984375,-1.0164337158203125,-0.1398162841796875,-0.0681610107421875
1772789821084020700,4.695020751953125,-1.0207366943359375,-0.133544921875,-0.06817626953125
1772789821104055800,4.715055908203125,-1.0235137939453125,-0.1402130126953125,-0.071746826171875
1772789821124090600,4.735090576171875,-1.0299224853515625,-0.13421630859375,-0.066619873046875
1772789821144125700,4.755125732421875,-1.0333099365234375,-0.1233978271484375,-0.056610107421875
1772789821164160800,4.775160888671875,-1.01495361328125,-0.137542724609375,-0.04888916015625
1772789821184195800,4.79519580078125,-0.9859466552734375,-0.159149169921875,-0.0398712158203125
1772789821204231000,4.81523095703125,-0.9698486328125,-0.16790771484375,-0.0323028564453125
1772789821224266800,4.835266845703125,-0.9671630859375,-0.1660614013671875,-0.0207061767578125
1772789821244301800,4.8553017578125,-0.9669189453125,-0.162872314453125,-0.0240478515625
1772789821264337000,4.8753369140625,-0.9667816162109375,-0.1671295166015625,-0.023712158203125
1772789821284372000,4.8953720703125,-0.9646759033203125,-0.175048828125,-0.026611328125
1772789821304406800,4.91540673828125,-0.96746826171875,-0.17388916015625,-0.028839111328125
1772789821324441600,4.935441650390625,-0.97149658203125,-0.168701171875,-0.0349273681640625
1772789821344476700,4.9554765625,-0.9796600341796875,-0.1654510498046875,-0.0510711669921875
1772789821364511700,4.97551171875,-0.9881134033203125,-0.1626129150390625,-0.0626373291015625
1772789821384546800,4.995546875,-0.9951019287109375,-0.1593017578125,-0.062286376953125
1772789821404582000,5.015581787109375,-0.9979400634765625,-0.1563720703125,-0.059906005859375
1772789821424616700,5.03561669921875,-1.0029296875,-0.149261474609375,-0.0550994873046875
1772789821444651800,5.05565185546875,-0.9980010986328125,-0.1514739990234375,-0.0440216064453125
1772789821464686800,5.075686767578125,-0.9761199951171875,-0.1629486083984375,-0.041412353515625
1772789821484721700,5.0957216796875,-0.972747802734375,-0.1609039306640625,-0.040771484375
1772789821504756700,5.1157568359375,-0.9828948974609375,-0.1571197509765625,-0.038726806640625
1772789821524791800,5.135791748046875,-0.9913482666015625,-0.1518096923828125,-0.0317840576171875
1772789821544827600,5.15582763671875,-0.98956298828125,-0.155426025390625,-0.0397796630859375
1772789821564862700,5.17586279296875,-0.9809112548828125,-0.1533203125,-0.041046142578125
1772789821584897800,5.195897705078125,-0.9912872314453125,-0.1485748291015625,-0.0371551513671875
1772789821604932900,5.215932861328125,-0.9979248046875,-0.1448974609375,-0.0337677001953125
1772789821624968000,5.235968017578125,-0.999847412109375,-0.1442413330078125,-0.0352325439453125
1772789821645002800,5.256002685546875,-0.9999237060546875,-0.1407470703125,-0.036102294921875
1772789821665037800,5.276037841796875,-0.9906005859375,-0.145538330078125,-0.035308837890625
1772789821685072600,5.29607275390625,-0.979949951171875,-0.1561431884765625,-0.042572021484375
1772789821705107700,5.316107666015625,-0.9814453125,-0.15118408203125,-0.03692626953125
1772789821725142800,5.336142822265625,-0.9871673583984375,-0.1492156982421875,-0.040771484375
1772789821745177900,5.356177734375,-0.994964599609375,-0.1470794677734375,-0.0416107177734375
1772789821765212700,5.376212646484375,-1.0020294189453125,-0.1488189697265625,-0.03961181640625
1772789821785247700,5.396247802734375,-0.9967498779296875,-0.149688720703125,-0.0345458984375
1772789821805282800,5.41628271484375,-0.998199462890625,-0.1505584716796875,-0.0362548828125
1772789821825318000,5.43631787109375,-1.0001983642578125,-0.14892578125,-0.046539306640625
1772789821845353000,5.45635302734375,-0.9971771240234375,-0.14068603515625,-0.0430450439453125
1772789821865388800,5.476388916015625,-0.99334716796875,-0.139923095703125,-0.0353546142578125
1772789821885423600,5.496423583984375,-0.986083984375,-0.1454925537109375,-0.036590576171875
1772789821905458700,5.516458740234375,-0.9860382080078125,-0.1441650390625,-0.040557861328125
1772789821925493800,5.53649365234375,-0.9850616455078125,-0.14031982421875,-0.042449951171875
1772789821945529600,5.556529541015625,-0.9828033447265625,-0.1410980224609375,-0.04052734375
1772789821965564700,5.576564697265625,-0.9831085205078125,-0.1492919921875,-0.0403900146484375
1772789821985599700,5.596599853515625,-0.9782562255859375,-0.1497955322265625,-0.04376220703125
1772789822005634600,5.616634521484375,-0.9873504638671875,-0.140594482421875,-0.043975830078125
1772789822025669600,5.636669677734375,-1.00408935546875,-0.12841796875,-0.043304443359375
1772789822045704700,5.65670458984375,-1.0037689208984375,-0.13275146484375,-0.04180908203125
1772789822065739500,5.676739501953125,-0.9962921142578125,-0.1356658935546875,-0.0349884033203125
1772789822085774600,5.696774658203125,-0.9915008544921875,-0.1431121826171875,-0.03118896484375
1772789822105809700,5.7168095703125,-0.983367919921875,-0.15020751953125,-0.0302276611328125
1772789822125844700,5.7368447265625,-0.975433349609375,-0.15216064453125,-0.03289794921875
1772789822145879800,5.7568798828125,-0.9770050048828125,-0.152130126953125,-0.0353851318359375
1772789822165914600,5.77691455078125,-0.982452392578125,-0.1540985107421875,-0.03985595703125
1772789822185950700,5.79695068359375,-0.99505615234375,-0.1496734619140625,-0.044677734375
1772789822205985500,5.816985595703125,-0.9940643310546875,-0.1448974609375,-0.046234130859375
1772789822226020600,5.8370205078125,-0.9980010986328125,-0.1415557861328125,-0.0481719970703125
1772789822246055700,5.8570556640625,-1.0082550048828125,-0.133087158203125,-0.0509185791015625
1772789822266090800,5.8770908203125,-1.010223388671875,-0.1261444091796875,-0.0518646240234375
1772789822286125600,5.89712548828125,-0.9927825927734375,-0.135772705078125,-0.055023193359375
1772789822306160600,5.91716064453125,-0.9778289794921875,-0.14691162109375,-0.049285888671875
1772789822326195700,5.93719580078125,-0.9725189208984375,-0.151275634765625,-0.0488128662109375
1772789822346230800,5.957230712890625,-0.981170654296875,-0.1442108154296875,-0.037841796875
1772789822366265600,5.977265625,-0.9910430908203125,-0.1356964111328125,-0.0431671142578125
1772789822386300700,5.99730078125,-0.9966888427734375,-0.1380462646484375,-0.0466156005859375
1772789822406335500,6.01733544921875,-0.996368408203125,-0.141021728515625,-0.03985595703125
1772789822426370600,6.03737060546875,-1.0086517333984375,-0.134765625,-0.0336456298828125
1772789822446405600,6.057405517578125,-1.0079498291015625,-0.134490966796875,-0.0315704345703125
1772789822466440700,6.077440673828125,-1.0081787109375,-0.1358184814453125,-0.0304718017578125
1772789822486476500,6.0974765625,-1.001373291015625,-0.1388702392578125,-0.0348663330078125
1772789822506511600,6.11751171875,-0.988250732421875,-0.1463470458984375,-0.041656494140625
1772789822526546700,6.137546630859375,-0.9826812744140625,-0.1446990966796875,-0.0438385009765625
1772789822546581800,6.157581787109375,-0.983306884765625,-0.138458251953125,-0.0467376708984375
1772789822566616600,6.177616455078125,-0.9805755615234375,-0.1373748779296875,-0.0482940673828125
1772789822586651600,6.197651611328125,-0.9776611328125,-0.1446685791015625,-0.0518341064453125
1772789822606686700,6.217686767578125,-0.9736175537109375,-0.1478424072265625,-0.052337646484375
1772789822626721500,6.237721435546875,-0.9824066162109375,-0.146331787109375,-0.0524749755859375
1772789822646756600,6.257756591796875,-0.9859161376953125,-0.1430206298828125,-0.0505218505859375
1772789822666791700,6.277791748046875,-0.9960174560546875,-0.1382598876953125,-0.0377349853515625
1772789822686826800,6.29782666015625,-1.010711669921875,-0.1407012939453125,-0.0418701171875
1772789822706861800,6.31786181640625,-1.0181884765625,-0.139007568359375,-0.0384521484375
1772789822726896600,6.337896728515625,-1.0114593505859375,-0.13726806640625,-0.03656005859375
1772789822746931500,6.357931396484375,-1.0029296875,-0.1424102783203125,-0.0287933349609375
1772789822766967600,6.377967529296875,-0.999786376953125,-0.143890380859375,-0.025390625
1772789822787002600,6.398002685546875,-0.9835052490234375,-0.1528472900390625,-0.0292816162109375
1772789822807037700,6.41803759765625,-0.96044921875,-0.1661834716796875,-0.0338592529296875
1772789822827072500,6.438072509765625,-0.95489501953125,-0.171875,-0.03363037109375
1772789822847107600,6.458107666015625,-0.975860595703125,-0.1537933349609375,-0.032623291015625
1772789822867142700,6.478142578125,-0.99774169921875,-0.1456756591796875,-0.0406036376953125
1772789822887177700,6.498177734375,-0.9964752197265625,-0.1519775390625,-0.0506134033203125
1772789822907212800,6.518212890625,-0.99114990234375,-0.15838623046875,-0.050628662109375
1772789822927248000,6.538247802734375,-0.9901885986328125,-0.15533447265625,-0.044769287109375
1772789822947282000,6.558281982421875,-0.9990386962890625,-0.1533660888671875,-0.0390167236328125
1772789822967317000,6.57831689453125,-0.994171142578125,-0.1641845703125,-0.0373382568359375
1772789822987351800,6.598351806640625,-0.98529052734375,-0.1709442138671875,-0.0366058349609375
1772789823007387000,6.618386962890625,-0.9884033203125,-0.167877197265625,-0.0357208251953125
1772789823027422000,6.638421875,-0.999755859375,-0.15985107421875,-0.028900146484375
1772789823047457000,6.65845703125,-1.00103759765625,-0.1596221923828125,-0.0333251953125
1772789823067492900,6.678492919921875,-0.9872589111328125,-0.169189453125,-0.03515625
1772789823087528000,6.69852783203125,-0.9846343994140625,-0.1670684814453125,-0.0384063720703125
1772789823107562800,6.718562744140625,-0.976654052734375,-0.1663818359375,-0.044036865234375
1772789823127597800,6.738597900390625,-0.9738616943359375,-0.1641082763671875,-0.0409393310546875
1772789823147633000,6.7586328125,-0.9726104736328125,-0.16156005859375,-0.03778076171875
1772789823167668000,6.77866796875,-0.9615325927734375,-0.1667022705078125,-0.0335540771484375
1772789823187702800,6.798702880859375,-0.9574737548828125,-0.172454833984375,-0.0386505126953125
1772789823207737900,6.81873779296875,-0.9624176025390625,-0.176055908203125,-0.044342041015625
1772789823227773000,6.83877294921875,-0.9700164794921875,-0.1776885986328125,-0.04022216796875
1772789823247808000,6.85880810546875,-0.9860076904296875,-0.1707305908203125,-0.0437469482421875
1772789823267843000,6.878843017578125,-0.998779296875,-0.16473388671875,-0.0423583984375
1772789823287878000,6.8988779296875,-0.99871826171875,-0.16741943359375,-0.0403900146484375
1772789823307912700,6.91891259765625,-1.000762939453125,-0.166961669921875,-0.04217529296875
1772789823327947800,6.93894775390625,-1.0008544921875,-0.169586181640625,-0.04449462890625
1772789823347984000,6.95898388671875,-0.995941162109375,-0.1678466796875,-0.038848876953125
1772789823368019000,6.97901904296875,-0.99871826171875,-0.1683197021484375,-0.0410919189453125
1772789823388054000,6.999053955078125,-0.9940948486328125,-0.1664276123046875,-0.0347442626953125
1772789823408088800,7.0190888671875,-0.9886932373046875,-0.1671295166015625,-0.03631591796875
1772789823428124000,7.0391240234375,-0.982452392578125,-0.167510986328125,-0.0294647216796875
1772789823448159000,7.059158935546875,-0.9719390869140625,-0.1763763427734375,-0.041412353515625
1772789823468194000,7.079194091796875,-0.9681243896484375,-0.1772918701171875,-0.04248046875
1772789823488228900,7.099228759765625,-0.964324951171875,-0.175994873046875,-0.0408477783203125
1772789823508264000,7.119263916015625,-0.9647674560546875,-0.1713409423828125,-0.037872314453125
1772789823528298800,7.139298828125,-0.979156494140625,-0.1699981689453125,-0.0422515869140625
1772789823548333800,7.159333740234375,-0.9912261962890625,-0.1647491455078125,-0.0369873046875
1772789823568369000,7.179368896484375,-0.9939727783203125,-0.16943359375,-0.0348663330078125
1772789823588404000,7.199404052734375,-1.0007781982421875,-0.1696319580078125,-0.028778076171875
1772789823608439800,7.219439697265625,-0.998992919921875,-0.1696624755859375,-0.025665283203125
1772789823628475000,7.239474853515625,-0.998931884765625,-0.1692962646484375,-0.0196380615234375
1772789823648510000,7.259510009765625,-0.9926605224609375,-0.1705169677734375,-0.0264434814453125
1772789823668545000,7.279544921875,-0.9940185546875,-0.16748046875,-0.027374267578125
1772789823688579800,7.299579833984375,-0.9972686767578125,-0.1668701171875,-0.0315399169921875
1772789823708615000,7.319614990234375,-0.98870849609375,-0.1685638427734375,-0.035186767578125
1772789823728649700,7.339649658203125,-0.9879608154296875,-0.1676177978515625,-0.0408172607421875
1772789823748684800,7.359684814453125,-0.97918701171875,-0.1716766357421875,-0.0444793701171875
1772789823768720000,7.379719970703125,-0.9740142822265625,-0.1721954345703125,-0.0453643798828125
1772789823788755000,7.3997548828125,-0.9776763916015625,-0.1684722900390625,-0.039581298828125
1772789823808790000,7.4197900390625,-0.980255126953125,-0.164947509765625,-0.04052734375
1772789823828825000,7.4398251953125,-0.9858856201171875,-0.1676788330078125,-0.0435943603515625
1772789823848860000,7.45985986328125,-0.9878082275390625,-0.1654205322265625,-0.04107666015625
1772789823868896000,7.47989599609375,-0.9868316650390625,-0.1651763916015625,-0.0379180908203125
1772789823888930800,7.499930908203125,-0.9850616455078125,-0.17041015625,-0.0371551513671875
1772789823908966000,7.5199658203125,-0.9854278564453125,-0.169281005859375,-0.029632568359375
1772789823929001000,7.5400009765625,-0.98175048828125,-0.173370361328125,-0.025360107421875
1772789823949035800,7.560035888671875,-0.9857635498046875,-0.1717376708984375,-0.0214996337890625
1772789823969070800,7.58007080078125,-0.991455078125,-0.165435791015625,-0.0226593017578125
1772789823989106000,7.60010595703125,-0.9964447021484375,-0.1627349853515625,-0.023345947265625
1772789824009141000,7.62014111328125,-0.9882659912109375,-0.16485595703125,-0.03253173828125
1772789824029176000,7.640176025390625,-0.980987548828125,-0.1693267822265625,-0.0379791259765625
1772789824049211000,7.6602109375,-0.9766082763671875,-0.1689910888671875,-0.034759521484375
1772789824069245700,7.68024560546875,-0.9718017578125,-0.170684814453125,-0.0362701416015625
1772789824089280800,7.70028076171875,-0.97576904296875,-0.1725921630859375,-0.039459228515625
1772789824109315800,7.72031591796875,-0.983367919921875,-0.1667633056640625,-0.0354766845703125
1772789824129351000,7.740350830078125,-0.9895477294921875,-0.1649627685546875,-0.0324249267578125
1772789824149387000,7.760386962890625,-0.994415283203125,-0.1633453369140625,-0.0363311767578125
1772789824169421800,7.780421875,-0.995330810546875,-0.1668548583984375,-0.0353851318359375
1772789824189457000,7.800456787109375,-0.996978759765625,-0.167999267578125,-0.0323028564453125
1772789824209492000,7.820491943359375,-0.993377685546875,-0.1666717529296875,-0.0261383056640625
1772789824229527000,7.840527099609375,-0.993682861328125,-0.1674041748046875,-0.0292205810546875
1772789824249561900,7.860561767578125,-0.9882965087890625,-0.1703643798828125,-0.0267486572265625
1772789824269597000,7.880596923828125,-0.98980712890625,-0.171539306640625,-0.0300750732421875
1772789824289631700,7.9006318359375,-0.99066162109375,-0.16766357421875,-0.031036376953125
1772789824309666800,7.920666748046875,-0.9892578125,-0.1696624755859375,-0.0323028564453125
1772789824329702000,7.940701904296875,-0.985992431640625,-0.16748046875,-0.0361480712890625
1772789824349737000,7.960737060546875,-0.9850616455078125,-0.166534423828125,-0.043548583984375
1772789824369772000,7.98077197265625,-0.9824676513671875,-0.1668548583984375,-0.0448760986328125
1772789824389803800,8.0008037109375,-0.9820098876953125,-0.1668243408203125,-0.0439605712890625
1772789824409838800,8.0208388671875,-0.971221923828125,-0.1681060791015625,-0.0450286865234375
1772789824429874000,8.0408740234375,-0.9736480712890625,-0.166534423828125,-0.0434722900390625
1772789824449909000,8.060908935546875,-0.976837158203125,-0.1669464111328125,-0.0406341552734375
1772789824469944000,8.080944091796875,-0.9781646728515625,-0.1692657470703125,-0.0338134765625
1772789824489979000,8.100978759765624,-0.9828643798828125,-0.172393798828125,-0.038665771484375
1772789824510013700,8.121013671875,-0.9864501953125,-0.16998291015625,-0.0376434326171875
1772789824530048800,8.141048828125,-0.9882965087890625,-0.1675567626953125,-0.0355987548828125
1772789824550083800,8.161083740234375,-0.99810791015625,-0.165252685546875,-0.03155517578125
1772789824570120000,8.181119873046875,-1.005859375,-0.1605224609375,-0.02935791015625
1772789824590155000,8.201155029296874,-1.0064544677734375,-0.1602325439453125,-0.0294647216796875
1772789824610189800,8.22118994140625,-1.0001678466796875,-0.1632080078125,-0.0259552001953125
1772789824630225000,8.241224853515625,-0.990997314453125,-0.1661224365234375,-0.0308074951171875
1772789824650260000,8.261260009765625,-0.9842529296875,-0.1713714599609375,-0.033905029296875
1772789824670295000,8.281294921875,-0.9808349609375,-0.170562744140625,-0.0298919677734375
1772789824690329900,8.301329833984376,-0.9818115234375,-0.1665802001953125,-0.0367431640625
1772789824710365000,8.321364990234375,-0.9850311279296875,-0.1651763916015625,-0.0400390625
1772789824730399700,8.341399658203125,-0.9798736572265625,-0.1699981689453125,-0.047119140625
1772789824750434800,8.361434814453125,-0.98480224609375,-0.16680908203125,-0.0436248779296875
1772789824770470000,8.381469970703124,-0.9853973388671875,-0.16522216796875,-0.038970947265625
1772789824790505000,8.4015048828125,-0.988006591796875,-0.16497802734375,-0.0367584228515625
1772789824810542800,8.42154296875,-0.98748779296875,-0.1671295166015625,-0.0321502685546875
1772789824830578000,8.441577880859375,-0.988311767578125,-0.1720428466796875,-0.0304107666015625
1772789824850613000,8.461613037109375,-0.9853668212890625,-0.17364501953125,-0.026031494140625
1772789824870647800,8.481647705078124,-0.9837646484375,-0.171142578125,-0.0223388671875
1772789824890683000,8.501682861328124,-0.9846038818359375,-0.1747283935546875,-0.0268402099609375
1772789824910718000,8.521718017578126,-0.989044189453125,-0.1711273193359375,-0.0241546630859375
1772789824930753000,8.5417529296875,-0.99273681640625,-0.1689605712890625,-0.0269775390625
1772789824950788400,8.561788330078125,-0.98638916015625,-0.170684814453125,-0.0272064208984375
1772789824970824200,8.58182421875,-0.98455810546875,-0.172332763671875,-0.033050537109375
1772789824990859000,8.60185888671875,-0.9875640869140625,-0.16973876953125,-0.0318756103515625
1772789825010894000,8.62189404296875,-0.983856201171875,-0.171478271484375,-0.036590576171875
1772789825030929200,8.64192919921875,-0.98773193359375,-0.1717376708984375,-0.0391998291015625
1772789825050964200,8.661964111328125,-0.97821044921875,-0.1740875244140625,-0.0387115478515625
1772789825070999000,8.6819990234375,-0.9769134521484375,-0.1748809814453125,-0.040283203125
1772789825091034000,8.7020341796875,-0.9807891845703125,-0.174835205078125,-0.037078857421875
1772789825111069200,8.722069091796875,-0.9889068603515625,-0.170928955078125,-0.0338592529296875
1772789825131104300,8.742104248046875,-0.9883270263671875,-0.169525146484375,-0.03375244140625
1772789825151139300,8.762139404296875,-0.9899444580078125,-0.1721649169921875,-0.0343780517578125
1772789825171174100,8.782174072265626,-0.9893951416015625,-0.17498779296875,-0.0329742431640625
1772789825191210000,8.8022099609375,-0.9885101318359375,-0.17266845703125,-0.0281982421875
1772789825211245000,8.8222451171875,-0.98907470703125,-0.1732177734375,-0.023529052734375
1772789825231280000,8.842280029296875,-0.9901123046875,-0.1741943359375,-0.024749755859375
1772789825251315200,8.862315185546874,-0.99169921875,-0.17218017578125,-0.0232391357421875
1772789825271350300,8.882350341796876,-0.9840240478515625,-0.176971435546875,-0.0279083251953125
1772789825291385000,8.902385009765625,-0.9806060791015625,-0.1780548095703125,-0.0280303955078125
1772789825311420200,8.922420166015625,-0.981903076171875,-0.17840576171875,-0.0279693603515625
1772789825331455200,8.942455322265625,-0.9794769287109375,-0.180023193359375,-0.0329742431640625
1772789825351490300,8.962490234375,-0.978668212890625,-0.1777191162109375,-0.0308380126953125
1772789825371525000,8.982525146484376,-0.9801025390625,-0.1754913330078125,-0.0311126708984375
1772789825391560200,9.002560302734375,-0.985321044921875,-0.1721343994140625,-0.029876708984375
1772789825411595000,9.022594970703125,-0.9911346435546875,-0.1737060546875,-0.031463623046875
1772789825431631000,9.042631103515625,-0.98406982421875,-0.1772308349609375,-0.0306549072265625
1772789825451666200,9.062666259765624,-0.9853973388671875,-0.1767425537109375,-0.028228759765625
1772789825471701200,9.082701171875,-0.9864959716796875,-0.1754608154296875,-0.02362060546875
1772789825491736000,9.102736083984375,-0.9840240478515625,-0.1761932373046875,-0.0240936279296875
1772789825511771100,9.122771240234375,-0.9847259521484375,-0.1737060546875,-0.025787353515625
1772789825531806200,9.14280615234375,-0.984619140625,-0.1738433837890625,-0.027374267578125
1772789825551841300,9.16284130859375,-0.9784698486328125,-0.1772918701171875,-0.026824951171875
1772789825571876000,9.1828759765625,-0.976043701171875,-0.17694091796875,-0.02398681640625
1772789825591911200,9.2029111328125,-0.9856109619140625,-0.1734619140625,-0.027099609375
1772789825611946000,9.222946044921875,-0.980499267578125,-0.1759185791015625,-0.0310516357421875
1772789825631981000,9.24298095703125,-0.982086181640625,-0.1800537109375,-0.0330657958984375
1772789825652016000,9.26301611328125,-0.986419677734375,-0.17889404296875,-0.032745361328125
1772789825672051200,9.28305126953125,-0.9904632568359375,-0.1742401123046875,-0.0300445556640625
1772789825692087300,9.30308740234375,-0.9907684326171875,-0.1726531982421875,-0.029296875
1772789825712122000,9.3231220703125,-0.9871063232421875,-0.173248291015625,-0.033721923828125
1772789825732157200,9.3431572265625,-0.9864044189453125,-0.173309326171875,-0.0362701416015625
1772789825752192300,9.363192138671875,-0.992156982421875,-0.172821044921875,-0.0327911376953125
1772789825772227000,9.38322705078125,-0.989013671875,-0.1697540283203125,-0.031707763671875
1772789825792262100,9.40326220703125,-0.98602294921875,-0.1700592041015625,-0.0330657958984375
1772789825812297200,9.423297119140624,-0.9910888671875,-0.16937255859375,-0.0286102294921875
1772789825832332000,9.44333203125,-0.98687744140625,-0.17156982421875,-0.027923583984375
1772789825852367000,9.4633671875,-0.982421875,-0.173248291015625,-0.0283966064453125
1772789825872402200,9.483402099609375,-0.97698974609375,-0.172332763671875,-0.022491455078125
1772789825892437200,9.503437255859374,-0.9818267822265625,-0.1713714599609375,-0.0220947265625
1772789825912472300,9.523472412109374,-0.983001708984375,-0.1717987060546875,-0.0262298583984375
1772789825932508200,9.543508056640626,-0.987213134765625,-0.16864013671875,-0.0324249267578125
1772789825952543700,9.563543701171875,-0.9844970703125,-0.17034912109375,-0.034088134765625
1772789825972578800,9.583578857421875,-0.9835205078125,-0.1749267578125,-0.0355072021484375
1772789825992613600,9.603613525390625,-0.975982666015625,-0.17779541015625,-0.032684326171875
1772789826012648700,9.623648681640624,-0.9814910888671875,-0.1768341064453125,-0.033721923828125
1772789826032683500,9.64368359375,-0.9906005859375,-0.1722259521484375,-0.031036376953125
1772789826052718600,9.663718505859375,-0.995025634765625,-0.1661529541015625,-0.0305633544921875
1772789826072753700,9.683753662109375,-0.9910736083984375,-0.1700439453125,-0.0387115478515625
1772789826092788700,9.703788818359374,-0.99017333984375,-0.1710357666015625,-0.037109375
1772789826112823800,9.72382373046875,-0.9882354736328125,-0.17315673828125,-0.036651611328125
1772789826132859000,9.74385888671875,-0.9833221435546875,-0.17340087890625,-0.0338134765625
1772789826152893400,9.7638935546875,-0.9815216064453125,-0.1747283935546875,-0.0359039306640625
1772789826172928500,9.783928466796874,-0.9888763427734375,-0.1689453125,-0.034332275390625
1772789826192964600,9.803964599609374,-0.9876556396484375,-0.171661376953125,-0.036651611328125
1772789826212999700,9.823999755859376,-0.986663818359375,-0.17193603515625,-0.032958984375
1772789826233034500,9.844034423828125,-0.9852752685546875,-0.1697998046875,-0.0338287353515625
1772789826253069600,9.864069580078125,-0.98681640625,-0.170013427734375,-0.0296630859375
1772789826273104600,9.884104736328124,-0.991546630859375,-0.1671600341796875,-0.031402587890625
1772789826293139700,9.9041396484375,-0.98309326171875,-0.1750335693359375,-0.037139892578125
1772789826313174800,9.9241748046875,-0.985198974609375,-0.173980712890625,-0.0348052978515625
1772789826333209900,9.9442099609375,-0.990692138671875,-0.1700286865234375,-0.0289306640625
1772789826353244400,9.964244384765625,-0.987152099609375,-0.1695098876953125,-0.0267486572265625
1772789826373279500,9.984279541015624,-0.9805450439453125,-0.174530029296875,-0.0305023193359375
1772789826393314600,10.004314453125,-0.983306884765625,-0.175994873046875,-0.030975341796875
1772789826413350700,10.0243505859375,-0.98162841796875,-0.174407958984375,-0.03265380859375
1772789826433385700,10.0443857421875,-0.9852447509765625,-0.17059326171875,-0.03643798828125
1772789826453420500,10.064420654296875,-0.9859161376953125,-0.1701507568359375,-0.0397491455078125
1772789826473455600,10.08445556640625,-0.990478515625,-0.1674652099609375,-0.040130615234375
1772789826493490700,10.10449072265625,-0.9916534423828125,-0.17138671875,-0.0377655029296875
1772789826513525800,10.12452587890625,-0.9869537353515625,-0.174530029296875,-0.033843994140625
1772789826533560800,10.144560791015625,-0.9878082275390625,-0.17254638671875,-0.0354156494140625
1772789826553595600,10.164595703125,-0.9874725341796875,-0.1707000732421875,-0.0287017822265625
1772789826573630500,10.18463037109375,-0.9778594970703125,-0.1733856201171875,-0.03131103515625
1772789826593665500,10.20466552734375,-0.9725799560546875,-0.1769256591796875,-0.034027099609375
1772789826613700600,10.22470068359375,-0.972869873046875,-0.1775360107421875,-0.0353546142578125
1772789826633735700,10.244735595703125,-0.9809417724609375,-0.173675537109375,-0.033111572265625
1772789826653771500,10.264771484375,-0.9837493896484375,-0.1729736328125,-0.0298919677734375
1772789826673806600,10.284806640625,-0.994354248046875,-0.1719970703125,-0.029815673828125
1772789826693841700,10.304841552734375,-0.9992523193359375,-0.1684722900390625,-0.02679443359375
1772789826713876700,10.324876708984375,-0.99627685546875,-0.171173095703125,-0.028167724609375
1772789826733911800,10.344911865234375,-0.9868011474609375,-0.1775970458984375,-0.0299530029296875
1772789826753946600,10.364946533203126,-0.984344482421875,-0.177703857421875,-0.02850341796875
1772789826773981700,10.384981689453125,-0.9964752197265625,-0.1706390380859375,-0.0238800048828125
1772789826794016500,10.4050166015625,-0.9940948486328125,-0.174285888671875,-0.0299530029296875
1772789826814051600,10.425051513671875,-0.990447998046875,-0.175201416015625,-0.03326416015625
1772789826834086700,10.445086669921874,-0.982208251953125,-0.176483154296875,-0.0335235595703125
1772789826854121700,10.465121826171876,-0.987640380859375,-0.1709442138671875,-0.031524658203125
1772789826874157600,10.485157470703125,-0.986083984375,-0.171783447265625,-0.0318603515625
1772789826894192600,10.505192626953125,-0.981201171875,-0.172607421875,-0.0297393798828125
1772789826914227700,10.525227783203125,-0.9727325439453125,-0.1772003173828125,-0.0259552001953125
1772789826934262800,10.5452626953125,-0.9714813232421875,-0.1792449951171875,-0.029205322265625
1772789826954297600,10.565297607421876,-0.98468017578125,-0.1739349365234375,-0.025665283203125
1772789826974332700,10.585332763671875,-0.9929351806640625,-0.1701202392578125,-0.02435302734375
1772789826994367500,10.605367431640625,-0.9935150146484375,-0.1710205078125,-0.022430419921875
1772789827014402600,10.625402587890624,-0.985809326171875,-0.1761474609375,-0.0297393798828125
1772789827034437400,10.645437255859376,-0.97894287109375,-0.1796722412109375,-0.034515380859375
1772789827054472400,10.665472412109375,-0.9831695556640625,-0.177093505859375,-0.0292510986328125
1772789827074507500,10.685507568359375,-0.986846923828125,-0.17529296875,-0.031585693359375
1772789827094542600,10.70554248046875,-0.982818603515625,-0.1753997802734375,-0.0331573486328125
1772789827114578400,10.725578369140624,-0.991058349609375,-0.1732330322265625,-0.0352935791015625
1772789827134613500,10.745613525390626,-0.98822021484375,-0.1732025146484375,-0.0309600830078125
1772789827154648600,10.765648681640625,-0.989593505859375,-0.170928955078125,-0.0277099609375
1772789827174683600,10.78568359375,-0.9909515380859375,-0.170013427734375,-0.0300750732421875
1772789827194718700,10.80571875,-0.9829254150390625,-0.172454833984375,-0.034454345703125
1772789827214753500,10.82575341796875,-0.9730682373046875,-0.17901611328125,-0.0353240966796875
1772789827234788400,10.845788330078125,-0.9666290283203125,-0.18310546875,-0.03558349609375
1772789827254823400,10.865823486328125,-0.9753265380859375,-0.1810455322265625,-0.0270538330078125
1772789827274858500,10.8858583984375,-0.984832763671875,-0.173065185546875,-0.0282440185546875
1772789827294893600,10.9058935546875,-0.993927001953125,-0.1670989990234375,-0.02398681640625
1772789827314928600,10.9259287109375,-0.9998626708984375,-0.1682891845703125,-0.02001953125
1772789827334963500,10.94596337890625,-0.993408203125,-0.1725616455078125,-0.0128631591796875
1772789827354999600,10.96599951171875,-0.988433837890625,-0.176788330078125,-0.013214111328125
1772789827375034600,10.98603466796875,-0.9855804443359375,-0.1776275634765625,-0.0146484375
1772789827395069700,11.006069580078124,-0.9819793701171875,-0.1771697998046875,-0.0129241943359375
1772789827415104500,11.0261044921875,-0.97796630859375,-0.18035888671875,-0.0109100341796875
1772789827435139300,11.046139404296875,-0.979248046875,-0.1803131103515625,-0.013519287109375
1772789827455174400,11.06617431640625,-0.9859771728515625,-0.1748199462890625,-0.01947021484375
1772789827475209500,11.08620947265625,-0.9860076904296875,-0.1771087646484375,-0.02471923828125
1772789827495244500,11.10624462890625,-0.99224853515625,-0.1707611083984375,-0.02337646484375
1772789827515279600,11.126279541015625,-0.9920196533203125,-0.1686248779296875,-0.02508544921875
1772789827535314400,11.146314453125,-0.99420166015625,-0.166351318359375,-0.0250244140625
1772789827555349500,11.166349609375,-0.9913330078125,-0.16876220703125,-0.02618408203125
1772789827575385600,11.186385498046874,-0.990142822265625,-0.17144775390625,-0.0228271484375
1772789827595420700,11.206420654296876,-0.9841156005859375,-0.1746368408203125,-0.0169677734375
1772789827615455700,11.226455810546875,-0.988525390625,-0.173065185546875,-0.0134429931640625
1772789827635490300,11.246490234375,-0.9893951416015625,-0.173126220703125,-0.011627197265625
1772789827655525400,11.266525390625,-0.99066162109375,-0.17120361328125,-0.0130157470703125
1772789827675560400,11.286560546875,-0.9929962158203125,-0.1697235107421875,-0.0100250244140625
1772789827695595500,11.306595458984376,-0.983428955078125,-0.1744232177734375,-0.0104217529296875
1772789827715630600,11.326630615234375,-0.9802703857421875,-0.1790771484375,-0.0111846923828125
1772789827735665700,11.346665771484375,-0.976470947265625,-0.181060791015625,-0.009796142578125
1772789827755700500,11.366700439453124,-0.9748077392578125,-0.1800994873046875,-0.0140838623046875
1772789827775735600,11.386735595703126,-0.9785308837890625,-0.1762237548828125,-0.0191650390625
1772789827795771600,11.406771728515626,-0.9866485595703125,-0.1710205078125,-0.021087646484375
1772789827815806700,11.426806640625,-1.0004425048828125,-0.1610107421875,-0.02008056640625
1772789827835841500,11.446841552734375,-0.999786376953125,-0.1645050048828125,-0.024658203125
1772789827855876400,11.46687646484375,-0.9888153076171875,-0.17071533203125,-0.0261993408203125
1772789827875911400,11.486911376953126,-0.98797607421875,-0.1741943359375,-0.01654052734375
1772789827895946500,11.506946533203125,-0.9760589599609375,-0.17730712890625,-0.012847900390625
1772789827915981600,11.526981689453125,-0.9711456298828125,-0.1790771484375,-0.017608642578125
1772789827936016600,11.5470166015625,-0.9763641357421875,-0.1754913330078125,-0.019989013671875
1772789827956051200,11.56705126953125,-0.9686126708984375,-0.1779022216796875,-0.025146484375
1772789827976086000,11.5870859375,-0.965057373046875,-0.1778106689453125,-0.02178955078125
1772789827996121000,11.60712109375,-0.9825439453125,-0.167083740234375,-0.019012451171875
1772789828016157200,11.6271572265625,-0.9995269775390625,-0.161468505859375,-0.0156707763671875
1772789828036192300,11.647192138671874,-1.0023345947265625,-0.1579742431640625,-0.0174560546875
1772789828056227000,11.66722705078125,-0.998016357421875,-0.1649322509765625,-0.0212860107421875
1772789828076262000,11.687261962890625,-0.9829864501953125,-0.1698760986328125,-0.0207672119140625
1772789828096297000,11.707296875,-0.9840545654296875,-0.1704864501953125,-0.0173797607421875
1772789828116332000,11.72733203125,-0.991455078125,-0.1734466552734375,-0.012908935546875
1772789828136367000,11.7473671875,-0.9837646484375,-0.180084228515625,-0.002532958984375
1772789828156402200,11.767402099609376,-0.98553466796875,-0.1798553466796875,-0.0059051513671875
1772789828176437200,11.787437255859375,-1.0006103515625,-0.173370361328125,-0.015960693359375
1772789828196472000,11.80747216796875,-1.00579833984375,-0.16607666015625,-0.01739501953125
1772789828216507000,11.8275068359375,-1.009521484375,-0.1614532470703125,-0.015167236328125
1772789828236543200,11.847543212890624,-1.006103515625,-0.1629180908203125,-0.0173492431640625
1772789828256578000,11.867578125,-0.988525390625,-0.1683807373046875,-0.0145263671875
1772789828276613000,11.887613037109375,-0.9798583984375,-0.1663665771484375,-0.019317626953125
1772789828296648000,11.90764794921875,-0.976531982421875,-0.169891357421875,-0.0253753662109375
1772789828316683000,11.92768310546875,-0.977447509765625,-0.1718597412109375,-0.0219879150390625
1772789828336718000,11.947718017578126,-0.977386474609375,-0.171630859375,-0.0208282470703125
1772789828356753200,11.967753173828125,-0.9793548583984375,-0.1702880859375,-0.0195159912109375
1772789828376788200,11.987788330078125,-0.9815826416015625,-0.17218017578125,-0.024169921875
1772789828396821000,12.007821044921876,-0.9820404052734375,-0.173431396484375,-0.02410888671875
1772789828416856000,12.02785595703125,-0.9839935302734375,-0.170562744140625,-0.0190582275390625
1772789828436891100,12.04789111328125,-0.9682159423828125,-0.1724090576171875,-0.017181396484375
1772789828456926200,12.06792626953125,-0.979095458984375,-0.1762237548828125,-0.0158843994140625
1772789828476961000,12.0879609375,-0.989532470703125,-0.1783905029296875,-0.01995849609375
1772789828496996000,12.10799609375,-0.997528076171875,-0.170074462890625,-0.0166473388671875
1772789828517031000,12.128031005859375,-0.999237060546875,-0.1694488525390625,-0.0218963623046875
1772789828537066000,12.14806591796875,-0.9990692138671875,-0.1710662841796875,-0.0223236083984375
1772789828557102000,12.16810205078125,-1.0013275146484375,-0.1667633056640625,-0.0146331787109375
1772789828577137000,12.188136962890624,-0.9976959228515625,-0.168914794921875,-0.0200958251953125
1772789828597172000,12.208171875,-0.993499755859375,-0.1695556640625,-0.015716552734375
1772789828617207000,12.22820703125,-0.988067626953125,-0.1752777099609375,-0.016143798828125
1772789828637242000,12.2482421875,-0.9808807373046875,-0.1740264892578125,-0.0101776123046875
1772789828657277200,12.268277099609374,-0.9800872802734375,-0.1746978759765625,-0.0124053955078125
1772789828677312300,12.288312255859376,-0.977081298828125,-0.17193603515625,-0.01544189453125
1772789828697347000,12.30834716796875,-0.9745941162109375,-0.1761016845703125,-0.0193328857421875
1772789828717382000,12.3283818359375,-0.97955322265625,-0.170806884765625,-0.019622802734375
1772789828737417000,12.3484169921875,-0.9883270263671875,-0.1652374267578125,-0.023529052734375
1772789828757453000,12.368453125,-0.9875640869140625,-0.168701171875,-0.0262603759765625
1772789828777488000,12.38848779296875,-0.986114501953125,-0.1722564697265625,-0.027008056640625
1772789828797523000,12.40852294921875,-0.9796295166015625,-0.1779632568359375,-0.0238494873046875
1772789828817560000,12.42856005859375,-0.9820556640625,-0.177093505859375,-0.0176239013671875
1772789828837595000,12.448594970703125,-0.9916229248046875,-0.1680145263671875,-0.0105133056640625
1772789828857630000,12.4686298828125,-1.00738525390625,-0.1599884033203125,-0.004425048828125
1772789828877665000,12.4886650390625,-0.99908447265625,-0.167083740234375,-0.0060882568359375
1772789828897701000,12.508701171875,-0.98577880859375,-0.1740264892578125,0.0015411376953125
1772789828917736000,12.52873583984375,-0.968414306640625,-0.1808013916015625,0.0130615234375
1772789828937771000,12.54877099609375,-0.96820068359375,-0.181121826171875,0.02490234375
1772789828957806000,12.56880615234375,-0.9745025634765625,-0.1903839111328125,0.01416015625
1772789828977841200,12.588841064453124,-0.9806060791015625,-0.179718017578125,0.007537841796875
1772789828997876200,12.608876220703126,-0.98223876953125,-0.1725006103515625,0.0003204345703125
1772789829017911300,12.628911376953125,-0.989532470703125,-0.174560546875,-0.0106964111328125
1772789829037946000,12.648946044921875,-1.0069122314453125,-0.1749420166015625,-0.023712158203125
1772789829057981200,12.668981201171874,-1.006256103515625,-0.1707000732421875,-0.007476806640625
1772789829078016000,12.68901611328125,-1.0125885009765625,-0.1779632568359375,-0.01092529296875
1772789829098052400,12.70905224609375,-1.0058441162109375,-0.18865966796875,-0.027740478515625
1772789829118087200,12.729087158203125,-0.989349365234375,-0.2064208984375,-0.0415496826171875
1772789829138122000,12.7491220703125,-0.9576263427734375,-0.2294158935546875,-0.07293701171875
1772789829158157000,12.769156982421874,-0.9516754150390625,-0.2298736572265625,-0.0950927734375
1772789829178192100,12.789192138671876,-0.9736480712890625,-0.2155303955078125,-0.1028900146484375
1772789829198227200,12.809227294921875,-0.973724365234375,-0.216949462890625,-0.127288818359375
1772789829218262300,12.82926220703125,-0.9856414794921875,-0.2070465087890625,-0.1205596923828125
1772789829238297300,12.84929736328125,-1.010894775390625,-0.1850433349609375,-0.1073760986328125
1772789829258332200,12.869332275390626,-1.0195159912109375,-0.1699371337890625,-0.100677490234375
1772789829278367000,12.889366943359375,-1.0313568115234375,-0.1556854248046875,-0.0955047607421875
1772789829298402000,12.909402099609375,-1.03033447265625,-0.15240478515625,-0.0964508056640625
1772789829318438100,12.929438232421875,-1.015350341796875,-0.14495849609375,-0.08441162109375
1772789829338473000,12.949472900390624,-1.0191497802734375,-0.1437530517578125,-0.0759429931640625
1772789829358508000,12.969508056640626,-0.994049072265625,-0.1585845947265625,-0.076080322265625
1772789829378543000,12.989543212890625,-0.9766082763671875,-0.1712799072265625,-0.0760955810546875
1772789829398578200,13.009578125,-0.97308349609375,-0.1817169189453125,-0.0832672119140625
1772789829418613200,13.02961328125,-0.9657745361328125,-0.18475341796875,-0.0908355712890625
1772789829438648300,13.0496484375,-0.9618377685546875,-0.189605712890625,-0.1082305908203125
1772789829458683100,13.06968310546875,-0.94073486328125,-0.200653076171875,-0.113372802734375
1772789829478718000,13.089718017578125,-0.9439849853515625,-0.1972808837890625,-0.1130523681640625
1772789829498753000,13.1097529296875,-0.9535064697265625,-0.1969451904296875,-0.113372802734375
1772789829518788000,13.1297880859375,-0.9590301513671875,-0.192779541015625,-0.11846923828125
1772789829538824200,13.14982421875,-0.9634552001953125,-0.185272216796875,-0.1290130615234375
1772789829558859000,13.16985888671875,-0.981201171875,-0.1685943603515625,-0.12603759765625
1772789829578894000,13.18989404296875,-0.998016357421875,-0.16009521484375,-0.124176025390625
1772789829598929200,13.20992919921875,-0.97015380859375,-0.1681060791015625,-0.127471923828125
1772789829618964200,13.229964111328124,-0.95697021484375,-0.17138671875,-0.113800048828125
1772789829638999300,13.249999267578126,-0.9647064208984375,-0.1650238037109375,-0.1073150634765625
1772789829659034400,13.270034423828125,-0.9889678955078125,-0.156585693359375,-0.0888824462890625
1772789829679069000,13.29006884765625,-1.014495849609375,-0.16607666015625,-0.045654296875
1772789829699104000,13.31010400390625,-0.99749755859375,-0.1927490234375,-0.001007080078125
1772789829719139000,13.33013916015625,-0.97772216796875,-0.2149810791015625,-0.0112152099609375
1772789829739175200,13.350175048828126,-0.980194091796875,-0.2171783447265625,-0.04425048828125
1772789829759210000,13.3702099609375,-0.983367919921875,-0.2178955078125,-0.067169189453125
1772789829779245000,13.3902451171875,-1.01422119140625,-0.2102508544921875,-0.0846099853515625
1772789829799280000,13.410280029296874,-1.0034942626953125,-0.2129669189453125,-0.137847900390625
1772789829819315200,13.430315185546876,-0.959503173828125,-0.21893310546875,-0.1483154296875
1772789829839350300,13.450350341796875,-0.96527099609375,-0.2041168212890625,-0.1366119384765625
1772789829859385300,13.47038525390625,-0.982147216796875,-0.2044525146484375,-0.150909423828125
1772789829879420200,13.490420166015625,-0.9596099853515625,-0.203643798828125,-0.1418609619140625
1772789829899455000,13.510455078125,-0.9455108642578125,-0.20513916015625,-0.128814697265625
1772789829919490000,13.530489990234376,-0.948822021484375,-0.209014892578125,-0.1425323486328125
1772789829939525000,13.550525146484375,-0.936370849609375,-0.2122344970703125,-0.15130615234375
1772789829959561500,13.5705615234375,-0.9120941162109375,-0.2068939208984375,-0.1414794921875
1772789829979596300,13.59059619140625,-0.9132232666015625,-0.2089996337890625,-0.1345062255859375
1772789829999631000,13.610631103515624,-0.9104156494140625,-0.2126922607421875,-0.130767822265625
1772789830019666200,13.630666259765626,-0.8985443115234375,-0.208831787109375,-0.1125030517578125
1772789830039701200,13.650701171875,-0.9367523193359375,-0.1824951171875,-0.1089630126953125
1772789830059736300,13.670736328125,-0.95782470703125,-0.1624755859375,-0.0966949462890625
1772789830079771400,13.690771484375,-0.98138427734375,-0.162322998046875,-0.081329345703125
1772789830099806200,13.71080615234375,-0.941864013671875,-0.2083587646484375,-0.1083984375
1772789830119841300,13.73084130859375,-0.8957061767578125,-0.23492431640625,-0.1276702880859375
1772789830139876400,13.75087646484375,-0.947509765625,-0.219268798828125,-0.14019775390625
1772789830159911200,13.7709111328125,-1.0390472412109375,-0.1759796142578125,-0.159210205078125
1772789830179947300,13.790947265625,-1.063995361328125,-0.1562957763671875,-0.156158447265625
1772789830199982000,13.810982177734376,-1.0273895263671875,-0.1652984619140625,-0.1151275634765625
1772789830220017200,13.83101708984375,-0.9860687255859375,-0.1830902099609375,-0.1007537841796875
1772789830240052200,13.85105224609375,-0.98321533203125,-0.1831207275390625,-0.0766754150390625
1772789830260087300,13.87108740234375,-0.976654052734375,-0.170166015625,-0.052978515625
1772789830280122400,13.891122314453124,-0.9727020263671875,-0.15081787109375,-0.050689697265625
1772789830300157200,13.9111572265625,-0.967529296875,-0.1432647705078125,-0.05029296875
1772789830320192300,13.931192138671875,-0.96649169921875,-0.15997314453125,-0.061492919921875
1772789830340227300,13.951227294921875,-0.950836181640625,-0.1683197021484375,-0.0623321533203125
1772789830360262100,13.97126220703125,-0.9605865478515625,-0.1500701904296875,-0.0623016357421875
1772789830380298500,13.991298583984374,-0.972869873046875,-0.145751953125,-0.10137939453125
1772789830400333000,14.0113330078125,-0.9860382080078125,-0.1360015869140625,-0.0958099365234375
1772789830420368100,14.0313681640625,-0.988250732421875,-0.1242523193359375,-0.06463623046875
1772789830440403200,14.0514033203125,-1.00543212890625,-0.122589111328125,-0.07366943359375
1772789830460438300,14.071438232421874,-1.021270751953125,-0.117950439453125,-0.0741729736328125
1772789830480473300,14.091473388671876,-1.017181396484375,-0.1293792724609375,-0.065277099609375
1772789830500508400,14.11150830078125,-0.994171142578125,-0.1603240966796875,-0.062652587890625
1772789830520543200,14.131543212890625,-0.9837188720703125,-0.18157958984375,-0.0561981201171875
1772789830540578300,14.151578369140625,-0.9713592529296875,-0.188934326171875,-0.04937744140625
1772789830560613000,14.171613037109376,-0.99578857421875,-0.1753082275390625,-0.0482635498046875
1772789830580648200,14.191648193359375,-1.013336181640625,-0.171356201171875,-0.0609283447265625
1772789830600684300,14.211684326171875,-1.011810302734375,-0.175201416015625,-0.054351806640625
1772789830620719000,14.231718994140625,-1.0050201416015625,-0.1913299560546875,-0.0583953857421875
1772789830640754200,14.251754150390624,-1.0021209716796875,-0.1913604736328125,-0.053680419921875
1772789830660789200,14.271789306640626,-1.024444580078125,-0.1707916259765625,-0.0702972412109375
1772789830680824300,14.29182421875,-1.05206298828125,-0.155731201171875,-0.0738372802734375
1772789830700859400,14.311859375,-1.04302978515625,-0.1610260009765625,-0.0767822265625
1772789830720894500,14.33189453125,-1.0352020263671875,-0.164703369140625,-0.065338134765625
1772789830740929300,14.35192919921875,-1.01190185546875,-0.179290771484375,-0.07171630859375
1772789830760964400,14.37196435546875,-0.998443603515625,-0.184478759765625,-0.0702362060546875
1772789830780999200,14.391999267578125,-1.0010833740234375,-0.1759796142578125,-0.047698974609375
1772789830801034200,14.4120341796875,-0.998779296875,-0.1779937744140625,-0.06671142578125
1772789830821070000,14.432070068359375,-0.9889984130859375,-0.18072509765625,-0.071014404296875
1772789830841105200,14.452105224609374,-0.9884033203125,-0.1808929443359375,-0.0657806396484375
1772789830861140200,14.47214013671875,-0.9952850341796875,-0.174774169921875,-0.05657958984375
1772789830881175300,14.49217529296875,-0.9913177490234375,-0.17333984375,-0.0504302978515625
1772789830901210400,14.51221044921875,-0.9833221435546875,-0.172210693359375,-0.056182861328125
1772789830921245400,14.532245361328124,-0.98968505859375,-0.163970947265625,-0.0722503662109375
1772789830941280800,14.55228076171875,-0.9897308349609375,-0.1649017333984375,-0.06573486328125
1772789830961315800,14.57231591796875,-0.979888916015625,-0.174713134765625,-0.046630859375
1772789830981350700,14.5923505859375,-0.9827728271484375,-0.173858642578125,-0.0440826416015625
1772789831001385700,14.6123857421875,-0.9730987548828125,-0.1790008544921875,-0.0503082275390625
1772789831021421600,14.632421630859374,-0.9701385498046875,-0.17828369140625,-0.04876708984375
1772789831041456600,14.65245654296875,-0.980987548828125,-0.17919921875,-0.0532989501953125
1772789831061491700,14.67249169921875,-0.9927825927734375,-0.1794891357421875,-0.043975830078125
1772789831081526800,14.69252685546875,-1.0049285888671875,-0.180023193359375,-0.0375518798828125
1772789831101561900,14.712561767578125,-1.00396728515625,-0.17523193359375,-0.03192138671875
1772789831121597000,14.732596923828124,-0.9887542724609375,-0.1763763427734375,-0.0414276123046875
1772789831141631700,14.7526318359375,-0.9852294921875,-0.1858367919921875,-0.032470703125
1772789831161666800,14.772666748046875,-0.9789276123046875,-0.1793670654296875,-0.0099639892578125
1772789831181701600,14.79270166015625,-0.965087890625,-0.1828155517578125,-0.01934814453125
1772789831201736700,14.81273681640625,-0.965972900390625,-0.1781768798828125,-0.02093505859375
1772789831221771800,14.832771728515626,-0.96270751953125,-0.18292236328125,-0.029632568359375
1772789831241807600,14.8528076171875,-0.950225830078125,-0.2017669677734375,-0.0121612548828125
1772789831261842700,14.8728427734375,-0.9497833251953125,-0.2012481689453125,0.0058135986328125
1772789831281877800,14.892877685546875,-0.9653472900390625,-0.199920654296875,-0.0120849609375
1772789831301912800,14.912912841796874,-0.969512939453125,-0.1952362060546875,-0.01715087890625
1772789831321948000,14.932947998046876,-0.9605865478515625,-0.1954193115234375,-0.034881591796875
1772789831341982700,14.952982666015625,-0.940582275390625,-0.1988525390625,-0.068206787109375
1772789831362017800,14.973017822265625,-0.9342193603515625,-0.20550537109375,-0.038970947265625
1772789831382052600,14.993052490234374,-0.95281982421875,-0.1927032470703125,-0.024383544921875
1772789831402087700,15.013087646484376,-0.97650146484375,-0.1877593994140625,-0.0512237548828125
1772789831422122800,15.033122802734376,-1.0101470947265625,-0.1712188720703125,-0.0445404052734375
1772789831442158600,15.05315869140625,-1.0111236572265625,-0.1733551025390625,-0.0353240966796875
1772789831462193700,15.073193603515625,-0.99176025390625,-0.1876678466796875,-0.02740478515625
1772789831482228700,15.093228759765625,-0.975555419921875,-0.200042724609375,-0.01806640625
1772789831502263800,15.113263916015624,-0.9767303466796875,-0.199859619140625,-0.013671875
1772789831522299000,15.133298828125,-0.984649658203125,-0.195953369140625,-0.0131683349609375
1772789831542334000,15.153333984375,-0.9795989990234375,-0.19549560546875,-0.012725830078125
1772789831562368800,15.17336865234375,-0.98345947265625,-0.1958160400390625,-0.0267791748046875
1772789831582403600,15.193403564453124,-0.984130859375,-0.188385009765625,-0.0425567626953125
1772789831602438700,15.213438720703126,-0.9848175048828125,-0.1877593994140625,-0.0498199462890625
1772789831622473700,15.2334736328125,-0.9803314208984375,-0.190704345703125,-0.0488128662109375
1772789831642508800,15.2535087890625,-0.99420166015625,-0.18951416015625,-0.0637054443359375
1772789831662544600,15.273544677734375,-1.0041351318359375,-0.18780517578125,-0.0666046142578125
1772789831682579700,15.293579833984374,-1.014251708984375,-0.186065673828125,-0.0548248291015625
1772789831702614800,15.31361474609375,-1.0240478515625,-0.1840667724609375,-0.0487518310546875
1772789831722649900,15.33364990234375,-1.0234375,-0.1861724853515625,-0.044891357421875
1772789831742685000,15.353684814453125,-1.015777587890625,-0.187774658203125,-0.032135009765625
1772789831762719700,15.3737197265625,-1.0090484619140625,-0.1899261474609375,-0.0230560302734375
1772789831782754600,15.393754638671876,-0.9944000244140625,-0.1948699951171875,-0.0174407958984375
1772789831802789600,15.41378955078125,-0.9831695556640625,-0.1959991455078125,-0.0125579833984375
1772789831822824700,15.43382470703125,-0.975372314453125,-0.195068359375,-0.0180206298828125
1772789831842859800,15.45385986328125,-0.968719482421875,-0.19256591796875,-0.0186309814453125
1772789831862895600,15.4738955078125,-0.96697998046875,-0.197174072265625,-0.0232086181640625
1772789831882930700,15.4939306640625,-0.966796875,-0.19671630859375,-0.0300140380859375
1772789831902965800,15.5139658203125,-0.971771240234375,-0.1883392333984375,-0.02239990234375
1772789831923000800,15.534000732421875,-0.9860687255859375,-0.18212890625,-0.037139892578125
1772789831943035600,15.55403564453125,-0.9976654052734375,-0.181396484375,-0.0537109375
1772789831963070700,15.57407080078125,-0.997283935546875,-0.18115234375,-0.040283203125
1772789831983105500,15.59410546875,-1.001434326171875,-0.1802520751953125,-0.027099609375
1772789832003140600,15.614140625,-0.9947662353515625,-0.1878814697265625,-0.02496337890625
1772789832023175700,15.63417578125,-0.9902496337890625,-0.1851806640625,-0.008148193359375
1772789832043210800,15.654210693359374,-0.9850921630859375,-0.1890869140625,-0.0114288330078125
1772789832063245800,15.674245849609376,-0.9601593017578125,-0.199005126953125,-0.0174102783203125
1772789832083281700,15.69428173828125,-0.9505157470703125,-0.2085723876953125,-0.0144805908203125
1772789832103316700,15.714316650390625,-0.946685791015625,-0.210296630859375,-0.016510009765625
1772789832123351600,15.7343515625,-0.9586029052734375,-0.20013427734375,-0.0316009521484375
1772789832143386600,15.75438671875,-0.96685791015625,-0.193084716796875,-0.02923583984375
1772789832163421700,15.774421630859376,-0.9634857177734375,-0.194793701171875,-0.0280303955078125
1772789832183456800,15.794456787109375,-0.960662841796875,-0.20074462890625,-0.0234222412109375
1772789832203491600,15.81449169921875,-0.96588134765625,-0.200927734375,-0.016937255859375
1772789832223526700,15.834526611328124,-0.9681243896484375,-0.2043609619140625,-0.0081634521484375
1772789832243561700,15.854561767578126,-0.9728546142578125,-0.203125,0.00628662109375
1772789832263596800,15.8745966796875,-0.9699554443359375,-0.206573486328125,0.0039520263671875
1772789832283632600,15.894632568359375,-0.971038818359375,-0.2084503173828125,0.000885009765625
1772789832303667700,15.914667724609375,-0.97222900390625,-0.2071533203125,-0.00958251953125
1772789832323702500,15.93470263671875,-0.9708099365234375,-0.208251953125,-0.0084686279296875
1772789832343737600,15.954737548828126,-0.972320556640625,-0.2075653076171875,-0.013275146484375
1772789832363772700,15.974772705078125,-0.972015380859375,-0.211456298828125,-0.0231781005859375
1772789832383807700,15.994807861328125,-0.975372314453125,-0.211700439453125,-0.0159454345703125
1772789832403840800,16.0148408203125,-0.9778289794921875,-0.2174530029296875,-0.0130157470703125
1772789832423875800,16.034875732421874,-0.99365234375,-0.21063232421875,-0.0112762451171875
1772789832443910700,16.05491064453125,-1.0051422119140625,-0.211151123046875,-0.0296630859375
1772789832463945700,16.07494580078125,-1.00079345703125,-0.211761474609375,-0.0322418212890625
1772789832483980500,16.09498046875,-0.9954376220703125,-0.212738037109375,-0.0274658203125
1772789832504015600,16.115015625,-0.9923553466796875,-0.2151031494140625,-0.03778076171875
1772789832524050700,16.13505078125,-1.0021820068359375,-0.2003936767578125,-0.0305023193359375
1772789832544085800,16.155085693359375,-1.007537841796875,-0.193145751953125,-0.0313262939453125
1772789832564120800,16.175120849609375,-0.99395751953125,-0.1923675537109375,-0.0311737060546875
1772789832584156000,16.195156005859374,-0.98358154296875,-0.189239501953125,-0.026031494140625
1772789832604191700,16.215191650390626,-0.97564697265625,-0.18975830078125,-0.02398681640625
1772789832624226800,16.235226806640625,-0.9598236083984375,-0.1932830810546875,-0.0123748779296875
1772789832644261600,16.25526171875,-0.9486236572265625,-0.197174072265625,-0.0063323974609375
1772789832664296700,16.275296630859376,-0.9577178955078125,-0.1951446533203125,-0.0039215087890625
1772789832684331800,16.295331787109376,-0.9748382568359375,-0.1850128173828125,-0.0005340576171875
1772789832704366600,16.31536669921875,-0.9840545654296875,-0.1740264892578125,-0.0017242431640625
1772789832724401700,16.335401611328123,-0.9930267333984375,-0.1739044189453125,0.003570556640625
1772789832744436700,16.355436767578126,-0.9900665283203125,-0.176910400390625,0.01123046875
1772789832764471800,16.375471923828126,-0.991973876953125,-0.1768646240234375,0.0132904052734375
1772789832784507000,16.3955068359375,-0.990081787109375,-0.1823577880859375,0.019744873046875
1772789832804542700,16.415542724609374,-0.9760284423828125,-0.188812255859375,0.03564453125
1772789832824579800,16.435579833984374,-0.9741973876953125,-0.190887451171875,0.0298614501953125
1772789832844614700,16.45561474609375,-0.9792022705078125,-0.190765380859375,0.022674560546875
1772789832864649700,16.475649658203125,-0.986175537109375,-0.188140869140625,0.02288818359375
1772789832884684800,16.495684814453124,-0.9875030517578125,-0.1882476806640625,0.018157958984375
1772789832904719600,16.5157197265625,-0.984771728515625,-0.1911468505859375,0.0240020751953125
1772789832924754700,16.535754638671875,-0.9831085205078125,-0.195831298828125,0.0242767333984375
1772789832944789800,16.555789794921875,-0.9884033203125,-0.1946868896484375,0.012176513671875
1772789832964824600,16.575824462890626,-1.0050506591796875,-0.184600830078125,0.0054931640625
1772789832984859600,16.595859619140626,-1.00128173828125,-0.1806640625,0.011383056640625
1772789833004894700,16.615894775390625,-0.9844207763671875,-0.1874542236328125,0.01617431640625
1772789833024929800,16.6359296875,-0.960052490234375,-0.1987152099609375,0.0174102783203125
1772789833044964600,16.655964599609376,-0.96429443359375,-0.1895599365234375,0.021148681640625
1772789833064999700,16.675999755859376,-0.9761962890625,-0.18511962890625,0.0393218994140625
1772789833085034500,16.696034423828124,-0.9610595703125,-0.1909942626953125,0.0482025146484375
1772789833105069600,16.716069580078123,-0.947235107421875,-0.1879119873046875,0.04718017578125
1772789833125104600,16.736104736328127,-0.9452667236328125,-0.183837890625,0.0417633056640625
1772789833145140700,16.756140625,-0.9570465087890625,-0.169036865234375,0.0341033935546875
1772789833165175600,16.776175537109374,-0.9572906494140625,-0.1648101806640625,0.0393524169921875
1772789833185210600,16.796210693359374,-0.93817138671875,-0.177886962890625,0.0336151123046875
1772789833205245700,16.81624560546875,-0.94464111328125,-0.1725616455078125,0.039825439453125
1772789833225280800,16.83628076171875,-0.953582763671875,-0.171905517578125,0.0439910888671875
1772789833245315600,16.856315673828124,-0.97320556640625,-0.1736297607421875,0.0302886962890625
1772789833265350700,16.8763505859375,-0.982879638671875,-0.169281005859375,0.0283050537109375
1772789833285385700,16.8963857421875,-1.000244140625,-0.1634979248046875,0.013641357421875
1772789833305420500,16.916420654296875,-0.989471435546875,-0.16717529296875,0.0298919677734375
1772789833325455600,16.93645556640625,-0.9775848388671875,-0.1716766357421875,0.0677337646484375
1772789833345490700,16.95649072265625,-0.98687744140625,-0.18524169921875,0.037017822265625
1772789833365526800,16.97652685546875,-1.0045166015625,-0.1800079345703125,-0.0000762939453125
1772789833385561600,16.9965615234375,-1.015899658203125,-0.1754150390625,-0.0303497314453125
1772789833405596700,17.0165966796875,-1.0277862548828125,-0.172943115234375,-0.001983642578125
1772789833425631700,17.0366318359375,-1.00140380859375,-0.178680419921875,0.0543975830078125
1772789833445666600,17.05666650390625,-0.9735107421875,-0.2085418701171875,0.0469970703125
1772789833465701600,17.07670166015625,-0.9984130859375,-0.1916046142578125,0.0370635986328125
1772789833485736700,17.09673681640625,-1.025146484375,-0.1871795654296875,0.027313232421875
1772789833505771500,17.116771484375,-1.042755126953125,-0.1714324951171875,0.06488037109375
1772789833525806600,17.136806640625,-1.0266571044921875,-0.1669158935546875,0.0956268310546875
1772789833545841700,17.156841552734374,-0.983795166015625,-0.1680755615234375,0.079315185546875
1772789833565876700,17.176876708984373,-0.9797210693359375,-0.1584930419921875,0.04644775390625
1772789833585912800,17.196912841796873,-1.009735107421875,-0.150299072265625,0.0272216796875
1772789833605947600,17.21694775390625,-1.0591888427734375,-0.1317291259765625,0.0975189208984375
1772789833625982700,17.236982666015624,-1.04473876953125,-0.1442718505859375,0.1347808837890625
1772789833646017500,17.257017578125,-0.999176025390625,-0.158935546875,0.13494873046875
1772789833666052600,17.277052490234375,-0.9531097412109375,-0.1538238525390625,0.102142333984375
1772789833686087700,17.297087646484375,-0.980438232421875,-0.1695556640625,0.06134033203125
1772789833706122800,17.317122802734374,-1.0386962890625,-0.143035888671875,0.112335205078125
1772789833726157600,17.337157470703126,-1.0261077880859375,-0.13909912109375,0.1145782470703125
1772789833746192600,17.357192626953125,-0.988189697265625,-0.1383056640625,0.076507568359375
1772789833766227700,17.377227783203125,-0.9700927734375,-0.1308441162109375,0.0339508056640625
1772789833786262800,17.3972626953125,-0.9883270263671875,-0.1565704345703125,0.03662109375
1772789833806298600,17.417298583984376,-1.03118896484375,-0.1357574462890625,0.11181640625
1772789833826333700,17.437333740234376,-1.00927734375,-0.160308837890625,0.0980377197265625
1772789833846368500,17.457368408203124,-0.9631500244140625,-0.1766204833984375,0.080841064453125
1772789833866403600,17.477403564453127,-0.948211669921875,-0.173797607421875,0.0650787353515625
1772789833886438700,17.497438720703126,-0.9864501953125,-0.1757354736328125,0.0650177001953125
1772789833906473700,17.5174736328125,-1.00140380859375,-0.1680450439453125,0.0919036865234375
1772789833926508500,17.537508544921874,-0.9681243896484375,-0.1786041259765625,0.079681396484375
1772789833946544400,17.55754443359375,-0.941436767578125,-0.169464111328125,0.072357177734375
1772789833966579500,17.577579345703125,-0.95343017578125,-0.1557464599609375,0.058990478515625
1772789833986614500,17.597614501953124,-0.95111083984375,-0.154998779296875,0.02862548828125
1772789834006649600,17.617649658203124,-0.944549560546875,-0.1435699462890625,0.0312957763671875
1772789834026685400,17.637685546875,-0.9250030517578125,-0.1622161865234375,0.0484619140625
1772789834046720500,17.657720458984375,-0.971893310546875,-0.1456756591796875,0.078826904296875
1772789834066755300,17.67775537109375,-1.014556884765625,-0.1230926513671875,0.0941162109375
1772789834086790400,17.697790283203126,-0.99920654296875,-0.143829345703125,0.0870361328125
1772789834106825500,17.717825439453126,-1.00018310546875,-0.154937744140625,0.0992431640625
1772789834126860300,17.7378603515625,-1.0259552001953125,-0.1425018310546875,0.0844879150390625
1772789834146895400,17.757895263671877,-1.036865234375,-0.121337890625,0.07550048828125
1772789834166930400,17.777930419921876,-1.0626983642578125,-0.0930938720703125,0.0464324951171875
1772789834186965500,17.797965576171876,-1.0363006591796875,-0.106170654296875,0.0206298828125
1772789834207000600,17.81800048828125,-1.0293426513671875,-0.1177978515625,0.0382537841796875
1772789834227035400,17.838035400390623,-1.0055999755859375,-0.130767822265625,0.0308685302734375
1772789834247071500,17.858071533203123,-1.0139007568359375,-0.103240966796875,0.0441741943359375
1772789834267106300,17.878106201171875,-1.013336181640625,-0.11279296875,0.0088653564453125
1772789834287141400,17.898141357421874,-0.9925994873046875,-0.124786376953125,-0.0084228515625
1772789834307176400,17.918176513671874,-0.986968994140625,-0.132720947265625,-0.0236358642578125
1772789834327211300,17.938211181640625,-0.991912841796875,-0.127655029296875,-0.02740478515625
1772789834347246300,17.958246337890625,-0.9850311279296875,-0.1308135986328125,-0.0263671875
1772789834367281400,17.978281494140624,-0.96026611328125,-0.1401214599609375,-0.0307159423828125
1772789834387316500,17.99831640625,-0.9614105224609375,-0.1290283203125,-0.0035858154296875
1772789834407351600,18.0183515625,-0.994140625,-0.106781005859375,0.0025177001953125
1772789834427386400,18.038386474609375,-0.9826202392578125,-0.1197052001953125,-0.0143890380859375
1772789834447421400,18.05842138671875,-0.9761810302734375,-0.1201629638671875,-0.0084075927734375
1772789834467457300,18.078457275390626,-0.9766845703125,-0.1220855712890625,-0.0066070556640625
1772789834487492400,18.098492431640626,-0.97125244140625,-0.128143310546875,-0.0019989013671875
1772789834507527400,18.11852734375,-0.9700927734375,-0.1368560791015625,-0.0028533935546875
1772789834527562500,18.1385625,-0.990325927734375,-0.12384033203125,0.0088653564453125
1772789834547597300,18.158597412109376,-1.00311279296875,-0.1252288818359375,0.0014801025390625
1772789834567632400,18.17863232421875,-0.977569580078125,-0.13494873046875,-0.0041656494140625
1772789834587667500,18.19866748046875,-0.986297607421875,-0.122222900390625,-0.0071868896484375
1772789834607702500,18.21870263671875,-1.002716064453125,-0.1006317138671875,0.01983642578125
1772789834627737300,18.2387373046875,-1.013214111328125,-0.1034698486328125,0.0015869140625
1772789834647772400,18.2587724609375,-1.0010986328125,-0.114959716796875,-0.013214111328125
1772789834667807200,18.27880712890625,-0.985748291015625,-0.1197967529296875,-0.0183258056640625
1772789834687842300,18.29884228515625,-0.9864959716796875,-0.113800048828125,-0.021820068359375
1772789834707878400,18.31887841796875,-0.9920806884765625,-0.10980224609375,-0.008148193359375
1772789834727913500,18.33891357421875,-0.9975128173828125,-0.1052093505859375,-0.0004119873046875
1772789834747948300,18.3589482421875,-1.00177001953125,-0.103485107421875,-0.00799560546875
1772789834767983400,18.3789833984375,-0.993438720703125,-0.105438232421875,-0.012298583984375
1772789834788018400,18.399018310546875,-0.9888153076171875,-0.1090850830078125,-0.005828857421875
1772789834808053500,18.419053466796875,-0.99969482421875,-0.1032562255859375,0.0125274658203125
1772789834828088300,18.43908837890625,-1.0149383544921875,-0.100830078125,0.0178680419921875
1772789834848123400,18.459123291015626,-0.997406005859375,-0.1207733154296875,-0.0013580322265625
1772789834868158500,18.479158447265625,-0.9851837158203125,-0.12945556640625,-0.0097198486328125
1772789834888193300,18.499193359375,-0.9865264892578125,-0.130645751953125,-0.016937255859375
1772789834908228400,18.519228271484376,-1.0009765625,-0.12286376953125,-0.0229034423828125
1772789834928264400,18.539264404296876,-1.0128021240234375,-0.1094512939453125,-0.008392333984375
1772789834948299500,18.559299560546876,-1.002227783203125,-0.119476318359375,-0.018768310546875
1772789834968334300,18.579334228515624,-0.9859771728515625,-0.1299591064453125,-0.029541015625
1772789834988369400,18.599369384765627,-0.992279052734375,-0.132781982421875,-0.027374267578125
1772789835008404500,18.619404541015626,-0.9903717041015625,-0.135009765625,-0.0236663818359375
1772789835028439600,18.639439453125,-1.0053558349609375,-0.1183013916015625,-0.0022125244140625
1772789835048474600,18.659474609375,-1.016937255859375,-0.1089935302734375,0.001983642578125
1772789835068509700,18.679509765625,-0.996917724609375,-0.1247711181640625,-0.0058135986328125
1772789835088544500,18.69954443359375,-0.9860992431640625,-0.128387451171875,-0.002471923828125
1772789835108579600,18.71957958984375,-0.9944915771484375,-0.126495361328125,0.003570556640625
1772789835128614400,18.739614501953124,-1.001739501953125,-0.1186065673828125,0.0195465087890625
1772789835148650500,18.759650390625,-0.996429443359375,-0.1181793212890625,0.012725830078125
1772789835168685300,18.779685302734375,-0.9825439453125,-0.1248016357421875,0.0097808837890625
1772789835188720400,18.799720458984375,-0.977813720703125,-0.12652587890625,0.013519287109375
1772789835208755500,18.81975537109375,-0.98919677734375,-0.12091064453125,0.019775390625
1772789835228790500,18.83979052734375,-0.997833251953125,-0.1125030517578125,0.023773193359375
1772789835248825600,18.85982568359375,-0.983428955078125,-0.123138427734375,0.0176239013671875
1772789835268860700,18.879860595703125,-0.9819488525390625,-0.1268310546875,0.01202392578125
1772789835288895500,18.8998955078125,-0.990264892578125,-0.1211700439453125,0.01470947265625
1772789835308930600,18.9199306640625,-0.9942626953125,-0.117218017578125,0.0210723876953125
1772789835328965400,18.93996533203125,-0.9864654541015625,-0.122589111328125,0.0164794921875
1772789835349001500,18.96000146484375,-0.98394775390625,-0.1258392333984375,0.0139617919921875
1772789835369036500,18.98003662109375,-0.98394775390625,-0.1287841796875,0.0157318115234375
1772789835389071400,19.0000712890625,-0.997650146484375,-0.121307373046875,0.0230255126953125
1772789835409106400,19.0201064453125,-1.0040740966796875,-0.113922119140625,0.0243377685546875
1772789835429141500,19.0401416015625,-0.996490478515625,-0.12005615234375,0.021514892578125
1772789835449176600,19.060176513671873,-0.9910125732421875,-0.122344970703125,0.02099609375
1772789835469211600,19.080211669921876,-1.003143310546875,-0.115325927734375,0.0282135009765625
1772789835489246700,19.100246826171876,-1.007415771484375,-0.1160430908203125,0.02667236328125
1772789835509281500,19.120281494140624,-1.00640869140625,-0.1128082275390625,0.0289459228515625
1772789835529316400,19.14031640625,-0.9963836669921875,-0.11163330078125,0.03173828125
1772789835549351400,19.160351318359375,-0.994873046875,-0.118194580078125,0.0225067138671875
1772789835569387500,19.180387451171875,-0.9996185302734375,-0.1187286376953125,0.0213165283203125
1772789835589422600,19.200422607421874,-1.0052642822265625,-0.1151275634765625,0.019866943359375
1772789835609457400,19.22045751953125,-1.0027008056640625,-0.1113433837890625,0.0218353271484375
1772789835629492500,19.240492431640625,-0.9962158203125,-0.1153411865234375,0.01593017578125
1772789835649527600,19.260527587890625,-0.998138427734375,-0.118804931640625,0.011016845703125
1772789835669562600,19.280562744140624,-0.999176025390625,-0.1180419921875,0.011749267578125
1772789835689597700,19.30059765625,-0.9904327392578125,-0.1195220947265625,0.0146331787109375
1772789835709632500,19.320632568359375,-0.98895263671875,-0.1161651611328125,0.016937255859375
1772789835729667300,19.340667236328127,-0.9974212646484375,-0.1084747314453125,0.01519775390625
1772789835749702400,19.360702392578126,-0.9923248291015625,-0.1144561767578125,0.0077972412109375
1772789835769737500,19.380737548828126,-0.9795684814453125,-0.11505126953125,0.0129547119140625
1772789835789772500,19.4007724609375,-0.97125244140625,-0.11676025390625,0.0172576904296875
1772789835809808400,19.420808349609374,-0.990875244140625,-0.106048583984375,0.0346221923828125
1772789835829843500,19.440843505859377,-1.0005340576171875,-0.1123046875,0.0339202880859375
1772789835849878500,19.46087841796875,-0.9828643798828125,-0.1257781982421875,0.021575927734375
1772789835869913600,19.48091357421875,-0.9751434326171875,-0.12579345703125,0.018463134765625
1772789835889948700,19.50094873046875,-0.9874725341796875,-0.1207122802734375,0.02386474609375
1772789835909983700,19.520983642578123,-0.9960174560546875,-0.1213531494140625,0.0107879638671875
1772789835930018300,19.541018310546875,-1.0035400390625,-0.11529541015625,0.00347900390625
1772789835950053000,19.56105322265625,-1.001556396484375,-0.1174774169921875,-0.005859375
1772789835970088200,19.581088134765626,-0.9890289306640625,-0.1294708251953125,-0.00152587890625
1772789835990123000,19.601123046875,-0.9988861083984375,-0.126861572265625,0.0058441162109375
1772789836010159400,19.621159423828125,-1.010894775390625,-0.1209869384765625,0.01409912109375
1772789836030194000,19.64119384765625,-1.0111236572265625,-0.1247100830078125,0.0131072998046875
1772789836050229000,19.66122900390625,-0.9981689453125,-0.1327972412109375,0.0114898681640625
1772789836070264000,19.68126416015625,-0.9982147216796875,-0.1308441162109375,0.012176513671875
1772789836090299100,19.701299072265623,-1.0176849365234375,-0.118927001953125,0.0111846923828125
1772789836110334200,19.721334228515627,-1.013671875,-0.120086669921875,0.0058135986328125
1772789836130369300,19.741369384765626,-0.998046875,-0.128631591796875,0.002349853515625
1772789836150404000,19.761404052734374,-0.9849700927734375,-0.1389007568359375,0.0040435791015625
1772789836170439200,19.781439208984374,-0.9938812255859375,-0.1291656494140625,0.01568603515625
1772789836190474000,19.801473876953125,-0.9927520751953125,-0.128173828125,0.01214599609375
1772789836210509000,19.821509033203125,-0.994049072265625,-0.13092041015625,0.0015869140625
1772789836230544100,19.841544189453124,-0.9868316650390625,-0.1340789794921875,-0.0067291259765625
1772789836250580000,19.861580078125,-0.985107421875,-0.1363983154296875,-0.0054931640625
1772789836270615000,19.881614990234375,-0.9871826171875,-0.1350860595703125,0.009918212890625
1772789836290650000,19.901650146484375,-0.985076904296875,-0.1378173828125,0.0178375244140625
1772789836310685200,19.921685302734375,-0.986114501953125,-0.1385345458984375,0.01043701171875
1772789836330720300,19.94172021484375,-0.989105224609375,-0.1358795166015625,0.0092010498046875
1772789836350755300,19.96175537109375,-0.9859771728515625,-0.13726806640625,0.0084228515625
1772789836370790100,19.9817900390625,-0.9900360107421875,-0.1373443603515625,0.0008087158203125
1772789836390823200,20.0018232421875,-0.9943084716796875,-0.131988525390625,0.0059661865234375
1772789836410858200,20.021858154296876,-1.0033416748046875,-0.12554931640625,0.0073394775390625
1772789836430893000,20.04189306640625,-1.001861572265625,-0.1274261474609375,0.0058441162109375
1772789836450928000,20.06192822265625,-0.99249267578125,-0.132537841796875,0.002166748046875
1772789836470963200,20.081963134765626,-0.983123779296875,-0.137725830078125,0.0065155029296875
1772789836490998300,20.101998291015626,-0.9821319580078125,-0.136444091796875,0.011627197265625
1772789836511033000,20.122033203125,-0.9967193603515625,-0.125,0.021026611328125
1772789836531069000,20.14206884765625,-1.0057373046875,-0.1257781982421875,0.0063018798828125
1772789836551104000,20.16210400390625,-0.9994659423828125,-0.132781982421875,0.00726318359375
1772789836571139000,20.18213916015625,-0.9895782470703125,-0.1391754150390625,0.0068817138671875
1772789836591174100,20.202174072265624,-0.97637939453125,-0.1429443359375,0.01068115234375
1772789836611209200,20.222209228515624,-0.983612060546875,-0.1382904052734375,0.02056884765625
1772789836631244300,20.242244384765623,-0.9952850341796875,-0.13494873046875,0.0137176513671875
1772789836651279000,20.262279052734375,-0.9996337890625,-0.13165283203125,0.0152587890625
1772789836671314200,20.282314208984374,-1.00189208984375,-0.13275146484375,0.012939453125
1772789836691349200,20.302349365234374,-1.0044097900390625,-0.131561279296875,0.016632080078125
1772789836711384000,20.322384033203125,-1.0097503662109375,-0.131072998046875,0.01611328125
1772789836731419100,20.342419189453125,-1.0022430419921875,-0.135101318359375,0.0163726806640625
1772789836751454200,20.3624541015625,-0.9955291748046875,-0.13983154296875,0.0162506103515625
1772789836771490000,20.382489990234376,-0.974090576171875,-0.1500701904296875,0.0236663818359375
1772789836791525000,20.402525146484376,-0.9763946533203125,-0.14898681640625,0.0294342041015625
1772789836811562000,20.42256201171875,-0.9830169677734375,-0.1494140625,0.0206146240234375
1772789836831597000,20.44259716796875,-0.9835205078125,-0.1480560302734375,0.0254364013671875
1772789836851632000,20.462632080078127,-0.9740753173828125,-0.14581298828125,0.0279541015625
1772789836871667200,20.482667236328126,-0.9839630126953125,-0.1441802978515625,0.0259857177734375
1772789836891702300,20.502702392578126,-0.9932098388671875,-0.1404571533203125,0.0224456787109375
1772789836911738000,20.522738037109374,-0.9871978759765625,-0.1455230712890625,0.015350341796875
1772789836931773200,20.542773193359373,-0.99249267578125,-0.142730712890625,0.015411376953125
1772789836951808800,20.562808837890625,-0.9863739013671875,-0.1469879150390625,0.0140533447265625
1772789836971843800,20.58284375,-0.988433837890625,-0.144439697265625,0.009613037109375
1772789836991878700,20.602878662109376,-0.99560546875,-0.1435394287109375,0.010040283203125
1772789837011913500,20.62291357421875,-0.9963531494140625,-0.1443328857421875,0.0120697021484375
1772789837031948500,20.642948486328127,-0.999359130859375,-0.146820068359375,0.010955810546875
1772789837051983600,20.662983642578126,-0.9942169189453125,-0.150421142578125,0.0118865966796875
1772789837072018700,20.683018798828126,-0.9911956787109375,-0.1486968994140625,0.0087738037109375
1772789837092053800,20.7030537109375,-0.987335205078125,-0.1493682861328125,0.0005950927734375
1772789837112089600,20.723089599609374,-0.9814605712890625,-0.1479644775390625,-0.0084381103515625
1772789837132124700,20.743124755859377,-0.9866790771484375,-0.1435089111328125,-0.0077667236328125
1772789837152159700,20.76315966796875,-0.98260498046875,-0.144744873046875,-0.0160980224609375
1772789837172194800,20.78319482421875,-0.973175048828125,-0.1437530517578125,-0.022308349609375
1772789837192229600,20.803229736328124,-0.975189208984375,-0.14251708984375,-0.03265380859375
1772789837212264400,20.823264404296875,-0.9765625,-0.1384429931640625,-0.0315704345703125
1772789837232299500,20.843299560546875,-0.965576171875,-0.14617919921875,-0.0208892822265625
1772789837252334600,20.86333447265625,-0.9742431640625,-0.146759033203125,-0.0155792236328125
1772789837272369700,20.88336962890625,-0.9802093505859375,-0.148223876953125,-0.0139312744140625
1772789837292404700,20.90340478515625,-0.9821014404296875,-0.1516265869140625,-0.0211334228515625
1772789837312440600,20.923440673828125,-0.9801177978515625,-0.1553497314453125,-0.01470947265625
1772789837332475600,20.9434755859375,-0.993072509765625,-0.1505126953125,-0.01092529296875
1772789837352510700,20.9635107421875,-1.0125274658203125,-0.1357574462890625,0.0074005126953125
1772789837372545800,20.9835458984375,-1.0192108154296875,-0.1336669921875,0.0102996826171875
1772789837392580900,21.003580810546875,-1.0257110595703125,-0.132781982421875,0.0199432373046875
1772789837412615400,21.023615478515627,-1.0340576171875,-0.12750244140625,0.0333251953125
1772789837432650500,21.043650390625,-1.02740478515625,-0.12432861328125,0.029754638671875
1772789837452685600,21.063685546875,-1.0311126708984375,-0.112945556640625,0.032989501953125
1772789837472720600,21.083720703125,-1.0228271484375,-0.115966796875,0.027313232421875
1772789837492755700,21.103755615234373,-0.9925994873046875,-0.1297454833984375,0.0318603515625
1772789837512790800,21.123790771484376,-0.972412109375,-0.1452484130859375,0.02899169921875
1772789837532826600,21.14382666015625,-0.96832275390625,-0.14630126953125,0.0298309326171875
1772789837552861700,21.16386181640625,-0.98394775390625,-0.143585205078125,0.0280303955078125
1772789837572896800,21.183896728515624,-0.99542236328125,-0.1447296142578125,0.0339202880859375
1772789837592931800,21.203931884765623,-0.980926513671875,-0.151885986328125,0.018707275390625
1772789837612966700,21.223966552734375,-0.9722900390625,-0.1557159423828125,0.016357421875
1772789837633001500,21.24400146484375,-0.9814605712890625,-0.1545257568359375,0.0153045654296875
1772789837653036500,21.26403662109375,-1.002410888671875,-0.1467132568359375,0.0268402099609375
1772789837673071600,21.284071533203125,-1.0091094970703125,-0.1346435546875,0.0310211181640625
1772789837693106700,21.304106689453125,-1.041473388671875,-0.1200408935546875,0.018310546875
1772789837713141800,21.324141845703124,-1.0318603515625,-0.125823974609375,0.0182647705078125
1772789837733176800,21.3441767578125,-1.0038909912109375,-0.1436309814453125,0.0376434326171875
1772789837753211600,21.364211669921875,-0.9783477783203125,-0.1550750732421875,0.0435333251953125
1772789837773247700,21.384247802734375,-0.958221435546875,-0.1582489013671875,0.0329132080078125
1772789837793282800,21.40428271484375,-0.97210693359375,-0.1425323486328125,0.0261077880859375
1772789837813317600,21.424317626953126,-0.9741973876953125,-0.1346435546875,0.0213775634765625
1772789837833352400,21.4443525390625,-0.966796875,-0.13427734375,-0.0007781982421875
1772789837853387500,21.464387451171874,-0.951416015625,-0.1500244140625,0.005828857421875
1772789837873422600,21.484422607421877,-0.96136474609375,-0.151275634765625,0.026885986328125
1772789837893457700,21.504457763671876,-0.9940948486328125,-0.13751220703125,0.022979736328125
1772789837913492700,21.52449267578125,-0.9968414306640625,-0.1367645263671875,0.013671875
1772789837933527800,21.54452783203125,-0.9967803955078125,-0.1391448974609375,0.0014190673828125
1772789837953561900,21.564561767578127,-0.9917755126953125,-0.1436767578125,-0.0012359619140625
1772789837973597000,21.584596923828126,-0.9937286376953125,-0.1401214599609375,-0.002532958984375
1772789837993632800,21.6046328125,-1.0142974853515625,-0.1352386474609375,0.0119476318359375
1772789838013667800,21.624667724609374,-1.0113067626953125,-0.1386260986328125,0.03082275390625
1772789838033703000,21.644702880859374,-0.998260498046875,-0.1469268798828125,0.028533935546875
1772789838053738000,21.664738037109377,-0.9838409423828125,-0.155364990234375,0.02105712890625
1772789838073772800,21.684772705078124,-0.979644775390625,-0.1510467529296875,0.0262603759765625
1772789838093807600,21.7048076171875,-0.978363037109375,-0.1414031982421875,0.018280029296875
1772789838113842700,21.7248427734375,-0.9703521728515625,-0.1479644775390625,-0.0001983642578125
1772789838133877800,21.744877685546875,-0.9962005615234375,-0.131500244140625,0.009429931640625
1772789838153912800,21.764912841796875,-1.01324462890625,-0.1232147216796875,0.0070648193359375
1772789838173948000,21.784947998046874,-1.0084228515625,-0.12786865234375,0.005645751953125
1772789838193982700,21.804982666015626,-0.9959259033203125,-0.1357421875,0.0119781494140625
1772789838214018800,21.825018798828125,-0.9923095703125,-0.1392364501953125,0.0252227783203125
1772789838234054000,21.845053955078125,-0.997039794921875,-0.13446044921875,0.045166015625
1772789838254089000,21.8650888671875,-0.99566650390625,-0.1402740478515625,0.0391693115234375
1772789838274124000,21.8851240234375,-0.9904327392578125,-0.1420440673828125,0.036865234375
1772789838294158600,21.90515869140625,-0.9921875,-0.1435546875,0.0408477783203125
1772789838314193700,21.925193603515623,-0.9858551025390625,-0.1465606689453125,0.031158447265625
1772789838334228700,21.945228759765627,-0.98626708984375,-0.1356201171875,0.0274200439453125
1772789838354263800,21.965263916015626,-0.9887847900390625,-0.135528564453125,0.014404296875
1772789838374299000,21.985298828125,-0.9800567626953125,-0.1458587646484375,-0.0015106201171875
1772789838394334000,22.005333984375,-0.9620819091796875,-0.156890869140625,-0.0113677978515625
1772789838414368800,22.02536865234375,-0.974639892578125,-0.1491851806640625,-0.0061798095703125
1772789838434403800,22.04540380859375,-0.9768218994140625,-0.1567230224609375,-0.007354736328125
1772789838454440000,22.06543994140625,-0.978515625,-0.157379150390625,-0.0180816650390625
1772789838474475000,22.08547509765625,-0.980743408203125,-0.148040771484375,-0.013671875
1772789838494509800,22.105509765625,-0.978973388671875,-0.1435089111328125,-0.0123443603515625
1772789838514544600,22.125544677734375,-0.9879608154296875,-0.1502532958984375,-0.01025390625
1772789838534579700,22.145579833984375,-0.995697021484375,-0.1379852294921875,-0.0147247314453125
1772789838554614800,22.16561474609375,-0.9825439453125,-0.147308349609375,-0.010101318359375
1772789838574649900,22.18564990234375,-1.00408935546875,-0.1307525634765625,-0.0075225830078125
1772789838594685000,22.205684814453125,-1.02972412109375,-0.1253204345703125,-0.0169830322265625
1772789838614719700,22.2257197265625,-1.0194549560546875,-0.1316680908203125,-0.0167388916015625
1772789838634754800,22.2457548828125,-1.0120849609375,-0.1401519775390625,-0.015289306640625
1772789838654790000,22.265789794921876,-0.99542236328125,-0.1524200439453125,-0.0236053466796875
1772789838674826000,22.285825927734376,-0.9901885986328125,-0.1581878662109375,-0.0277099609375
1772789838694861000,22.305861083984375,-1.00140380859375,-0.15142822265625,-0.0320281982421875
1772789838714895600,22.3258955078125,-0.997772216796875,-0.1467132568359375,-0.029327392578125
1772789838734930700,22.3459306640625,-0.9954986572265625,-0.149688720703125,-0.0354156494140625
1772789838754965800,22.3659658203125,-0.99139404296875,-0.1529693603515625,-0.040557861328125
1772789838775000800,22.386000732421873,-0.9713134765625,-0.160247802734375,-0.0436553955078125
1772789838795036000,22.406035888671877,-0.976165771484375,-0.1576690673828125,-0.0426177978515625
1772789838815071000,22.426071044921876,-0.9920806884765625,-0.1455230712890625,-0.0268707275390625
1772789838835105800,22.446105712890624,-1.0024566650390625,-0.1451263427734375,-0.031158447265625
1772789838855140900,22.466140869140624,-0.992706298828125,-0.1492767333984375,-0.035614013671875
1772789838875175700,22.48617578125,-0.9723358154296875,-0.15838623046875,-0.0294647216796875
1772789838895210800,22.506210693359375,-0.9675445556640625,-0.157196044921875,-0.024627685546875
1772789838915246800,22.526246826171874,-0.9801483154296875,-0.151123046875,-0.0188751220703125
1772789838935281700,22.54628173828125,-0.9907073974609375,-0.1472625732421875,-0.0189361572265625
1772789838955317200,22.566317138671874,-0.9934234619140625,-0.145263671875,-0.0184783935546875
1772789838975352000,22.58635205078125,-0.990325927734375,-0.1517333984375,-0.0165557861328125
1772789838995387100,22.60638720703125,-0.9841461181640625,-0.1568145751953125,-0.01495361328125
1772789839015422200,22.626422119140624,-0.989227294921875,-0.1593475341796875,-0.0125732421875
1772789839035457000,22.64645703125,-0.99163818359375,-0.15899658203125,-0.0139923095703125
1772789839055492000,22.6664921875,-1.00439453125,-0.1497039794921875,-0.00665283203125
1772789839075527200,22.686527099609375,-1.007110595703125,-0.1492462158203125,-0.024322509765625
1772789839095562200,22.706562255859374,-1.00323486328125,-0.1421051025390625,-0.0232391357421875
1772789839115597300,22.726597412109374,-0.992095947265625,-0.141632080078125,-0.0264892578125
1772789839135633200,22.746633056640626,-0.978179931640625,-0.1460113525390625,-0.0261383056640625
1772789839155668200,22.766668212890625,-0.978057861328125,-0.1479034423828125,-0.0174713134765625
1772789839175703000,22.786703125,-0.977752685546875,-0.1529998779296875,-0.0151519775390625
1772789839195738000,22.806738037109376,-0.970611572265625,-0.157928466796875,-0.0141448974609375
1772789839215773200,22.826773193359376,-0.968597412109375,-0.160308837890625,-0.0152130126953125
1772789839235808300,22.846808349609375,-0.988189697265625,-0.155670166015625,-0.0108642578125
1772789839255843000,22.866843017578127,-0.98919677734375,-0.163421630859375,-0.0164337158203125
1772789839275878100,22.886878173828126,-0.9908905029296875,-0.1631622314453125,-0.0164031982421875
1772789839295913200,22.906913330078126,-0.9892730712890625,-0.16644287109375,-0.0191497802734375
1772789839315948300,22.9269482421875,-1.0035858154296875,-0.1618804931640625,-0.0169830322265625
1772789839335983000,22.946983154296873,-1.0143280029296875,-0.1573333740234375,-0.0165863037109375
1772789839356018200,22.96701806640625,-1.0001373291015625,-0.1616363525390625,-0.0260009765625
1772789839376054000,22.987053955078125,-0.9924468994140625,-0.1634521484375,-0.0231475830078125
1772789839396089000,23.007089111328124,-0.9908294677734375,-0.1617431640625,-0.0162811279296875
1772789839416124200,23.027124267578124,-0.9958648681640625,-0.1578369140625,-0.021514892578125
1772789839436159200,23.0471591796875,-1.0037384033203125,-0.1501007080078125,-0.0193939208984375
1772789839456194000,23.067194091796875,-0.9950408935546875,-0.1542205810546875,-0.0197601318359375
1772789839476229000,23.08722900390625,-0.9900054931640625,-0.154815673828125,-0.020172119140625
1772789839496264200,23.10726416015625,-0.98455810546875,-0.1571044921875,-0.021392822265625
1772789839516299300,23.12729931640625,-0.9852447509765625,-0.1531982421875,-0.009429931640625
1772789839536334000,23.147333984375,-0.9920654296875,-0.150421142578125,-0.001861572265625
1772789839556369200,23.167369140625,-0.9871063232421875,-0.1518707275390625,-0.0045318603515625
1772789839576404000,23.187404052734376,-0.9865570068359375,-0.154205322265625,-0.0045623779296875
1772789839596439000,23.20743896484375,-0.989013671875,-0.1584320068359375,-0.008270263671875
1772789839616475100,23.22747509765625,-0.980072021484375,-0.16119384765625,0.000091552734375
1772789839636510200,23.24751025390625,-0.9843902587890625,-0.1543731689453125,0.0115509033203125
1772789839656545300,23.267545166015626,-0.9750823974609375,-0.1632537841796875,-0.0018157958984375
1772789839676580000,23.287580078125,-0.9819183349609375,-0.1634674072265625,-0.0093841552734375
1772789839696615200,23.307615234375,-0.987335205078125,-0.161376953125,-0.0100555419921875
1772789839716650200,23.327650146484373,-0.9766387939453125,-0.170440673828125,-0.0081634521484375
1772789839736685000,23.34768505859375,-0.982513427734375,-0.17138671875,-0.0002288818359375
1772789839756720000,23.36772021484375,-0.998291015625,-0.1701812744140625,-0.00628662109375
1772789839776755200,23.387755126953124,-0.98529052734375,-0.17291259765625,-0.0140533447265625
1772789839796790000,23.4077900390625,-0.9901885986328125,-0.1685028076171875,-0.02117919921875
1772789839816825000,23.4278251953125,-1.004119873046875,-0.1593170166015625,-0.020233154296875
1772789839836860200,23.447860107421874,-1.00390625,-0.1608428955078125,-0.027496337890625
1772789839856896300,23.467896240234374,-0.997802734375,-0.1619873046875,-0.0324554443359375
1772789839876931000,23.48793115234375,-0.98291015625,-0.1633148193359375,-0.03631591796875
1772789839896966100,23.507966064453125,-0.97259521484375,-0.16644287109375,-0.0374908447265625
1772789839917001200,23.528001220703125,-0.968597412109375,-0.1625518798828125,-0.0206146240234375
1772789839937036000,23.5480361328125,-0.9781951904296875,-0.1510467529296875,-0.005126953125
1772789839957071400,23.5680712890625,-0.982330322265625,-0.1504364013671875,-0.0096588134765625
1772789839977106400,23.5881064453125,-0.9943084716796875,-0.15087890625,-0.010528564453125
1772789839997141200,23.608141357421875,-0.9908447265625,-0.1549530029296875,-0.007568359375
1772789840017176300,23.62817626953125,-0.9888153076171875,-0.15350341796875,0.0005340576171875
1772789840037211100,23.648211181640626,-0.9899749755859375,-0.1583404541015625,-0.0046539306640625
1772789840057246200,23.66824609375,-0.9931640625,-0.1556396484375,-0.0067596435546875
1772789840077281300,23.68828125,-0.98834228515625,-0.158477783203125,-0.00750732421875
1772789840097317000,23.708317138671877,-0.9894256591796875,-0.155059814453125,-0.0119781494140625
1772789840117352200,23.728352294921876,-0.9926605224609375,-0.159576416015625,-0.01983642578125
1772789840137387300,23.74838720703125,-0.99169921875,-0.158599853515625,-0.0164031982421875
1772789840157422300,23.76842236328125,-1.003997802734375,-0.1536102294921875,-0.015289306640625
1772789840177457400,23.78845751953125,-0.9999847412109375,-0.1560821533203125,-0.0086822509765625
1772789840197492500,23.808492431640627,-0.988372802734375,-0.1634674072265625,-0.0201416015625
1772789840217527300,23.82852734375,-0.9893035888671875,-0.1602325439453125,-0.0235595703125
1772789840237562000,23.84856201171875,-0.981109619140625,-0.1621246337890625,-0.0239715576171875
1772789840257597200,23.86859716796875,-0.9819488525390625,-0.16046142578125,-0.0193328857421875
1772789840277632300,23.88863232421875,-0.993927001953125,-0.153717041015625,-0.017425537109375
1772789840297667300,23.908667236328125,-0.991912841796875,-0.1583404541015625,-0.02618408203125
1772789840317702400,23.928702392578124,-0.989227294921875,-0.1629638671875,-0.0204010009765625
1772789840337738200,23.94873828125,-0.9800262451171875,-0.1725006103515625,-0.0189208984375
1772789840357773300,23.968773193359375,-0.9815673828125,-0.1714630126953125,-0.0135498046875
1772789840377808400,23.988808349609375,-0.98309326171875,-0.1658477783203125,-0.00628662109375
1772789840397843500,24.008843505859375,-0.993804931640625,-0.1619110107421875,-0.0180511474609375
1772789840417878300,24.028878173828126,-0.9910125732421875,-0.1651458740234375,-0.0163726806640625
1772789840437913000,24.0489130859375,-0.978546142578125,-0.1661376953125,-0.020660400390625
1772789840457948200,24.0689482421875,-0.9877471923828125,-0.1573028564453125,-0.018310546875
1772789840477983200,24.088983154296876,-0.991668701171875,-0.1566619873046875,-0.0194091796875
1772789840498018300,24.109018310546876,-0.99285888671875,-0.1541748046875,-0.0137176513671875
1772789840518053400,24.129053466796876,-0.9994049072265625,-0.1532135009765625,-0.0176544189453125
1772789840538088400,24.14908837890625,-0.980682373046875,-0.1632537841796875,-0.0223846435546875
1772789840558123300,24.169123291015627,-0.9738311767578125,-0.1707000732421875,-0.021575927734375
1772789840578159400,24.189159423828126,-0.97186279296875,-0.166778564453125,-0.0133819580078125
1772789840598194400,24.2091943359375,-0.9840087890625,-0.1546630859375,-0.0084381103515625
1772789840618229500,24.2292294921875,-0.9931640625,-0.1573028564453125,-0.017974853515625
1772789840638264000,24.24926416015625,-0.9848785400390625,-0.1652069091796875,-0.0197601318359375
1772789840658299100,24.269299072265625,-0.98223876953125,-0.166412353515625,-0.0180816650390625
1772789840678334200,24.289334228515624,-0.99151611328125,-0.1597900390625,-0.0109710693359375
1772789840698369300,24.309369384765624,-1.001495361328125,-0.1560516357421875,-0.012847900390625
1772789840718404400,24.329404296875,-0.996734619140625,-0.1634674072265625,-0.018402099609375
1772789840738439400,24.349439453125,-0.984954833984375,-0.16888427734375,-0.0154876708984375
1772789840758474200,24.36947412109375,-0.9753265380859375,-0.1726226806640625,-0.018218994140625
1772789840778509300,24.38950927734375,-0.987396240234375,-0.1652374267578125,-0.0145721435546875
1772789840798544100,24.409544189453126,-0.992431640625,-0.159942626953125,-0.01287841796875
1772789840818580500,24.42958056640625,-0.9887847900390625,-0.1604766845703125,-0.01885986328125
1772789840838615300,24.449615234375,-0.995330810546875,-0.1625518798828125,-0.0248260498046875
1772789840858650000,24.469650146484376,-0.9922332763671875,-0.1639404296875,-0.0252838134765625
1772789840878685200,24.489685302734376,-0.9871826171875,-0.165191650390625,-0.0203094482421875
1772789840898720300,24.50972021484375,-0.993682861328125,-0.1595001220703125,-0.020294189453125
1772789840918755300,24.52975537109375,-0.9977569580078125,-0.1587982177734375,-0.022674560546875
1772789840938790400,24.549790283203127,-0.9887237548828125,-0.160797119140625,-0.0201416015625
1772789840958825500,24.569825439453126,-0.9861907958984375,-0.16455078125,-0.0194854736328125
1772789840978860500,24.589860595703126,-0.9869842529296875,-0.164947509765625,-0.013641357421875
1772789840998895400,24.609895263671874,-0.9831695556640625,-0.169830322265625,-0.0145416259765625
1772789841018930400,24.629930419921877,-0.98699951171875,-0.1651611328125,-0.0113067626953125
1772789841038965500,24.649965576171876,-0.984039306640625,-0.167816162109375,-0.0172271728515625
1772789841059001300,24.67000146484375,-0.98504638671875,-0.1634368896484375,-0.01446533203125
1772789841079036400,24.690036376953124,-0.99212646484375,-0.158905029296875,-0.01568603515625
1772789841099071500,24.710071533203124,-0.9915008544921875,-0.15972900390625,-0.0174560546875
1772789841119106600,24.7301064453125,-0.9857940673828125,-0.1645965576171875,-0.0208740234375
1772789841139141600,24.7501416015625,-0.9759368896484375,-0.1699676513671875,-0.022369384765625
1772789841159176700,24.7701767578125,-0.980621337890625,-0.163665771484375,-0.0180511474609375
1772789841179211500,24.79021142578125,-0.993255615234375,-0.160400390625,-0.0158843994140625
1772789841199246300,24.810246337890625,-0.9868316650390625,-0.1641693115234375,-0.0123443603515625
1772789841219281400,24.830281494140625,-0.9842681884765625,-0.1677703857421875,-0.01690673828125
1772789841239316500,24.85031640625,-0.9845428466796875,-0.1692962646484375,-0.01165771484375
1772789841259351600,24.8703515625,-0.9960174560546875,-0.164642333984375,-0.01141357421875
1772789841279386600,24.89038671875,-0.9986419677734375,-0.1614990234375,-0.01312255859375
1772789841299422500,24.91042236328125,-0.9907989501953125,-0.165740966796875,-0.0115203857421875
1772789841319457500,24.93045751953125,-0.987579345703125,-0.1646728515625,-0.0187530517578125
1772789841339492600,24.95049267578125,-0.9927520751953125,-0.1626739501953125,-0.02105712890625
1772789841359527700,24.970527587890626,-0.98712158203125,-0.1646575927734375,-0.018035888671875
1772789841379562500,24.9905625,-0.98779296875,-0.161376953125,-0.015289306640625
1772789841399597300,25.010597412109377,-0.9869537353515625,-0.1583404541015625,-0.0116119384765625
1772789841419632400,25.03063232421875,-0.98883056640625,-0.161529541015625,-0.0180511474609375
1772789841439667500,25.05066748046875,-0.9828643798828125,-0.1649627685546875,-0.0177154541015625
1772789841459702500,25.07070263671875,-0.9774932861328125,-0.1676177978515625,-0.01446533203125
1772789841479737600,25.090737548828123,-0.9832916259765625,-0.162933349609375,-0.0120697021484375
1772789841499772700,25.110772705078126,-0.989013671875,-0.163330078125,-0.0152435302734375
1772789841519807500,25.130807373046874,-0.9882965087890625,-0.1656036376953125,-0.0213165283203125
1772789841539842600,25.150842529296874,-0.987640380859375,-0.1673431396484375,-0.0202484130859375
1772789841559878700,25.170878662109374,-0.9888916015625,-0.1645355224609375,-0.0151519775390625
1772789841579913700,25.190913818359373,-0.9942779541015625,-0.1631927490234375,-0.0157470703125
1772789841599948300,25.2109482421875,-0.9939117431640625,-0.1628570556640625,-0.017852783203125
1772789841619983400,25.2309833984375,-0.9936676025390625,-0.1649017333984375,-0.0181427001953125
1772789841640018400,25.251018310546876,-0.9854278564453125,-0.1667022705078125,-0.0181732177734375
1772789841660053500,25.271053466796875,-0.9863739013671875,-0.164154052734375,-0.019683837890625
1772789841680088600,25.291088623046875,-0.9884490966796875,-0.1637115478515625,-0.019622802734375
1772789841700123600,25.31112353515625,-0.9803466796875,-0.1677703857421875,-0.0231781005859375
1772789841720158500,25.331158447265626,-0.9812774658203125,-0.1718292236328125,-0.030609130859375
1772789841740193500,25.351193603515625,-0.9829864501953125,-0.1667633056640625,-0.0271148681640625
1772789841760228600,25.371228515625,-0.98175048828125,-0.1660614013671875,-0.024383544921875
1772789841780263400,25.391263427734376,-0.994354248046875,-0.1576385498046875,-0.0232696533203125
1772789841800299500,25.411299560546876,-0.992218017578125,-0.1650543212890625,-0.0249176025390625
1772789841820334300,25.431334228515624,-0.98760986328125,-0.1672821044921875,-0.02423095703125
1772789841840369400,25.451369384765623,-0.9930877685546875,-0.16217041015625,-0.02081298828125
1772789841860404500,25.471404541015627,-0.988494873046875,-0.1665496826171875,-0.024749755859375
