time,seconds_elapsed,z,y,x
1772789816475960000,0.0869599609375,0.02738363854587078,-0.020912010222673416,0.022089067846536636
1772789816495995100,0.1069951171875,0.041495565325021744,-0.005854093469679356,0.026290886104106903
1772789816516030000,0.127030029296875,0.0031298191752284765,-0.058533187955617905,0.03650706633925438
1772789816536064800,0.147064697265625,-0.02106855995953083,-0.060258544981479645,0.035021599382162094
1772789816556099800,0.167099853515625,-0.006476673763245344,-0.03068426623940468,0.02853136509656906
1772789816576135000,0.187135009765625,-0.0012410166673362255,-0.019188713282346725,0.009038148447871208
1772789816596170000,0.207169921875,-0.03417954966425896,-0.047825224697589874,0.03694013133645058
1772789816616205000,0.227205078125,-0.04981210082769394,-0.0706183910369873,0.05142143368721008
1772789816636240100,0.247240234375,-0.0789378210902214,-0.110403873026371,0.07216456532478333
1772789816656275000,0.26727490234375,-0.1170966848731041,-0.16401150822639465,0.06298548728227615
1772789816676309800,0.287309814453125,-0.14391185343265533,-0.21150106191635132,0.04664440453052521
1772789816696344800,0.3073447265625,-0.14165934920310974,-0.23044990003108978,0.028749588876962662
1772789816716380000,0.3273798828125,-0.1312517374753952,-0.20605598390102386,0.018460934981703758
1772789816736415000,0.3474150390625,-0.09710575640201569,-0.11825937032699585,-0.01688293181359768
1772789816756450000,0.367449951171875,-0.10051418095827103,-0.09496694803237915,-0.01965216174721718
1772789816776484900,0.38748486328125,-0.12375833094120026,-0.11829337477684021,-0.04615266993641853
1772789816796520000,0.40752001953125,-0.11667037010192871,-0.13612313568592072,-0.0743480697274208
1772789816816556000,0.42755615234375,-0.12125436216592789,-0.09210468083620071,-0.07626619935035706
1772789816836591000,0.447591064453125,-0.1266050934791565,-0.07731226831674576,-0.06996683776378632
1772789816856626000,0.4676259765625,-0.13398981094360352,-0.11571335792541504,-0.06744320690631866
1772789816876660700,0.48766064453125,-0.16657738387584686,-0.1341618448495865,-0.06985726952552795
1772789816896695800,0.50769580078125,-0.15135297179222107,-0.11083794385194778,-0.09346269071102142
1772789816916731000,0.52773095703125,-0.12316837906837463,-0.05746680498123169,-0.05699530243873596
1772789816936766500,0.547766357421875,-0.09531155228614807,0.012122003361582756,-0.04272162914276123
1772789816956801500,0.567801513671875,-0.07406336069107056,0.022758249193429947,-0.021340394392609596
1772789816976836000,0.587836181640625,-0.08249984681606293,0.004417899996042252,-0.005561036057770252
1772789816996871200,0.60787109375,-0.06953158229589462,-0.0051447125151753426,-0.02014450542628765
1772789817016906200,0.62790625,-0.06215638294816017,0.003372490406036377,-0.010306872427463531
1772789817036941300,0.64794140625,-0.05529855936765671,-0.0036735069006681442,-0.009067399427294731
1772789817056976400,0.667976318359375,-0.07098563015460968,-0.02353900671005249,-0.0010012262500822544
1772789817077011500,0.688011474609375,-0.0768958106637001,0.004271424375474453,0.009758524596691132
1772789817097046300,0.70804638671875,-0.07654481381177902,0.02838396281003952,0.02277529239654541
1772789817117081300,0.728081298828125,-0.06343501061201096,0.0047361161559820175,-0.0005155112594366074
1772789817137116400,0.748116455078125,-0.07497952878475189,-0.004865816794335842,-0.011685315519571304
1772789817157151200,0.768151123046875,-0.07510028779506683,0.009379187598824501,-0.010571258142590523
1772789817177186300,0.788186279296875,-0.06902414560317993,-0.006384817883372307,0.011036960408091545
1772789817197221400,0.808221435546875,-0.06740238517522812,-0.036503978073596954,0.020911548286676407
1772789817217256200,0.828256103515625,-0.0451948344707489,0.0019019274041056633,-0.01878894865512848
1772789817237291300,0.848291259765625,-0.034788183867931366,0.04541989415884018,-0.031621500849723816
1772789817257326300,0.868326416015625,-0.02644704282283783,0.0028937077149748802,-0.03499368578195572
1772789817277362400,0.888362548828125,-0.05173924192786217,-0.09195118397474289,-0.05896734818816185
1772789817297397200,0.908397216796875,-0.07771770656108856,-0.21973466873168945,-0.07300820201635361
1772789817317432300,0.928432373046875,-0.05893006548285484,-0.18523752689361572,-0.04891813173890114
1772789817337467400,0.94846728515625,0.01728092133998871,0.0069520128890872,-0.012425525113940239
1772789817357502200,0.968502197265625,0.05365746468305588,0.09012719243764877,0.018572989851236343
1772789817377537300,0.988537353515625,0.0247845146805048,-0.05149764567613602,0.0005498630926012993
1772789817397572400,1.008572265625,-0.007091966457664967,-0.1328991949558258,-0.033901531249284744
1772789817417607400,1.028607421875,0.014178824611008167,-0.05915764719247818,-0.0311069767922163
1772789817437642200,1.048642333984375,0.03179993852972984,0.0013716388493776321,-0.03663335740566254
1772789817457677300,1.06867724609375,0.012373368255794048,-0.0027419235557317734,-0.00438473466783762
1772789817477712400,1.08871240234375,-0.00525413965806365,-0.08120758086442947,0.023838205263018608
1772789817497747500,1.10874755859375,-0.013686280697584152,-0.06374967098236084,0.04595604166388512
1772789817517782300,1.1287822265625,-0.006577543914318085,-0.030086152255535126,0.012771477922797203
1772789817537817300,1.1488173828125,-0.0222771055996418,-0.06628899276256561,-0.028726451098918915
1772789817557852200,1.16885205078125,-0.06668844819068909,-0.14274224638938904,-0.029081283137202263
1772789817577887200,1.18888720703125,-0.09843283891677856,-0.18878953158855438,-0.031715892255306244
1772789817597922300,1.20892236328125,-0.08423373103141785,-0.18465813994407654,-0.03814706206321716
1772789817617957400,1.228957275390625,-0.06293439865112305,-0.13332132995128632,-0.0476565919816494
1772789817637992400,1.248992431640625,-0.07753812521696091,-0.11754803359508514,-0.03507737070322037
1772789817658027500,1.269027587890625,-0.08365707099437714,-0.0965985357761383,-0.02942691743373871
1772789817678062000,1.28906201171875,-0.072470523416996,-0.115682452917099,-0.04298790171742439
1772789817698097200,1.30909716796875,-0.07503951340913773,-0.11832977831363678,-0.06754988431930542
1772789817718133200,1.32913330078125,-0.06058267876505852,-0.0911400318145752,-0.07594753056764603
1772789817738168300,1.349168212890625,-0.02946261689066887,-0.03375254198908806,-0.06648609787225723
1772789817758203400,1.369203369140625,-0.013671386986970901,0.01691180095076561,-0.03426048904657364
1772789817778238200,1.38923828125,-0.012672578915953636,0.002569856122136116,-0.06895354390144348
1772789817798273300,1.409273193359375,-0.021250413730740547,-0.012045303359627724,-0.0975995808839798
1772789817818308400,1.429308349609375,-0.06610669195652008,-0.04765865206718445,-0.08648128807544708
1772789817838343400,1.449343505859375,-0.11147124320268631,-0.09303039312362671,-0.12387686222791672
1772789817858378500,1.46937841796875,-0.14904801547527313,-0.1498221755027771,-0.13382580876350403
1772789817878413300,1.489413330078125,-0.16341646015644073,-0.1802758127450943,-0.07211299985647202
1772789817898448100,1.5094482421875,-0.12711577117443085,-0.128183051943779,0.012066354975104332
1772789817918483200,1.529483154296875,-0.06521793454885483,-0.0006283111870288849,-0.01170138455927372
1772789817938518000,1.54951806640625,-0.01550954207777977,0.09389510750770569,-0.09401004761457443
1772789817958553000,1.569552978515625,-0.05334371700882912,-0.020102761685848236,-0.08962573856115341
1772789817978588200,1.589588134765625,-0.11133505403995514,-0.1346815526485443,-0.03369781747460365
1772789817998623200,1.609623291015625,-0.13591083884239197,-0.2108626514673233,-0.031975679099559784
1772789818018658000,1.629657958984375,-0.14413152635097504,-0.19377906620502472,-0.05180253088474274
1772789818038692900,1.64969287109375,-0.09049245715141296,-0.0698867216706276,-0.10070203244686127
1772789818058728000,1.66972802734375,-0.055747244507074356,-0.02175905555486679,-0.019248461350798607
1772789818078763000,1.689762939453125,-0.07103476673364639,-0.05790259689092636,0.08607103675603867
1772789818098798000,1.709798095703125,-0.08101753145456314,-0.040963172912597656,0.061398252844810486
1772789818118833200,1.729833251953125,-0.06879042088985443,0.024014759808778763,-0.030063219368457794
1772789818138868000,1.749867919921875,-0.06598374992609024,0.027577616274356842,-0.06983993947505951
1772789818158903000,1.769903076171875,-0.09991396963596344,0.04855960234999657,-0.023547805845737457
1772789818178937900,1.789937744140625,-0.08836010843515396,0.07634197175502777,0.01365256030112505
1772789818198974200,1.80997412109375,-0.08477022498846054,0.05851370841264725,0.0021796906366944313
1772789818219009000,1.830009033203125,-0.09712551534175873,0.027961596846580505,-0.020672021433711052
1772789818239043800,1.8500439453125,-0.09239511936903,0.03369757533073425,-0.01692183129489422
1772789818259079000,1.870078857421875,-0.07253748923540115,0.07056654989719391,0.0004078708589076996
1772789818279114000,1.890114013671875,-0.0649075135588646,0.06686857342720032,-0.0013927016407251358
1772789818299149000,1.910149169921875,-0.0672854632139206,0.00346977636218071,0.02032611332833767
1772789818319184100,1.93018408203125,-0.04544658586382866,0.02492116205394268,0.05017554387450218
1772789818339219200,1.95021923828125,0.008141523227095604,0.0975625067949295,0.0019384818151593208
1772789818359254000,1.97025390625,0.006752967834472656,0.0881752297282219,-0.014329411089420319
1772789818379288800,1.990288818359375,-0.0010458303149789572,0.02952256053686142,-0.003933264873921871
1772789818399324000,2.010323974609375,0.017422698438167572,0.008789222687482834,0.012555144727230072
1772789818419359000,2.03035888671875,0.025273961946368217,0.010147178545594215,0.03759821504354477
1772789818439394000,2.05039404296875,0.022748446092009544,-0.00814597774296999,0.02507472224533558
1772789818459429000,2.07042919921875,0.02764389105141163,0.04106159135699272,-0.025717400014400482
1772789818479464000,2.0904638671875,0.05349476635456085,0.05883407220244408,-0.05764828622341156
1772789818499499000,2.1104990234375,0.0454711951315403,-0.006887676194310188,-0.03638077899813652
1772789818519534000,2.1305341796875,0.0323212593793869,-0.04195394366979599,0.017143752425909042
1772789818539569200,2.150569091796875,0.042243584990501404,-0.013120487332344055,0.02419724501669407
1772789818559604000,2.17060400390625,0.04892691224813461,0.020380429923534393,0.005629255436360836
1772789818579639000,2.19063916015625,0.04377103969454765,0.0027462830767035484,-0.008308736607432365
1772789818599674000,2.210674072265625,0.034458957612514496,-0.022236252203583717,-0.031194740906357765
1772789818619709000,2.230708984375,0.03767505660653114,-0.0574861504137516,-0.025236818939447403
1772789818639745000,2.2507451171875,0.03739505261182785,-0.042055923491716385,0.012684885412454605
1772789818659780000,2.270780029296875,0.03717206418514252,-0.008637309074401855,0.019244326278567314
1772789818679815200,2.290815185546875,0.023480407893657684,0.001400868408381939,0.018738895654678345
1772789818699850000,2.31085009765625,0.030952639877796173,0.02896595001220703,0.014292849227786064
1772789818719885000,2.330885009765625,0.05064098909497261,0.03606773167848587,-0.003802199847996235
1772789818739920100,2.350920166015625,0.03727402910590172,-0.05077429115772247,-0.004226129502058029
1772789818759955000,2.370954833984375,0.02505362220108509,-0.05156189575791359,0.02566114068031311
1772789818779990000,2.390989990234375,0.04052804037928581,-0.00621228851377964,0.042735107243061066
1772789818800025000,2.411025146484375,0.03151322156190872,0.00780490692704916,0.03063105046749115
1772789818820060000,2.431059814453125,0.019990168511867523,0.026619575917720795,0.017319953069090843
1772789818840095000,2.451094970703125,0.01811991259455681,0.05936931073665619,0.02368023432791233
1772789818860130000,2.471130126953125,-0.0023969279136508703,0.03805844485759735,0.028233230113983154
1772789818880165000,2.4911650390625,-0.03356974571943283,0.0003849370405077934,-0.011426536366343498
1772789818900200200,2.5112001953125,-0.042274415493011475,-0.009920110926032066,-0.037350114434957504
1772789818920235000,2.531235107421875,-0.04824908450245857,0.02635394036769867,-0.04450862854719162
1772789818940270300,2.551270263671875,-0.049412935972213745,0.05962546169757843,-0.029495231807231903
1772789818960305400,2.571305419921875,-0.0618097223341465,0.06276888400316238,0.010939562693238258
1772789818980340500,2.591340576171875,-0.0681520625948906,0.025378018617630005,0.01565922424197197
1772789819000375600,2.61137548828125,-0.08277391642332077,0.0024024909362196922,0.02005186304450035
1772789819020410400,2.631410400390625,-0.09286919981241226,0.007268194109201431,0.03704874590039253
1772789819040445400,2.651445556640625,-0.08766034990549088,0.04606346786022186,0.0578121580183506
1772789819060481300,2.671481201171875,-0.06497315317392349,0.06343286484479904,0.03375396132469177
1772789819080516400,2.691516357421875,-0.054549239575862885,-0.020364779978990555,0.009202694520354271
1772789819100551400,2.711551513671875,-0.056638069450855255,-0.0571330264210701,0.02297462522983551
1772789819120586500,2.73158642578125,-0.028141731396317482,-0.0013409648090600967,0.027516087517142296
1772789819140621300,2.751621337890625,-0.006187267601490021,0.014764899387955666,0.019787713885307312
1772789819160656400,2.771656494140625,-0.02300574630498886,0.004357478581368923,0.00629811268299818
1772789819180691500,2.79169140625,-0.025712046772241592,0.006953781470656395,0.00083593325689435
1772789819200726500,2.8117265625,-0.006954890675842762,0.0506947860121727,0.007049363572150469
1772789819220761300,2.83176123046875,0.008267838507890701,0.04254699498414993,0.00870363600552082
1772789819240796400,2.85179638671875,0.008658667095005512,0.010291896760463715,0.021036598831415176
1772789819260831200,2.871831298828125,0.02886374108493328,0.011643748730421066,0.023084670305252075
1772789819280866300,2.8918662109375,0.04401041194796562,0.03763459995388985,0.032565779983997345
1772789819300901400,2.9119013671875,0.05448980629444122,0.045016855001449585,-0.0001869318075478077
1772789819320936400,2.9319365234375,0.04648860916495323,0.008679338730871677,-0.008446229621767998
1772789819340971500,2.951971435546875,0.04147506505250931,-0.027749817818403244,0.01974160596728325
1772789819361006600,2.972006591796875,0.05020910128951073,-0.01963246986269951,0.027378849685192108
1772789819381041400,2.99204150390625,0.06378407776355743,-0.021268822252750397,0.005497199948877096
1772789819401076200,3.012076171875,0.045598842203617096,-0.014101593755185604,0.0022296207025647163
1772789819421111300,3.032111328125,0.05313440039753914,-0.012858388014137745,0.007135025691241026
1772789819441146400,3.052146484375,0.05831174924969673,0.01342552900314331,-0.0037556225433945656
1772789819461182500,3.072182373046875,0.04063962399959564,0.004346346482634544,0.004088644403964281
1772789819481217300,3.09221728515625,0.03972987085580826,-0.03249617666006088,0.012980150058865547
1772789819501252400,3.11225244140625,0.02850472368299961,-0.046167705208063126,0.023386146873235703
1772789819521287400,3.132287353515625,0.026826629415154457,-0.010164068080484867,0.0016712839715182781
1772789819541322500,3.152322509765625,0.0304174292832613,0.013098889030516148,-0.009784633293747902
1772789819561357600,3.172357666015625,0.018484560772776604,-0.014923040755093098,0.011095704510807991
1772789819581392400,3.192392333984375,-0.00038895383477211,-0.04383202642202377,0.01631145179271698
1772789819601427200,3.21242724609375,-0.0020483871921896935,-0.022487953305244446,0.022647351026535034
1772789819621462300,3.232462158203125,0.007744137197732925,0.014431247487664223,0.022067774087190628
1772789819641497300,3.252497314453125,0.00903494842350483,0.020280806347727776,0.013005347922444344
1772789819661532400,3.272532470703125,0.0028208522126078606,-0.024456080049276352,0.025872815400362015
1772789819681567500,3.2925673828125,0.0010770177468657494,-0.04329529404640198,0.04049939289689064
1772789819701602600,3.3126025390625,0.006913169287145138,-0.007758721709251404,0.024477465078234673
1772789819721637400,3.332637451171875,0.004320153966546059,-0.02400386705994606,0.01513977162539959
1772789819741672400,3.35267236328125,0.0027273953892290592,-0.0015304405242204666,0.0005317628383636475
1772789819761707300,3.372707275390625,0.005804209969937801,-0.013043051585555077,-0.023799510672688484
1772789819781742300,3.392742431640625,-0.00560233648866415,-0.039800457656383514,-0.02520807459950447
1772789819801777400,3.41277734375,-0.008133035153150558,-0.04475034028291702,-0.03122267685830593
1772789819821812500,3.4328125,0.0018960796296596527,-0.007952695712447166,0.009023124352097511
1772789819841848300,3.452848388671875,0.01070721261203289,-0.010956509038805962,0.020959310233592987
1772789819861883400,3.47288330078125,-0.002383902668952942,-0.016174238175153732,0.02873421646654606
1772789819881918500,3.49291845703125,0.0008257387671619654,-0.019750863313674927,0.03463125228881836
1772789819901953500,3.51295361328125,0.007530080620199442,-0.02367807738482952,0.03833110257983208
1772789819921988600,3.532988525390625,-0.005754356272518635,-0.017848409712314606,0.013738434761762619
1772789819942023200,3.553023193359375,-0.007667043246328831,-0.014684293419122696,-0.0006138365715742111
1772789819962058200,3.573058349609375,-0.0112905977293849,-0.028503429144620895,0.006598297972232103
1772789819982093300,3.59309326171875,-0.015237853862345219,-0.013488727621734142,0.008415032178163528
1772789820002128400,3.61312841796875,-0.015712590888142586,0.015111095272004604,0.000015836674720048904
1772789820022163500,3.63316357421875,-0.023638879880309105,0.045065879821777344,0.015550816431641579
1772789820042198300,3.6531982421875,-0.02005121484398842,0.046413667500019073,0.026124805212020874
1772789820062233000,3.673233154296875,-0.017098423093557358,0.0039474694058299065,0.03447018191218376
1772789820082268200,3.69326806640625,-0.009408213198184967,-0.04827608913183212,0.015279872342944145
1772789820102303200,3.71330322265625,-0.004164963029325008,-0.012831992469727993,0.019815491512417793
1772789820122338300,3.73333837890625,0.0273024532943964,0.02549639344215393,0.007920198142528534
1772789820142373400,3.753373291015625,0.022645095363259315,0.009825213812291622,0.0030658338218927383
1772789820162408400,3.773408447265625,0.010476334020495415,-0.03362949937582016,-0.014867369085550308
1772789820182443300,3.793443359375,0.01929045468568802,-0.029964232817292213,-0.00002703256905078888
1772789820202479400,3.813479248046875,0.022426797077059746,0.000796896405518055,0.009192628785967827
1772789820222514400,3.833514404296875,0.016177095472812653,-0.006563251838088036,0.006158323958516121
1772789820242549200,3.85354931640625,0.008387861773371696,0.009806315414607525,-0.00760328583419323
1772789820262584300,3.873584228515625,0.01423194631934166,0.03363270312547684,-0.02930867299437523
1772789820282619100,3.893619140625,-0.005608600564301014,0.009286336600780487,-0.0024366138968616724
1772789820302654200,3.913654296875,-0.008126664906740189,-0.027060365304350853,-0.006329531781375408
1772789820322689300,3.933689208984375,-0.004200982395559549,0.008803038857877254,-0.011140422895550728
1772789820342724400,3.953724365234375,-0.003716490464285016,0.03627591207623482,-0.013596223667263985
1772789820362759400,3.973759521484375,-0.005583641119301319,0.045055970549583435,0.002860451117157936
1772789820382790400,3.993790283203125,-0.0042324066162109375,0.03212273120880127,0.01594442129135132
1772789820402825500,4.013825439453125,-0.008036240935325623,-0.022649062797427177,0.02035999670624733
1772789820422861300,4.033861328125,-0.011179856956005096,-0.016691656783223152,0.023718520998954773
1772789820442896400,4.053896484375,0.00920981727540493,0.02511722221970558,0.033190593123435974
1772789820462931200,4.07393115234375,0.004132233560085297,0.025058645755052567,0.027501318603754044
1772789820482966300,4.09396630859375,-0.007927419617772102,-0.018926378339529037,0.02164985053241253
1772789820503001000,4.1140009765625,-0.006480257026851177,-0.03367576375603676,0.03894175589084625
1772789820523036200,4.1340361328125,0.005080338567495346,0.023756710812449455,0.048368774354457855
1772789820543071200,4.1540712890625,0.0038138418458402157,0.0326230451464653,0.02885167859494686
1772789820563106300,4.174106201171875,-0.008726834319531918,0.016380976885557175,0.010718004778027534
1772789820583141400,4.194141357421875,-0.007818436250090599,0.004090779460966587,-0.0026126408483833075
1772789820603176400,4.214176513671875,0.0011451707687228918,-0.0016629518941044807,-0.00657133013010025
1772789820623211300,4.234211181640625,-0.0047778417356312275,-0.00867165345698595,-0.02241787128150463
1772789820643246000,4.25424609375,0.0018680151551961899,-0.021687299013137817,-0.028284218162298203
1772789820663281200,4.27428125,0.025259971618652344,-0.0128862876445055,0.0040502119809389114
1772789820683316200,4.294316162109375,0.05587261542677879,0.028423920273780823,0.039005428552627563
1772789820703351300,4.314351318359375,0.06044819951057434,0.00864593405276537,0.033056389540433884
1772789820723386400,4.334386474609375,0.05523858591914177,-0.01970982924103737,0.026898564770817757
1772789820743421400,4.35442138671875,0.08312780410051346,-0.01231157686561346,0.040600232779979706
1772789820763456300,4.374456298828125,0.10150459408760071,0.012960691936314106,0.06359297037124634
1772789820783492400,4.394492431640625,0.0858243927359581,-0.0056773340329527855,0.04331039637327194
1772789820803530200,4.4145302734375,0.06792151927947998,-0.04128928482532501,-0.0004753801040351391
1772789820823565300,4.4345654296875,0.042506955564022064,-0.06149052083492279,-0.016254104673862457
1772789820843600400,4.454600341796875,0.017150484025478363,-0.018527258187532425,0.0039022876881062984
1772789820863635200,4.47463525390625,0.008842258714139462,0.029888659715652466,0.0037944470532238483
1772789820883670300,4.494670166015625,-0.014184287749230862,0.02275324985384941,0.024679213762283325
1772789820903706400,4.514706298828125,-0.0315421000123024,0.037347692996263504,0.014567355625331402
1772789820923741400,4.534741455078125,-0.015465882606804371,0.04071434587240219,0.0022285738959908485
1772789820943776000,4.55477587890625,-0.007627381477504969,0.006245936267077923,-0.015332851558923721
1772789820963810600,4.574810546875,0.0022067693062126637,-0.06029354780912399,-0.02453235536813736
1772789820983845600,4.594845703125,0.022213518619537354,-0.04588574916124344,-0.07217681407928467
1772789821003880700,4.614880615234375,0.0462082140147686,0.019367307424545288,-0.11323604732751846
1772789821023915800,4.634915771484375,0.034693095833063126,0.01481939759105444,-0.14445585012435913
1772789821043950800,4.654950927734375,0.008744664490222931,-0.0604340136051178,-0.116018146276474
1772789821063986000,4.67498583984375,0.002952718874439597,-0.023733127862215042,-0.07978492975234985
1772789821084020700,4.695020751953125,0.0005350415594875813,0.0032580187544226646,-0.05693497508764267
1772789821104055800,4.715055908203125,-0.022042110562324524,0.021875888109207153,-0.046227000653743744
1772789821124090600,4.735090576171875,-0.035559169948101044,0.0314263179898262,-0.015827888622879982
1772789821144125700,4.755125732421875,-0.050315070897340775,0.0024181436747312546,0.04674480855464935
1772789821164160800,4.775160888671875,-0.051767438650131226,0.016487859189510345,0.08859815448522568
1772789821184195800,4.79519580078125,-0.03564625605940819,0.04450935870409012,0.06909924745559692
1772789821204231000,4.81523095703125,-0.03390633314847946,0.03767762705683708,0.03787205368280411
1772789821224266800,4.835266845703125,-0.02134307473897934,0.00461152195930481,0.022746529430150986
1772789821244301800,4.8553017578125,-0.009592387825250626,0.002677363343536854,0.016961637884378433
1772789821264337000,4.8753369140625,0.00020474637858569622,-0.003236067481338978,0.001027495600283146
1772789821284372000,4.8953720703125,0.027532489970326424,0.05004463344812393,-0.02197052352130413
1772789821304406800,4.91540673828125,0.05127041041851044,0.06846799701452255,-0.027626097202301025
1772789821324441600,4.935441650390625,0.04309106990695,-0.005772082135081291,-0.053767766803503036
1772789821344476700,4.9554765625,0.03255099430680275,-0.016453539952635765,-0.06453854590654373
1772789821364511700,4.97551171875,0.03732675313949585,0.040828339755535126,-0.056054405868053436
1772789821384546800,4.995546875,0.03202544525265694,0.0579846054315567,-0.04412209987640381
1772789821404582000,5.015581787109375,-0.001744501176290214,0.012226437218487263,-0.05807812884449959
1772789821424616700,5.03561669921875,-0.010265040211379528,0.0261261984705925,-0.03372747078537941
1772789821444651800,5.05565185546875,0.014574289321899414,0.05620080232620239,0.01931649073958397
1772789821464686800,5.075686767578125,0.00587443308904767,0.023896537721157074,-0.010685995221138
1772789821484721700,5.0957216796875,-0.01743711531162262,-0.02722911350429058,-0.04784659668803215
1772789821504756700,5.1157568359375,-0.004372223746031523,0.004716153256595135,-0.05696037411689758
1772789821524791800,5.135791748046875,0.026263121515512466,0.03168759122490883,-0.028201136738061905
1772789821544827600,5.15582763671875,0.007842079736292362,0.014633403159677982,-0.01946708932518959
1772789821564862700,5.17586279296875,-0.013345232233405113,-0.02751457318663597,-0.04969259724020958
1772789821584897800,5.195897705078125,-0.0028101936914026737,-0.019830694422125816,-0.054991379380226135
1772789821604932900,5.215932861328125,0.016453102231025696,0.014811675064265728,-0.03917016461491585
1772789821624968000,5.235968017578125,0.0003751516342163086,0.00683049950748682,-0.017158182337880135
1772789821645002800,5.256002685546875,-0.005459506530314684,-0.009854492731392384,-0.003128980752080679
1772789821665037800,5.276037841796875,0.011822097934782505,0.02637253701686859,-0.003061446128413081
1772789821685072600,5.29607275390625,0.013752942904829979,0.051447268575429916,-0.02705145999789238
1772789821705107700,5.316107666015625,-0.009543671272695065,-0.008372435346245766,-0.04227234423160553
1772789821725142800,5.336142822265625,-0.01061209011822939,-0.011629072949290276,-0.04920627549290657
1772789821745177900,5.356177734375,0.003631312632933259,0.028819644823670387,-0.03763534873723984
1772789821765212700,5.376212646484375,0.0022429863456636667,0.03230510652065277,-0.019852614030241966
1772789821785247700,5.396247802734375,0.004662959836423397,-0.00010998640209436417,-0.01672680675983429
1772789821805282800,5.41628271484375,0.005695942789316177,-0.03855324909090996,-0.007351689040660858
1772789821825318000,5.43631787109375,-0.006709740497171879,-0.02924766205251217,-0.005057468544691801
1772789821845353000,5.45635302734375,0.005144892260432243,0.024749133735895157,0.008467808365821838
1772789821865388800,5.476388916015625,0.01810455322265625,0.03202935308218002,0.015314336866140366
1772789821885423600,5.496423583984375,-0.0019780797883868217,-0.016345104202628136,0.0010701538994908333
1772789821905458700,5.516458740234375,-0.018784675747156143,-0.035865478217601776,-0.0009643086232244968
1772789821925493800,5.53649365234375,-0.01377619244158268,-0.007475873455405235,0.01126505620777607
1772789821945529600,5.556529541015625,-0.008912483230233192,-0.003879881463944912,0.006998450495302677
1772789821965564700,5.576564697265625,-0.015718456357717514,-0.023366764187812805,0.004382161423563957
1772789821985599700,5.596599853515625,-0.02075086534023285,-0.03528909757733345,-0.02503533661365509
1772789822005634600,5.616634521484375,-0.019339824095368385,-0.029199086129665375,-0.025761626660823822
1772789822025669600,5.636669677734375,-0.03267420828342438,-0.040503427386283875,0.005871602334082127
1772789822045704700,5.65670458984375,-0.03521197661757469,-0.025606129318475723,0.017820728942751884
1772789822065739500,5.676739501953125,-0.028692742809653282,-0.011763764545321465,0.017374806106090546
1772789822085774600,5.696774658203125,-0.02425665408372879,-0.007873954251408577,0.019903484731912613
1772789822105809700,5.7168095703125,-0.015455029904842377,0.007585197687149048,0.02035711333155632
1772789822125844700,5.7368447265625,-0.007088340353220701,0.00809027161449194,0.00589256826788187
1772789822145879800,5.7568798828125,-0.009670805186033249,-0.02131902612745762,-0.010938113555312157
1772789822165914600,5.77691455078125,-0.008776762522757053,-0.0229240283370018,-0.02987000346183777
1772789822185950700,5.79695068359375,-0.00010300963185727596,0.004567921161651611,-0.015136448666453362
1772789822205985500,5.816985595703125,-0.0004985700361430645,0.0069713592529296875,-0.020461365580558777
1772789822226020600,5.8370205078125,-0.005968788638710976,-0.01749114878475666,-0.025508973747491837
1772789822246055700,5.8570556640625,-0.013809071853756905,-0.049189455807209015,-0.006583055481314659
1772789822266090800,5.8770908203125,-0.021046357229351997,-0.04209376126527786,0.036246076226234436
1772789822286125600,5.89712548828125,-0.01878809742629528,0.007906672544777393,0.03647545352578163
1772789822306160600,5.91716064453125,-0.02903325855731964,0.009988818317651749,0.009844901040196419
1772789822326195700,5.93719580078125,-0.04723059758543968,0.0071079786866903305,-0.01847250945866108
1772789822346230800,5.957230712890625,-0.03804263100028038,-0.012618075124919415,-0.022213781252503395
1772789822366265600,5.977265625,-0.04487685114145279,-0.011259426362812519,-0.01502806693315506
1772789822386300700,5.99730078125,-0.05306171253323555,0.012732883915305138,-0.00613555358722806
1772789822406335500,6.01733544921875,-0.04259306937456131,0.03279748931527138,-0.024631483480334282
1772789822426370600,6.03737060546875,-0.038554757833480835,0.014929663389921188,0.0022758478298783302
1772789822446405600,6.057405517578125,-0.03395594656467438,-0.006461144424974918,0.02600025199353695
1772789822466440700,6.077440673828125,-0.02756708674132824,-0.03372843191027641,0.04169698804616928
1772789822486476500,6.0974765625,-0.02019939012825489,-0.02816963568329811,0.056356027722358704
1772789822506511600,6.11751171875,-0.014111402444541454,0.0023089107125997543,0.04130756855010986
1772789822526546700,6.137546630859375,-0.013993300497531891,0.011007552035152912,0.01726468838751316
1772789822546581800,6.157581787109375,-0.030204713344573975,0.0029391171410679817,0.028063450008630753
1772789822566616600,6.177616455078125,-0.029069826006889343,-0.0062794312834739685,0.037339985370635986
1772789822586651600,6.197651611328125,-0.037488874047994614,-0.006880252622067928,0.028322217985987663
1772789822606686700,6.217686767578125,-0.03733420744538307,0.004092271439731121,-0.00423322943970561
1772789822626721500,6.237721435546875,-0.04292163997888565,0.005532272160053253,-0.005576435010880232
1772789822646756600,6.257756591796875,-0.04795464873313904,0.010600695386528969,-0.004838520660996437
1772789822666791700,6.277791748046875,-0.0398346483707428,-0.03158050402998924,-0.0008800430223345757
1772789822686826800,6.29782666015625,-0.042470380663871765,-0.030636414885520935,0.010149172507226467
1772789822706861800,6.31786181640625,-0.025493977591395378,-0.005203706212341785,0.04325295239686966
1772789822726896600,6.337896728515625,-0.023923039436340332,0.016908008605241776,0.059095099568367004
1772789822746931500,6.357931396484375,-0.018549475818872452,0.004906876012682915,0.059225209057331085
1772789822766967600,6.377967529296875,-0.007867970503866673,-0.019174063578248024,0.09396183490753174
1772789822787002600,6.398002685546875,-0.0033936924301087856,-0.020796356722712517,0.10739193856716156
1772789822807037700,6.41803759765625,0.01307469792664051,0.024042798206210136,0.05792465806007385
1772789822827072500,6.438072509765625,0.020803682506084442,0.034807924181222916,0.0006595207378268242
1772789822847107600,6.458107666015625,0.008519873954355717,-0.03566483408212662,-0.011929553002119064
1772789822867142700,6.478142578125,0.013869593851268291,-0.010138342157006264,0.02852681092917919
1772789822887177700,6.498177734375,0.03601235896348953,0.0638149306178093,0.033842891454696655
1772789822907212800,6.518212890625,0.020066458731889725,0.043825943022966385,0.022200830280780792
1772789822927248000,6.538247802734375,0.0042110625654459,0.003833518363535404,0.014107216149568558
1772789822947282000,6.558281982421875,0.013417840003967285,0.0207742340862751,0.047934141010046005
1772789822967317000,6.57831689453125,0.028855260461568832,0.04751083254814148,0.057669222354888916
1772789822987351800,6.598351806640625,0.017708495259284973,0.03398502990603447,0.03049471229314804
1772789823007387000,6.618386962890625,0.019702158868312836,0.03240824490785599,0.007469775155186653
1772789823027422000,6.638421875,0.033476296812295914,0.03204472362995148,0.035766396671533585
1772789823047457000,6.65845703125,0.028958123177289963,0.013381853699684143,0.06401810050010681
1772789823067492900,6.678492919921875,0.034505829215049744,0.01556412409991026,0.05197737738490105
1772789823087528000,6.69852783203125,0.042495355010032654,0.021360130980610847,0.059196121990680695
1772789823107562800,6.718562744140625,0.030581621453166008,0.00885705929249525,0.04851079359650612
1772789823127597800,6.738597900390625,0.02272607572376728,0.0029101353138685226,0.03728770837187767
1772789823147633000,6.7586328125,0.02563808299601078,0.01565534994006157,0.04081517830491066
1772789823167668000,6.77866796875,0.03788718581199646,0.03203820437192917,0.020366555079817772
1772789823187702800,6.798702880859375,0.028691111132502556,0.008513466455042362,-0.004389574285596609
1772789823207737900,6.81873779296875,0.017264937981963158,0.004074480384588242,-0.02606992796063423
1772789823227773000,6.83877294921875,0.02522340416908264,0.01023868564516306,-0.04599819704890251
1772789823247808000,6.85880810546875,0.012510783970355988,-0.004104652442038059,-0.042693205177783966
1772789823267843000,6.878843017578125,0.004671420902013779,-0.01239805668592453,-0.020735332742333412
1772789823287878000,6.8988779296875,0.014572255313396454,0.00891494657844305,-0.016223708167672157
1772789823307912700,6.91891259765625,0.010602878406643867,0.004360108636319637,-0.000301566906273365
1772789823327947800,6.93894775390625,-0.003926492296159267,0.00029870402067899704,0.011808643117547035
1772789823347984000,6.95898388671875,-0.00177682563662529,-0.006272562779486179,0.015019066631793976
1772789823368019000,6.97901904296875,-0.01480210479348898,-0.0018584365025162697,0.02432609535753727
1772789823388054000,6.999053955078125,-0.004541108384728432,0.004358853213489056,0.019737083464860916
1772789823408088800,7.0190888671875,-0.007252472918480635,0.006170601584017277,0.038942739367485046
1772789823428124000,7.0391240234375,-0.004673650488257408,-0.035562410950660706,0.053459517657756805
1772789823448159000,7.059158935546875,-0.011435233987867832,-0.007763057015836239,0.030397452414035797
1772789823468194000,7.079194091796875,-0.0029342800844460726,0.027356622740626335,0.006010216195136309
1772789823488228900,7.099228759765625,-0.013939423486590385,0.018749158829450607,-0.020682502537965775
1772789823508264000,7.119263916015625,-0.025039929896593094,-0.01696775294840336,-0.04522410035133362
1772789823528298800,7.139298828125,-0.03672444075345993,-0.007006083615124226,-0.04487514868378639
1772789823548333800,7.159333740234375,-0.028813792392611504,0.014081372879445553,-0.02510753646492958
1772789823568369000,7.179368896484375,-0.02403716929256916,0.034691765904426575,-0.03281494602560997
1772789823588404000,7.199404052734375,-0.025276562198996544,0.016042085364460945,-0.02034923806786537
1772789823608439800,7.219439697265625,-0.01847732812166214,0.012532241642475128,-0.006616575643420219
1772789823628475000,7.239474853515625,0.0017111122142523527,0.002361161634325981,0.006269055884331465
1772789823648510000,7.259510009765625,0.0008403409738093615,-0.009612889029085636,0.002392981667071581
1772789823668545000,7.279544921875,0.003907321020960808,-0.017553316429257393,0.00632662745192647
1772789823688579800,7.299579833984375,0.01096422504633665,-0.004904378205537796,0.025726130232214928
1772789823708615000,7.319614990234375,0.009731673635542393,0.007569431327283382,0.01796596497297287
1772789823728649700,7.339649658203125,0.005076057277619839,0.003374389372766018,0.03589853271842003
1772789823748684800,7.359684814453125,-0.00014289794489741325,0.00649337749928236,0.02723761275410652
1772789823768720000,7.379719970703125,-0.011625814251601696,0.002913970500230789,0.0011508003808557987
1772789823788755000,7.3997548828125,-0.01833491027355194,0.0011949213221669197,-0.004060674924403429
1772789823808790000,7.4197900390625,-0.022325370460748672,0.0007603783160448074,-0.010423775762319565
1772789823828825000,7.4398251953125,-0.022992508485913277,0.0165200587362051,-0.0015086401253938675
1772789823848860000,7.45985986328125,-0.02931343950331211,0.010428408160805702,0.0014830813743174076
1772789823868896000,7.47989599609375,-0.038299765437841415,-0.01227458007633686,0.0011275946162641048
1772789823888930800,7.499930908203125,-0.04154296591877937,0.007352394983172417,-0.002702527679502964
1772789823908966000,7.5199658203125,-0.03334692120552063,0.01588260754942894,0.014116713777184486
1772789823929001000,7.5400009765625,-0.028701039031147957,0.002162553369998932,-0.0036467653699219227
1772789823949035800,7.560035888671875,-0.024309730157256126,-0.01761241815984249,-0.005073768086731434
1772789823969070800,7.58007080078125,-0.012631872668862343,-0.00856819562613964,0.002828215714544058
1772789823989106000,7.60010595703125,0.003865693463012576,-0.006309221498668194,0.02385600097477436
1772789824009141000,7.62014111328125,-0.005858185701072216,-0.026701360940933228,0.023904040455818176
1772789824029176000,7.640176025390625,-0.016642428934574127,-0.01748673804104328,0.01473582535982132
1772789824049211000,7.6602109375,-0.005691838450729847,-0.0054518915712833405,0.011568324640393257
1772789824069245700,7.68024560546875,-0.007033415138721466,-0.02426530420780182,-0.004726087674498558
1772789824089280800,7.70028076171875,-0.015137581154704094,-0.02213701233267784,-0.024267878383398056
1772789824109315800,7.72031591796875,-0.0038900678046047688,-0.00019661523401737213,-0.030773337930440903
1772789824129351000,7.740350830078125,-0.002523149596527219,-0.013953503221273422,-0.020539002493023872
1772789824149387000,7.760386962890625,-0.01039580162614584,-0.013383658602833748,-0.014845659956336021
1772789824169421800,7.780421875,-0.00887908972799778,0.009965233504772186,-0.011269621551036835
1772789824189457000,7.800456787109375,-0.006302789784967899,0.019044864922761917,-0.00369763164781034
1772789824209492000,7.820491943359375,-0.00019835354760289192,0.004156473092734814,-0.0007185912691056728
1772789824229527000,7.840527099609375,-0.0029846138786524534,0.0014022625982761383,0.013592537492513657
1772789824249561900,7.860561767578125,0.0024283628445118666,-0.01078315731137991,0.01265232264995575
1772789824269597000,7.880596923828125,0.0033152580726891756,-0.022310947999358177,-0.0005333544686436653
1772789824289631700,7.9006318359375,0.015458697453141212,0.005271517671644688,0.0023479745723307133
1772789824309666800,7.920666748046875,0.026295965537428856,0.020801976323127747,0.01344127207994461
1772789824329702000,7.940701904296875,0.013914762996137142,-0.021690987050533295,0.012698504142463207
1772789824349737000,7.960737060546875,-0.0021774922497570515,-0.029408976435661316,0.018635572865605354
1772789824369772000,7.98077197265625,0.008152971044182777,0.020050697028636932,0.012621026486158371
1772789824389803800,8.0008037109375,0.006503860466182232,0.0242680162191391,0.015451240353286266
1772789824409838800,8.0208388671875,-0.0033435258083045483,0.01059848815202713,-0.005009715911000967
1772789824429874000,8.0408740234375,-0.012921789661049843,0.0008214600384235382,-0.010233607143163681
1772789824449909000,8.060908935546875,-0.010001695714890957,0.010763595812022686,-0.011553138494491577
1772789824469944000,8.080944091796875,-0.009595174342393875,-0.00974545069038868,-0.025933271273970604
1772789824489979000,8.100978759765624,-0.018304837867617607,-0.007442851085215807,-0.027546780183911324
1772789824510013700,8.121013671875,-0.015372533351182938,0.015586942434310913,-0.025754161179065704
1772789824530048800,8.141048828125,-0.017704233527183533,0.008365641348063946,-0.02957487851381302
1772789824550083800,8.161083740234375,-0.022281428799033165,-0.0007837321609258652,-0.02930908463895321
1772789824570120000,8.181119873046875,-0.013295759446918964,0.003734980709850788,-0.0038155906368047
1772789824590155000,8.201155029296874,-0.004012471064925194,0.016473837196826935,0.022913169115781784
1772789824610189800,8.22118994140625,-0.0005715650040656328,-0.004195604473352432,0.02900826372206211
1772789824630225000,8.241224853515625,-0.00016348529607057571,0.0015204092487692833,0.025165017694234848
1772789824650260000,8.261260009765625,0.008495623245835304,0.020717913284897804,0.018758824095129967
1772789824670295000,8.281294921875,0.00411516847088933,-0.001756543293595314,0.01800156757235527
1772789824690329900,8.301329833984376,0.004070943221449852,-0.015096147544682026,0.017654530704021454
1772789824710365000,8.321364990234375,-0.0033492601942270994,-0.016796980053186417,0.016500169411301613
1772789824730399700,8.341399658203125,-0.004850383847951889,0.01866956055164337,-0.0072078704833984375
1772789824750434800,8.361434814453125,-0.010314861312508583,0.024748992174863815,-0.00025552278384566307
1772789824770470000,8.381469970703124,-0.01756001077592373,0.015592693351209164,0.004431384149938822
1772789824790505000,8.4015048828125,-0.022488556802272797,0.008238757029175758,0.01382150687277317
1772789824810542800,8.42154296875,-0.02180797979235649,-0.004578182473778725,0.011176087893545628
1772789824830578000,8.441577880859375,-0.018707159906625748,0.011668313294649124,0.005599344614893198
1772789824850613000,8.461613037109375,-0.01030152291059494,0.014668737538158894,0.01684059388935566
1772789824870647800,8.481647705078124,-0.005940739996731281,-0.006386790424585342,0.005825099069625139
1772789824890683000,8.501682861328124,-0.006918737199157476,-0.006362341344356537,0.003717050887644291
1772789824910718000,8.521718017578126,0.000852550845593214,-0.008824212476611137,0.002435416914522648
1772789824930753000,8.5417529296875,0.0016230440232902765,-0.008420059457421303,0.020580772310495377
1772789824950788400,8.561788330078125,0.005665847100317478,-0.003813881427049637,0.01167404092848301
1772789824970824200,8.58182421875,0.01608220487833023,0.021696018055081367,0.004242252092808485
1772789824990859000,8.60185888671875,0.00875325221568346,-0.0000878823921084404,0.015115270391106606
1772789825010894000,8.62189404296875,0.0008617080748081207,-0.011833986267447472,0.009532852098345757
1772789825030929200,8.64192919921875,0.0037660689558833838,0.01234772801399231,0.02185354381799698
1772789825050964200,8.661964111328125,0.002201707335188985,0.02718837559223175,0.006618674844503403
1772789825070999000,8.6819990234375,-0.011236787773668766,0.00805282685905695,-0.009879149496555328
1772789825091034000,8.7020341796875,-0.010745802894234657,-0.005592551082372665,-0.011963753029704094
1772789825111069200,8.722069091796875,-0.0082028117030859,0.006244156509637833,0.002648810390383005
1772789825131104300,8.742104248046875,-0.003767358371987939,0.015869716182351112,0.010616207495331764
1772789825151139300,8.762139404296875,-0.015295689925551414,0.009888086467981339,0.005248891655355692
1772789825171174100,8.782174072265626,-0.020388023927807808,0.015265402384102345,0.004371498711407185
1772789825191210000,8.8022099609375,-0.009923766367137432,0.02441001683473587,0.005205950699746609
1772789825211245000,8.8222451171875,-0.006698513403534889,0.004254265688359737,0.012101756408810616
1772789825231280000,8.842280029296875,-0.011626012623310089,-0.0008216910064220428,0.012004643678665161
1772789825251315200,8.862315185546874,0.002187984064221382,0.004789538681507111,0.0235919002443552
1772789825271350300,8.882350341796876,0.006316864863038063,0.016695678234100342,0.011091132648289204
1772789825291385000,8.902385009765625,-0.000905976165086031,-0.00028495583683252335,0.013080090284347534
1772789825311420200,8.922420166015625,-0.0019124867394566536,-0.009381388314068317,0.016447510570287704
1772789825331455200,8.942455322265625,0.003337340895086527,0.017999380826950073,0.014507158659398556
1772789825351490300,8.962490234375,0.00588973518460989,0.02637377753853798,-0.00305772852152586
1772789825371525000,8.982525146484376,-0.004294315818697214,0.011214839294552803,-0.01137864775955677
1772789825391560200,9.002560302734375,-0.006671862211078405,-0.010847371071577072,-0.0034657614305615425
1772789825411595000,9.022594970703125,-0.006764458492398262,0.002929224632680416,0.011322432197630405
1772789825431631000,9.042631103515625,-0.0025093627627938986,0.02140902727842331,-0.0016965775284916162
1772789825451666200,9.062666259765624,-0.009691454470157623,0.010384265333414078,-0.0019487414974719286
1772789825471701200,9.082701171875,-0.006534034386277199,-0.006797982379794121,-0.004286116920411587
1772789825491736000,9.102736083984375,0.0019746017642319202,-0.006189577281475067,-0.004537105094641447
1772789825511771100,9.122771240234375,0.0008098778780549765,-0.006593270227313042,0.006259478162974119
1772789825531806200,9.14280615234375,0.00014929124154150486,0.0040863147005438805,0.00602897722274065
1772789825551841300,9.16284130859375,0.0052965073846280575,0.022861279547214508,-0.007445184979587793
1772789825571876000,9.1828759765625,0.0075441934168338776,-0.003009272739291191,-0.014229275286197662
1772789825591911200,9.2029111328125,-0.0013108171988278627,-0.02530045434832573,-0.004411762580275536
1772789825611946000,9.222946044921875,0.0056670960038900375,-0.006093628704547882,-0.015623091720044613
1772789825631981000,9.24298095703125,0.008964117616415024,0.0064057111740112305,-0.021725807338953018
1772789825652016000,9.26301611328125,-0.00376217532902956,-0.009507055394351482,-0.020404687151312828
1772789825672051200,9.28305126953125,-0.0007842490449547768,-0.0076692840084433556,-0.008551711216568947
1772789825692087300,9.30308740234375,0.0016688704490661621,-0.00322894100099802,0.0062217991799116135
1772789825712122000,9.3231220703125,-0.007058717310428619,-0.022699087858200073,-0.004345751833170652
1772789825732157200,9.3431572265625,-0.013459051959216595,-0.018973954021930695,-0.009337067604064941
1772789825752192300,9.363192138671875,-0.0032975554931908846,0.0023510539904236794,0.0025297398678958416
1772789825772227000,9.38322705078125,-0.006991216912865639,-0.0012598838657140732,0.012303137220442295
1772789825792262100,9.40326220703125,-0.019563263282179832,-0.030058478936553,0.008148172870278358
1772789825812297200,9.423297119140624,-0.01725618727505207,-0.02996562048792839,0.01263614185154438
1772789825832332000,9.44333203125,-0.004374434240162373,0.014861389063298702,0.018679562956094742
1772789825852367000,9.4633671875,0.0036452440544962883,0.02397514320909977,0.011405320838093758
1772789825872402200,9.483402099609375,-0.004671972710639238,-0.012620536610484123,0.004499927628785372
1772789825892437200,9.503437255859374,-0.00014367490075528622,-0.035025231540203094,-0.0003700931556522846
1772789825912472300,9.523472412109374,0.015435528010129929,-0.00957560446113348,-0.010320683009922504
1772789825932508200,9.543508056640626,0.004749513231217861,-0.01170139480382204,0.0032895109616219997
1772789825952543700,9.563543701171875,0.0027555443812161684,-0.007813949137926102,0.004657145123928785
1772789825972578800,9.583578857421875,0.005516748875379562,0.011155365966260433,0.0061401682905852795
1772789825992613600,9.603613525390625,0.008757447823882103,0.0065977610647678375,-0.021860187873244286
1772789826012648700,9.623648681640624,-0.009105376899242401,-0.023166291415691376,-0.02659778669476509
1772789826032683500,9.64368359375,0.0012276254128664732,-0.023455478250980377,-0.019572798162698746
1772789826052718600,9.663718505859375,0.011716076172888279,-0.008310125209391117,0.006721260491758585
1772789826072753700,9.683753662109375,-0.0009056688286364079,-0.010177372954785824,0.0019813119433820248
1772789826092788700,9.703788818359374,-0.0056695519015192986,-0.0088309645652771,0.004891357384622097
1772789826112823800,9.72382373046875,-0.0012541126925498247,0.002159048803150654,-0.0004372522234916687
1772789826132859000,9.74385888671875,-0.002234094776213169,-0.006545514799654484,-0.002411251189187169
1772789826152893400,9.7638935546875,-0.008214998058974743,-0.01613948680460453,-0.002595889614894986
1772789826172928500,9.783928466796874,-0.007582582533359528,-0.02491038665175438,0.003152423072606325
1772789826192964600,9.803964599609374,-0.009081756696105003,0.006267433986067772,0.002497855108231306
1772789826212999700,9.823999755859376,-0.001813130802474916,0.012357538565993309,-0.0011256698053330183
1772789826233034500,9.844034423828125,-0.010289276018738747,-0.012389492243528366,-0.0041993712075054646
1772789826253069600,9.864069580078125,-0.006048151291906834,-0.018416862934827805,0.00017508259043097496
1772789826273104600,9.884104736328124,0.001692429417744279,-0.013644340448081493,0.020130563527345657
1772789826293139700,9.9041396484375,-0.002598926890641451,0.00752804521471262,0.006276770029217005
1772789826313174800,9.9241748046875,-0.008069326169788837,0.010503062047064304,-0.006799617316573858
1772789826333209900,9.9442099609375,-0.004141409415751696,0.01289119478315115,0.005862070247530937
1772789826353244400,9.964244384765625,0.0033662666101008654,0.002385130152106285,0.018432777374982834
1772789826373279500,9.984279541015624,0.00043390272185206413,-0.007651908323168755,0.0018486506305634975
1772789826393314600,10.004314453125,0.006304962560534477,-0.00848684087395668,-0.0026327429804950953
1772789826413350700,10.0243505859375,0.015032593160867691,0.002334318123757839,-0.01087009347975254
1772789826433385700,10.0443857421875,0.01275571621954441,0.005365205928683281,-0.007835052907466888
1772789826453420500,10.064420654296875,0.007158998399972916,0.004114534705877304,-0.008570241741836071
1772789826473455600,10.08445556640625,0.001971630612388253,0.007080528885126114,0.0036955787800252438
1772789826493490700,10.10449072265625,0.001138041028752923,0.016876615583896637,0.012848339974880219
1772789826513525800,10.12452587890625,0.004568234086036682,0.016822446137666702,0.00408781785517931
1772789826533560800,10.144560791015625,0.0019176732748746872,0.019249703735113144,0.005656576249748468
1772789826553595600,10.164595703125,0.008843406103551388,0.0164506696164608,0.018169548362493515
1772789826573630500,10.18463037109375,0.009831049479544163,0.012514825910329819,0.013608481734991074
1772789826593665500,10.20466552734375,0.00024352665059268475,0.0014088703319430351,-0.0067730862647295
1772789826613700600,10.22470068359375,-0.000581089174374938,0.014319193549454212,-0.019651783630251884
1772789826633735700,10.244735595703125,-0.0006942953914403915,0.018730653449892998,-0.013305122964084148
1772789826653771500,10.264771484375,0.0030937870033085346,0.01622513122856617,-0.0238712877035141
1772789826673806600,10.284806640625,0.0001023376826196909,0.0004539657384157181,-0.014416303485631943
1772789826693841700,10.304841552734375,0.004351678770035505,-0.003850512206554413,0.0005192006938159466
1772789826713876700,10.324876708984375,0.013555480167269707,0.016348188742995262,0.008034520782530308
1772789826733911800,10.344911865234375,0.01904456317424774,0.05013027787208557,-0.0042954375967383385
1772789826753946600,10.364946533203126,0.012311641126871109,0.017316993325948715,-0.015691213309764862
1772789826773981700,10.384981689453125,0.003336603520438075,-0.03319910168647766,0.011021053418517113
1772789826794016500,10.4050166015625,0.01965692639350891,0.018178347498178482,0.02528630569577217
1772789826814051600,10.425051513671875,0.02756843902170658,0.03893527761101723,0.02045503444969654
1772789826834086700,10.445086669921874,0.006915830075740814,0.005727279931306839,-0.0018864250741899014
1772789826854121700,10.465121826171876,0.002212585648521781,-0.011578623205423355,0.0033065550960600376
1772789826874157600,10.485157470703125,0.015761950984597206,0.02859383076429367,0.019573675468564034
1772789826894192600,10.505192626953125,0.013437645509839058,0.02777983993291855,0.02761257439851761
1772789826914227700,10.525227783203125,0.004605087451636791,-0.0019063511863350868,0.006319196429103613
1772789826934262800,10.5452626953125,0.007845808751881123,0.013024878688156605,-0.021631598472595215
1772789826954297600,10.565297607421876,0.015580076724290848,0.02522500604391098,-0.016752418130636215
1772789826974332700,10.585332763671875,0.012319384142756462,0.008342759683728218,0.004404458217322826
1772789826994367500,10.605367431640625,0.013084694743156433,-0.01666385307908058,0.01570964977145195
1772789827014402600,10.625402587890624,0.011698458343744278,-0.009958249516785145,0.0043439120054244995
1772789827034437400,10.645437255859376,0.015594705939292908,0.028084907680749893,-0.009488033130764961
1772789827054472400,10.665472412109375,0.01896560937166214,0.018236039206385612,0.000322612002491951
1772789827074507500,10.685507568359375,0.00020859786309301853,-0.0097613874822855,0.013958079740405083
1772789827094542600,10.70554248046875,0.0025571982841938734,0.0036019273102283478,-0.0043050250969827175
1772789827114578400,10.725578369140624,0.006965611129999161,0.043402932584285736,0.009944677352905273
1772789827134613500,10.745613525390626,0.010451958514750004,0.03639081120491028,0.0001457706093788147
1772789827154648600,10.765648681640625,-0.007418404333293438,-0.003774805925786495,0.005234813783317804
1772789827174683600,10.78568359375,-0.008376242592930794,-0.011385169811546803,0.020067473873496056
1772789827194718700,10.80571875,-0.0036592751275748014,0.022766077890992165,0.026401350274682045
1772789827214753500,10.82575341796875,-0.009967709891498089,0.03183598443865776,0.013384021818637848
1772789827234788400,10.845788330078125,-0.01789378747344017,0.03572455048561096,-0.02652585320174694
1772789827254823400,10.865823486328125,-0.027459103614091873,-0.0020278021693229675,-0.029927261173725128
1772789827274858500,10.8858583984375,-0.03549371659755707,-0.01132859569042921,-0.03179537504911423
1772789827294893600,10.9058935546875,-0.03353395685553551,0.003779805265367031,-0.019461413845419884
1772789827314928600,10.9259287109375,-0.02268116921186447,0.04079407453536987,-0.0024657531175762415
1772789827334963500,10.94596337890625,-0.012302462011575699,0.03317464888095856,0.0027278601191937923
1772789827354999600,10.96599951171875,-0.02336099185049534,0.0002741478383541107,-0.008127937093377113
1772789827375034600,10.98603466796875,-0.022640729323029518,0.012652020901441574,-0.00998273678123951
1772789827395069700,11.006069580078124,0.00135748740285635,0.0618898831307888,-0.011369150131940842
1772789827415104500,11.0261044921875,0.004254493396729231,0.03821446746587753,-0.014579600654542446
1772789827435139300,11.046139404296875,-0.0059943958185613155,-0.012056063860654831,-0.019818011671304703
1772789827455174400,11.06617431640625,0.0004968750290572643,0.00363959651440382,-0.01415091473609209
1772789827475209500,11.08620947265625,0.007820670492947102,0.030364565551280975,-0.02221744693815708
1772789827495244500,11.10624462890625,0.00012483145110309124,0.0020166663452982903,-0.011230225674808025
1772789827515279600,11.126279541015625,-0.009412379004061222,-0.004346010275185108,-0.008467279374599457
1772789827535314400,11.146314453125,-0.0014743553474545479,0.012976267375051975,-0.0021473036613315344
1772789827555349500,11.166349609375,-0.00050187180750072,0.022700928151607513,-0.0018145556095987558
1772789827575385600,11.186385498046874,-0.01409460511058569,0.013982972130179405,0.0028603384271264076
1772789827595420700,11.206420654296876,-0.009825927205383778,0.019047889858484268,0.0007208380848169327
1772789827615455700,11.226455810546875,-0.0058817025274038315,0.017164023593068123,0.009283590130507946
1772789827635490300,11.246490234375,-0.0034191389568150043,0.008641929365694523,0.0039903549477458
1772789827655525400,11.266525390625,0.0002797457855194807,0.008979170583188534,0.0060234032571315765
1772789827675560400,11.286560546875,0.0038939618971198797,0.014335756190121174,0.021183960139751434
1772789827695595500,11.306595458984376,0.01844213716685772,0.02673405036330223,0.02202269248664379
1772789827715630600,11.326630615234375,0.017259631305933,0.014317083172500134,0.0075668515637516975
1772789827735665700,11.346665771484375,0.025388192385435104,0.005638894625008106,0.0016761776059865952
1772789827755700500,11.366700439453124,0.035120878368616104,0.02278204821050167,-0.014880344271659851
1772789827775735600,11.386735595703126,0.02908707596361637,0.017832797020673752,-0.017122820019721985
1772789827795771600,11.406771728515626,0.015864629298448563,-0.01185636967420578,-0.016978686675429344
1772789827815806700,11.426806640625,0.021305013447999954,-0.017411913722753525,0.013022053986787796
1772789827835841500,11.446841552734375,0.019534913823008537,0.0013076001778244972,0.025189455598592758
1772789827855876400,11.46687646484375,0.020813822746276855,0.03640908747911453,0.019529836252331734
1772789827875911400,11.486911376953126,0.027906132861971855,0.031254421919584274,0.032707329839468
1772789827895946500,11.506946533203125,0.018835769966244698,-0.006588924676179886,0.01882852241396904
1772789827915981600,11.526981689453125,0.01807781495153904,-0.003849681466817856,-0.004298624116927385
1772789827936016600,11.5470166015625,0.026304135099053383,0.0353824719786644,-0.002716513816267252
1772789827956051200,11.56705126953125,0.022659823298454285,0.045867711305618286,-0.017689814791083336
1772789827976086000,11.5870859375,-0.007926478050649166,-0.00593169778585434,-0.0496063195168972
1772789827996121000,11.60712109375,-0.02201482467353344,-0.039327844977378845,-0.04226350784301758
1772789828016157200,11.6271572265625,0.0010728368069976568,0.018501853570342064,-0.021245431154966354
1772789828036192300,11.647192138671874,0.005639194510877132,0.014819621108472347,-0.01603354886174202
1772789828056227000,11.66722705078125,-0.005740083754062653,-0.01723785325884819,-0.0005792910233139992
1772789828076262000,11.687261962890625,-0.013423283584415913,-0.035576578229665756,-0.012260262854397297
1772789828096297000,11.707296875,-0.014352562837302685,-0.026951005682349205,-0.010540807619690895
1772789828116332000,11.72733203125,-0.012062141671776772,0.004543950781226158,-0.003385775489732623
1772789828136367000,11.7473671875,0.0087511595338583,0.0022084685042500496,-0.021820396184921265
1772789828156402200,11.767402099609376,0.004341598600149155,-0.04454556480050087,-0.03432584926486015
1772789828176437200,11.787437255859375,-0.010110557079315186,-0.03982263803482056,-0.014816907234489918
1772789828196472000,11.80747216796875,0.010134425014257431,0.01701413094997406,-0.007263566832989454
1772789828216507000,11.8275068359375,0.012323543429374695,0.005301015451550484,0.027267780154943466
1772789828236543200,11.847543212890624,-0.0017773829167708755,-0.024300895631313324,0.048616789281368256
1772789828256578000,11.867578125,0.014323925599455833,-0.011880038306117058,0.03681141138076782
1772789828276613000,11.887613037109375,0.012035311199724674,-0.013583269901573658,0.024285076186060905
1772789828296648000,11.90764794921875,-0.0007471076678484678,-0.012403903529047966,0.020759940147399902
1772789828316683000,11.92768310546875,0.011148536577820778,0.020370427519083023,0.011369248852133751
1772789828336718000,11.947718017578126,0.014708690345287323,0.013118819333612919,0.00697025703266263
1772789828356753200,11.967753173828125,-0.0012112746480852365,-0.031708549708127975,-0.000883348286151886
1772789828376788200,11.987788330078125,-0.012557592242956161,-0.0281294547021389,-0.004360675811767578
1772789828396821000,12.007821044921876,0.006332435179501772,0.0303744338452816,-0.0034306810703128576
1772789828416856000,12.02785595703125,0.00846490915864706,0.04541044682264328,0.013712314888834953
1772789828436891100,12.04789111328125,0.00082188262604177,0.01612570881843567,-0.019480248913168907
1772789828456926200,12.06792626953125,-0.007603539153933525,-0.028473632410168648,-0.030868202447891235
1772789828476961000,12.0879609375,-0.013795347884297371,-0.014490277506411076,-0.032091978937387466
1772789828496996000,12.10799609375,0.0041997358202934265,0.02030085399746895,-0.02738739363849163
1772789828517031000,12.128031005859375,0.0010321917943656445,0.04556317254900932,-0.011770288459956646
1772789828537066000,12.14806591796875,-0.012479091063141823,0.026729553937911987,-0.00878359004855156
1772789828557102000,12.16810205078125,-0.014080018736422062,-0.021677007898688316,0.003220692276954651
1772789828577137000,12.188136962890624,-0.01507155504077673,0.0011615687981247902,0.013191621750593185
1772789828597172000,12.208171875,-0.00005610007792711258,0.019831212237477303,0.02337793819606304
1772789828617207000,12.22820703125,-0.0021291037555783987,0.026749826967716217,0.026672765612602234
1772789828637242000,12.2482421875,-0.008140555582940578,-0.004083561711013317,0.010205592960119247
1772789828657277200,12.268277099609374,-0.0027650860138237476,0.0022167013958096504,0.00535337021574378
1772789828677312300,12.288312255859376,0.00719550671055913,0.010879303328692913,-0.0010018497705459595
1772789828697347000,12.30834716796875,0.0018812308553606272,0.016146747395396233,-0.016434399411082268
1772789828717382000,12.3283818359375,-0.003262605983763933,-0.002000821754336357,-0.023662175983190536
1772789828737417000,12.3484169921875,-0.0057604010216891766,0.00430702418088913,-0.007811405695974827
1772789828757453000,12.368453125,-0.005899710115045309,0.019327467307448387,-0.004180866293609142
1772789828777488000,12.38848779296875,-0.018360989168286324,0.021737830713391304,0.00005043717101216316
1772789828797523000,12.40852294921875,-0.026658887043595314,0.01808309182524681,-0.019468659535050392
1772789828817560000,12.42856005859375,-0.03201110288500786,-0.0006269263103604317,-0.03246242552995682
1772789828837595000,12.448594970703125,-0.035896942019462585,-0.01678040623664856,-0.027438325807452202
1772789828857630000,12.4686298828125,-0.02542729862034321,-0.003918838687241077,0.015741920098662376
1772789828877665000,12.4886650390625,-0.009797019883990288,0.02563553676009178,0.029004836454987526
1772789828897701000,12.508701171875,-0.014060208573937416,0.002856188453733921,0.03438575565814972
1772789828917736000,12.52873583984375,-0.01611369103193283,-0.0331646092236042,0.020347056910395622
1772789828937771000,12.54877099609375,0.011554114520549774,-0.06854672729969025,0.005388936959207058
1772789828957806000,12.56880615234375,0.03592341020703316,-0.06649993360042572,-0.01883975975215435
1772789828977841200,12.588841064453124,0.04503076523542404,-0.10151379555463791,-0.028840333223342896
1772789828997876200,12.608876220703126,0.026135476306080818,-0.1615985780954361,-0.03923081234097481
1772789829017911300,12.628911376953125,0.022377630695700645,-0.1575867384672165,-0.045424893498420715
1772789829037946000,12.648946044921875,0.019359737634658813,-0.08401771634817123,-0.006708389613777399
1772789829057981200,12.668981201171874,0.04264890030026436,-0.06329240649938583,0.028907816857099533
1772789829078016000,12.68901611328125,0.041437894105911255,-0.10326242446899414,0.07276112586259842
1772789829098052400,12.70905224609375,0.029970798641443253,-0.15110132098197937,0.14814722537994385
1772789829118087200,12.729087158203125,0.056124985218048096,-0.10849520564079285,0.19965322315692902
1772789829138122000,12.7491220703125,0.08967040479183197,-0.07194072008132935,0.1303541511297226
1772789829158157000,12.769156982421874,0.04409880191087723,-0.17671771347522736,0.043113309890031815
1772789829178192100,12.789192138671876,0.008618122898042202,-0.2829127907752991,0.03355385735630989
1772789829198227200,12.809227294921875,-0.010369088500738144,-0.23995068669319153,-0.02916049025952816
1772789829218262300,12.82926220703125,0.024238012731075287,-0.11839686334133148,-0.1055498942732811
1772789829238297300,12.84929736328125,0.028971433639526367,-0.043711770325899124,-0.11487887799739838
1772789829258332200,12.869332275390626,0.004049492068588734,-0.05785349756479263,-0.10629094392061234
1772789829278367000,12.889366943359375,-0.04795946180820465,-0.10189370810985565,-0.08760929107666016
1772789829298402000,12.909402099609375,-0.06294949352741241,-0.023199282586574554,-0.07887207716703415
1772789829318438100,12.929438232421875,-0.0017879741499200463,0.1511574536561966,-0.058102529495954514
1772789829338473000,12.949472900390624,0.029556961730122566,0.2159596085548401,0.018206555396318436
1772789829358508000,12.969508056640626,0.02389206923544407,0.1518775075674057,0.0017672390677034855
1772789829378543000,12.989543212890625,0.000940229743719101,0.0451231449842453,-0.018270494416356087
1772789829398578200,13.009578125,-0.011790376156568527,-0.027555713430047035,-0.016204267740249634
1772789829418613200,13.02961328125,0.016244741156697273,-0.011309271678328514,-0.008898923173546791
1772789829438648300,13.0496484375,0.04837680608034134,0.07822977006435394,-0.01230371929705143
1772789829458683100,13.06968310546875,0.0626421719789505,0.10805374383926392,-0.06486377865076065
1772789829478718000,13.089718017578125,0.01688455417752266,0.00012549199163913727,-0.07201201468706131
1772789829498753000,13.1097529296875,-0.035861868411302567,-0.1249583438038826,-0.0704064890742302
1772789829518788000,13.1297880859375,-0.06746460497379303,-0.18610583245754242,-0.10401315987110138
1772789829538824200,13.14982421875,-0.081906758248806,-0.1505538374185562,-0.12583734095096588
1772789829558859000,13.16985888671875,-0.0784178078174591,-0.11236809194087982,-0.06541768461465836
1772789829578894000,13.18989404296875,-0.10915601253509521,-0.13225416839122772,0.06854765117168427
1772789829598929200,13.20992919921875,-0.1548176407814026,-0.16473539173603058,0.061395250260829926
1772789829618964200,13.229964111328124,-0.17102058231830597,-0.20723870396614075,0.007817592471837997
1772789829638999300,13.249999267578126,-0.17310230433940887,-0.18801303207874298,0.018707644194364548
1772789829659034400,13.270034423828125,-0.18300634622573853,-0.15152034163475037,0.10239170491695404
1772789829679069000,13.29006884765625,-0.14408788084983826,-0.1035902351140976,0.23659436404705048
1772789829699104000,13.31010400390625,0.0009392471984028816,-0.08727051317691803,0.2654985785484314
1772789829719139000,13.33013916015625,0.12737469375133514,-0.08732990175485611,0.18556489050388336
1772789829739175200,13.350175048828126,0.1737903207540512,-0.1191839650273323,0.14740817248821259
1772789829759210000,13.3702099609375,0.20836323499679565,-0.19672445952892303,0.13157543540000916
1772789829779245000,13.3902451171875,0.25171995162963867,-0.26489126682281494,0.17989879846572876
1772789829799280000,13.410280029296874,0.25577086210250854,-0.1682378649711609,0.2144637107849121
1772789829819315200,13.430315185546876,0.3059821128845215,0.011459480039775372,0.09929481148719788
1772789829839350300,13.450350341796875,0.33014950156211853,0.031235583126544952,0.042007025331258774
1772789829859385300,13.47038525390625,0.25025099515914917,-0.008185094222426414,0.09838151931762695
1772789829879420200,13.490420166015625,0.2061677724123001,-0.036393944174051285,0.11577613651752472
1772789829899455000,13.510455078125,0.2202172726392746,-0.010023391805589199,0.11549206078052521
1772789829919490000,13.530489990234376,0.22101595997810364,0.08876015245914459,0.11471115052700043
1772789829939525400,13.550525390625,0.18275387585163116,0.13312183320522308,0.11972664296627045
1772789829959561500,13.5705615234375,0.11630531400442123,0.014428648166358471,0.06753984093666077
1772789829979596300,13.59059619140625,0.013063287362456322,-0.11018303036689758,0.07676433771848679
1772789829999631000,13.610631103515624,-0.03309236466884613,-0.03777996450662613,0.050338227301836014
1772789830019666200,13.630666259765626,-0.011269359849393368,0.0793333351612091,-0.0816081166267395
1772789830039701200,13.650701171875,-0.05927009508013725,0.06865464895963669,-0.12459002435207367
1772789830059736300,13.670736328125,-0.14443817734718323,-0.09012489020824432,-0.06437224894762039
1772789830079771400,13.690771484375,-0.2512477934360504,-0.3664954900741577,0.11698292195796967
1772789830099806200,13.71080615234375,-0.35699349641799927,-0.527073323726654,0.07447899132966995
1772789830119841300,13.73084130859375,-0.3327677249908447,-0.551804780960083,-0.2335638403892517
1772789830139876400,13.75087646484375,-0.32969921827316284,-0.5796337723731995,-0.4176514446735382
1772789830159911200,13.7709111328125,-0.39002418518066406,-0.4656031131744385,-0.24314799904823303
1772789830179947300,13.790947265625,-0.4038864076137543,-0.23162320256233215,0.009299678727984428
1772789830199982000,13.810982177734376,-0.348809152841568,-0.08185356110334396,0.05787798762321472
1772789830220017200,13.83101708984375,-0.302874892950058,-0.02841487154364586,-0.015025615692138672
1772789830240052200,13.85105224609375,-0.31666529178619385,-0.07454568147659302,0.015117720700800419
1772789830260087300,13.87108740234375,-0.30744197964668274,-0.1759837120771408,0.0325281098484993
1772789830280122400,13.891122314453124,-0.25523439049720764,-0.14470534026622772,0.05901452898979187
1772789830300157200,13.9111572265625,-0.20959515869617462,-0.07687757909297943,0.09034127742052078
1772789830320192300,13.931192138671875,-0.18427994847297668,-0.022180261090397835,0.0762014165520668
1772789830340227300,13.951227294921875,-0.14276118576526642,0.00790154654532671,0.0009068911895155907
1772789830360262100,13.97126220703125,-0.11699027568101883,-0.061701081693172455,-0.07535867393016815
1772789830380298500,13.991298583984374,-0.15590617060661316,0.045298680663108826,-0.12292463332414627
1772789830400333000,14.0113330078125,-0.1577383279800415,0.21147951483726501,-0.12100118398666382
1772789830420368100,14.0313681640625,-0.12473522126674652,0.1787397265434265,-0.16187499463558197
1772789830440403200,14.0514033203125,-0.15558870136737823,0.12888579070568085,-0.1813773512840271
1772789830460438300,14.071438232421874,-0.14514796435832977,0.1667988896369934,-0.12453673034906387
1772789830480473300,14.091473388671876,-0.12947691977024078,0.1951029896736145,-0.03889765962958336
1772789830500508400,14.11150830078125,-0.14044803380966187,0.14466233551502228,-0.041252251714468
1772789830520543200,14.131543212890625,-0.10752397030591965,0.14867308735847473,-0.06651835888624191
1772789830540578300,14.151578369140625,-0.021857596933841705,0.19119179248809814,-0.14051799476146698
1772789830560613000,14.171613037109376,0.025565845891833305,0.20085002481937408,-0.12338320910930634
1772789830580648200,14.191648193359375,0.014870056882500648,0.18182359635829926,-0.05185336992144585
1772789830600684300,14.211684326171875,0.0210086852312088,0.12860500812530518,-0.03244350850582123
1772789830620719000,14.231718994140625,0.03734003007411957,0.13681702315807343,-0.05327507480978966
1772789830640754200,14.251754150390624,0.06943943351507187,0.13220815360546112,-0.1172088086605072
1772789830660789200,14.271789306640626,0.058260224759578705,0.12135125696659088,-0.10246366262435913
1772789830680824300,14.29182421875,0.03554120659828186,0.12457506358623505,-0.02117076888680458
1772789830700859400,14.311859375,0.03898447006940842,0.1385616958141327,0.008423544466495514
1772789830720894500,14.33189453125,0.0294625423848629,0.09262165427207947,0.0465526208281517
1772789830740929300,14.35192919921875,0.024278659373521805,0.09283425658941269,0.01341808307915926
1772789830760964400,14.37196435546875,0.032485440373420715,0.14673787355422974,0.00036830082535743713
1772789830780999200,14.391999267578125,0.045031916350126266,0.10653959214687347,0.04051759093999863
1772789830801034200,14.4120341796875,0.02137298509478569,0.10116477310657501,0.06870309263467789
1772789830821070000,14.432070068359375,0.024013327434659004,0.1575000137090683,0.06430237740278244
1772789830841105200,14.452105224609374,0.03273681551218033,0.1936352699995041,0.036437973380088806
1772789830861140200,14.47214013671875,0.03587067872285843,0.17230838537216187,0.05632716417312622
1772789830881175300,14.49217529296875,0.04979978874325752,0.1418103128671646,0.0668056458234787
1772789830901210400,14.51221044921875,0.05533258989453316,0.10485901683568954,0.04774985462427139
1772789830921245400,14.532245361328124,0.030421361327171326,0.10177765786647797,0.057469338178634644
1772789830941280800,14.55228076171875,0.017355380579829216,0.14234088361263275,0.08734387159347534
1772789830961315800,14.57231591796875,0.04262527823448181,0.13406521081924438,0.08867017924785614
1772789830981350700,14.5923505859375,0.039573151618242264,0.059329405426979065,0.07867517322301865
1772789831001385700,14.6123857421875,0.040819551795721054,0.05361310765147209,0.058792829513549805
1772789831021421600,14.632421630859374,0.06462492793798447,0.08119619637727737,0.05205986276268959
1772789831041456600,14.65245654296875,0.057993557304143906,0.06711352616548538,0.0586417131125927
1772789831061491700,14.67249169921875,0.061799295246601105,0.05622232332825661,0.04391888901591301
1772789831081526800,14.69252685546875,0.07974599301815033,0.08082985877990723,0.03054426610469818
1772789831101561900,14.712561767578125,0.09834745526313782,0.04130968078970909,0.03367287293076515
1772789831121597000,14.732596923828124,0.08043522387742996,0.02135908603668213,0.04596693441271782
1772789831141631700,14.7526318359375,0.08109205961227417,0.07114569842815399,0.07473591715097427
1772789831161666800,14.772666748046875,0.11592366546392441,0.061493031680583954,0.08463528752326965
1772789831181701600,14.79270166015625,0.11115817725658417,0.026579435914754868,0.04801496863365173
1772789831201736700,14.81273681640625,0.10310713946819305,0.002066482789814472,0.050958920270204544
1772789831221771800,14.832771728515626,0.10335247963666916,0.06580308824777603,0.0789284035563469
1772789831241807600,14.8528076171875,0.13374774158000946,0.1048264428973198,0.04166853800415993
1772789831261842700,14.8728427734375,0.17432135343551636,0.03792975842952728,-0.02549889124929905
1772789831281877800,14.892877685546875,0.183084174990654,0.028815723955631256,-0.030166026204824448
1772789831301912800,14.912912841796874,0.21446046233177185,0.0649334266781807,-0.03459698334336281
1772789831321948000,14.932947998046876,0.21268968284130096,0.06724517047405243,-0.04908901825547218
1772789831341982700,14.952982666015625,0.17255434393882751,0.11912022531032562,-0.07356704771518707
1772789831362017800,14.973017822265625,0.20383484661579132,0.17261911928653717,-0.13278299570083618
1772789831382052600,14.993052490234374,0.2552844285964966,0.11530808359384537,-0.22918009757995605
1772789831402087700,15.013087646484376,0.22999531030654907,0.11778827756643295,-0.24940386414527893
1772789831422122800,15.033122802734376,0.2323167622089386,0.19373002648353577,-0.1543220430612564
1772789831442158600,15.05315869140625,0.2220243215560913,0.21277254819869995,-0.05850489065051079
1772789831462193700,15.073193603515625,0.20903979241847992,0.16504424810409546,-0.03873549774289131
1772789831482228700,15.093228759765625,0.2316311001777649,0.1614636331796646,-0.07182680070400238
1772789831502263800,15.113263916015624,0.24675489962100983,0.15762373805046082,-0.0623653344810009
1772789831522299000,15.133298828125,0.25505587458610535,0.15514586865901947,-0.009634440764784813
1772789831542334000,15.153333984375,0.28365373611450195,0.12490583956241608,-0.004931849893182516
1772789831562368800,15.17336865234375,0.2934407889842987,0.135548397898674,-0.010340363718569279
1772789831582403600,15.193403564453124,0.30180343985557556,0.17454786598682404,-0.00401544664055109
1772789831602438700,15.213438720703126,0.2908419072628021,0.15746599435806274,-0.0007637464441359043
1772789831622473700,15.2334736328125,0.2783903479576111,0.11287686228752136,-0.024266693741083145
1772789831642508800,15.2535087890625,0.2626887559890747,0.1320069134235382,-0.027337491512298584
1772789831662544600,15.273544677734375,0.23460105061531067,0.1651001125574112,-0.025961831212043762
1772789831682579700,15.293579833984374,0.2275206744670868,0.15038873255252838,-0.0256472397595644
1772789831702614800,15.31361474609375,0.206769198179245,0.12538278102874756,0.00537715433165431
1772789831722649900,15.33364990234375,0.1788460612297058,0.12118896842002869,0.04786510765552521
1772789831742685000,15.353684814453125,0.1910262107849121,0.15300728380680084,0.06970016658306122
1772789831762719700,15.3737197265625,0.1844288855791092,0.13761650025844574,0.10372942686080933
1772789831782754600,15.393754638671876,0.16224664449691772,0.07143764197826385,0.11689714342355728
1772789831802789600,15.41378955078125,0.16066238284111023,0.02026018127799034,0.11916685104370117
1772789831822824700,15.43382470703125,0.16928741335868835,0.021736253052949905,0.1067710816860199
1772789831842859800,15.45385986328125,0.17804226279258728,0.032842352986335754,0.08903604000806808
1772789831862895600,15.4738955078125,0.15916690230369568,-0.0035252757370471954,0.06439077854156494
1772789831882930700,15.4939306640625,0.1383640617132187,0.011879726313054562,0.04365738481283188
1772789831902965800,15.5139658203125,0.15540951490402222,-0.006838259287178516,0.03537827730178833
1772789831923000800,15.534000732421875,0.1200241968035698,-0.058667220175266266,0.045440152287483215
1772789831943035600,15.55403564453125,0.08747393637895584,-0.004807611927390099,0.07599731534719467
1772789831963070700,15.57407080078125,0.08494147658348083,0.04657568782567978,0.09572947025299072
1772789831983105500,15.59410546875,0.06254284828901291,-0.02224079892039299,0.09204403311014175
1772789832003140600,15.614140625,0.03367500752210617,-0.04570182412862778,0.09967189282178879
1772789832023175700,15.63417578125,0.05001450330018997,-0.061004865914583206,0.12755441665649414
1772789832043210800,15.654210693359374,0.04095100983977318,-0.06933906674385071,0.17277111113071442
1772789832063245800,15.674245849609376,0.03477669507265091,-0.07363996654748917,0.15724731981754303
1772789832083281700,15.69428173828125,0.04994800314307213,-0.05955657735466957,0.08795579522848129
1772789832103316700,15.714316650390625,0.061489611864089966,-0.0750868022441864,0.025447681546211243
1772789832123351600,15.7343515625,0.03231881931424141,-0.06929971277713776,0.016621561720967293
1772789832143386600,15.75438671875,0.017601722851395607,-0.026621509343385696,0.03469051420688629
1772789832163421700,15.774421630859376,0.004956911318004131,0.0028429487720131874,0.02747453935444355
1772789832183456800,15.794456787109375,-0.016736214980483055,0.012823614291846752,0.0005990578792989254
1772789832203491600,15.81449169921875,-0.029569702222943306,0.02683459036052227,-0.010709798894822598
1772789832223526700,15.834526611328124,-0.032020360231399536,0.006699131801724434,-0.020710261538624763
1772789832243561700,15.854561767578126,-0.02040914259850979,-0.023928146809339523,-0.011762958019971848
1772789832263596800,15.8745966796875,0.00857723318040371,0.004860900342464447,-0.02414528839290142
1772789832283632600,15.894632568359375,0.02354809083044529,0.02087460644543171,-0.03351473808288574
1772789832303667700,15.914667724609375,0.018490871414542198,0.027494657784700394,-0.05000193044543266
1772789832323702500,15.93470263671875,0.02142079919576645,0.02821630984544754,-0.06431927531957626
1772789832343737600,15.954737548828126,0.01348232664167881,0.02690420299768448,-0.07263170927762985
1772789832363772700,15.974772705078125,-0.0024633517023175955,0.05674147605895996,-0.07937000691890717
1772789832383807700,15.994807861328125,-0.004120472352951765,0.05571360886096954,-0.08002132922410965
1772789832403840800,16.0148408203125,-0.0006414416711777449,0.03821854665875435,-0.09559110552072525
1772789832423875800,16.034875732421874,0.005189958959817886,-0.024526016786694527,-0.0788910910487175
1772789832443910700,16.05491064453125,-0.016446687281131744,-0.009941736236214638,-0.039697322994470596
1772789832463945700,16.07494580078125,-0.005085766315460205,0.03995557129383087,-0.023650813847780228
1772789832483980500,16.09498046875,-0.015052339062094688,0.0044677769765257835,-0.01451090071350336
1772789832504015600,16.115015625,-0.054221395403146744,-0.01616617664694786,-0.02740871161222458
1772789832524050700,16.13505078125,-0.04984012618660927,-0.009790180251002312,-0.02222399413585663
1772789832544085800,16.155085693359375,-0.061617568135261536,0.007083849981427193,0.025057978928089142
1772789832564120800,16.175120849609375,-0.07131604850292206,0.004852751269936562,0.023607905954122543
1772789832584156000,16.195156005859374,-0.08712956309318542,0.015238781459629536,0.03833961486816406
1772789832604191700,16.215191650390626,-0.09582293778657913,0.06351808458566666,0.05389544740319252
1772789832624226800,16.235226806640625,-0.08249080926179886,0.07786326855421066,0.03633688762784004
1772789832644261600,16.25526171875,-0.09395480901002884,0.03143759071826935,-0.012700014747679234
1772789832664296700,16.275296630859376,-0.11028175055980682,-0.021537864580750465,-0.05340598151087761
1772789832684331800,16.295331787109376,-0.09900226444005966,-0.0031564394012093544,-0.04723883792757988
1772789832704366600,16.31536669921875,-0.0935584306716919,0.004262847825884819,-0.03642190620303154
1772789832724401700,16.335401611328123,-0.10342614352703094,-0.009170005097985268,-0.019067568704485893
1772789832744436700,16.355436767578126,-0.08606982976198196,-0.011877268552780151,-0.026951802894473076
1772789832764471800,16.375471923828126,-0.08061350136995316,-0.010932495817542076,-0.026216328144073486
1772789832784507000,16.3955068359375,-0.06845013052225113,0.028340023010969162,0.006241589784622192
1772789832804542700,16.415542724609374,-0.02689599059522152,0.013653124682605267,-0.007930707186460495
1772789832824579800,16.435579833984374,-0.020623035728931427,-0.02655496448278427,-0.04118170589208603
1772789832844614700,16.45561474609375,-0.012819027528166771,-0.0149608813226223,-0.038096677511930466
1772789832864649700,16.475649658203125,0.00792115367949009,0.014522274024784565,-0.035815656185150146
1772789832884684800,16.495684814453124,-0.0038193101063370705,0.0020281262695789337,-0.022244226187467575
1772789832904719600,16.5157197265625,0.005751703400164843,-0.03662150725722313,-0.019279804080724716
1772789832924754700,16.535754638671875,0.03492657095193863,-0.027862880378961563,-0.030654100701212883
1772789832944789800,16.555789794921875,0.045684125274419785,-0.017266783863306046,-0.035578276962041855
1772789832964824600,16.575824462890626,0.028740188106894493,-0.02536584995687008,-0.0012371917255222797
1772789832984859600,16.595859619140626,0.04786551743745804,0.0116458460688591,0.04347746819257736
1772789833004894700,16.615894775390625,0.062389642000198364,0.043281152844429016,0.06512114405632019
1772789833024929800,16.6359296875,0.0572492890059948,0.0008498802781105042,0.01992114633321762
1772789833044964600,16.655964599609376,0.04785599187016487,0.004106394946575165,0.001465164590626955
1772789833064999700,16.675999755859376,0.06504950672388077,0.04930561035871506,0.025880888104438782
1772789833085034500,16.696034423828124,0.09770447015762329,0.05917695537209511,0.02204350009560585
1772789833105069600,16.716069580078123,0.10492478311061859,-0.01034502498805523,-0.01898403838276863
1772789833125104600,16.736104736328127,0.09016761928796768,-0.10533144325017929,-0.07549788057804108
1772789833145140700,16.756140625,0.08605901896953583,-0.05813440680503845,-0.05859702453017235
1772789833165175600,16.776175537109374,0.1369490623474121,0.0991293415427208,-0.03647705912590027
1772789833185210600,16.796210693359374,0.16928741335868835,0.18701735138893127,-0.09274735301733017
1772789833205245700,16.81624560546875,0.15147393941879272,0.07116348296403885,-0.12031739205121994
1772789833225280800,16.83628076171875,0.1162838265299797,-0.08448374271392822,-0.13753879070281982
1772789833245315600,16.856315673828124,0.1212480366230011,-0.02816741168498993,-0.10388155281543732
1772789833265350700,16.8763505859375,0.17434380948543549,0.147095188498497,-0.06993723660707474
1772789833285385700,16.8963857421875,0.19539956748485565,0.35843566060066223,-0.006556130945682526
1772789833305420500,16.916420654296875,0.22124814987182617,0.41692250967025757,0.007445155177265406
1772789833325455600,16.93645556640625,0.2071055769920349,0.042741503566503525,-0.07914842665195465
1772789833345490700,16.95649072265625,0.11820949614048004,-0.32384252548217773,-0.1358390748500824
1772789833365526800,16.97652685546875,0.08122064918279648,-0.2942923605442047,-0.11923646926879883
1772789833385561600,16.9965615234375,0.106406569480896,0.1743510514497757,-0.0579272136092186
1772789833405596700,17.0165966796875,0.20206479728221893,0.6610996723175049,0.11572326719760895
1772789833425631700,17.0366318359375,0.2690226435661316,0.6077941060066223,0.14267675578594208
1772789833445666600,17.05666650390625,0.16119398176670074,0.32125526666641235,-0.020793454721570015
1772789833465701600,17.07670166015625,0.029489709064364433,0.01856232061982155,-0.1472289115190506
1772789833485736700,17.09673681640625,-0.015948856249451637,0.16070301830768585,-0.15355077385902405
1772789833505771500,17.116771484375,0.09765482693910599,0.5387937426567078,-0.025885555893182755
1772789833525806600,17.136806640625,0.1756412237882614,0.6550989747047424,0.062102098017930984
1772789833545841700,17.156841552734374,0.09699461609125137,0.4004096984863281,-0.045630261301994324
1772789833565876700,17.176876708984373,-0.040378838777542114,0.11870525777339935,-0.2305523157119751
1772789833585912800,17.196912841796873,-0.09563269466161728,0.2758976221084595,-0.2210417091846466
1772789833605947600,17.21694775390625,-0.018361665308475494,0.59250807762146,-0.02720448188483715
1772789833625982700,17.236982666015624,0.03117317147552967,0.6762934327125549,0.10601694136857986
1772789833646017500,17.257017578125,-0.0013705119490623474,0.4224124252796173,0.07260151207447052
1772789833666052600,17.277052490234375,-0.06686670333147049,0.024689316749572754,-0.0962849035859108
1772789833686087700,17.297087646484375,-0.18401339650154114,-0.05775059014558792,-0.19307690858840942
1772789833706122800,17.317122802734374,-0.11643300205469131,0.08311952650547028,-0.06246964633464813
1772789833726157600,17.337157470703126,-0.025076719000935555,0.1786159723997116,0.029466472566127777
1772789833746192600,17.357192626953125,-0.041483353823423386,0.03914903849363327,0.013548899441957474
1772789833766227700,17.377227783203125,-0.12850984930992126,-0.15941643714904785,-0.031191151589155197
1772789833786262800,17.3972626953125,-0.19205960631370544,-0.07316896319389343,-0.05098901689052582
1772789833806298600,17.417298583984376,-0.10475423187017441,-0.014408382587134838,0.08496927469968796
1772789833826333700,17.437333740234376,-0.05152023211121559,0.0987347662448883,0.16705428063869476
1772789833846368500,17.457368408203124,-0.028078248724341393,0.052044399082660675,0.11047354340553284
1772789833866403600,17.477403564453127,-0.09178096055984497,-0.19147758185863495,0.0015650144778192043
1772789833886438700,17.497438720703126,-0.1827445924282074,-0.29347702860832214,-0.015516813844442368
1772789833906473700,17.5174736328125,-0.12612071633338928,-0.1956213116645813,0.08246270567178726
1772789833926508500,17.537508544921874,-0.07182025909423828,-0.09853602200746536,0.0674702450633049
1772789833946544400,17.55754443359375,-0.036041222512722015,-0.14619596302509308,-0.05059171840548515
1772789833966579500,17.577579345703125,-0.09102246910333633,-0.35347145795822144,-0.11466307193040848
1772789833986614500,17.597614501953124,-0.14220862090587616,-0.39892444014549255,-0.18762758374214172
1772789834006649600,17.617649658203124,-0.1007460206747055,-0.26674193143844604,-0.24432188272476196
1772789834026685400,17.637685546875,-0.05213693529367447,-0.1954592615365982,-0.3703424632549286
1772789834046720500,17.657720458984375,-0.061453044414520264,-0.28726333379745483,-0.3185262382030487
1772789834066755300,17.67775537109375,-0.0754687488079071,-0.3755962550640106,-0.18015402555465698
1772789834086790400,17.697790283203126,-0.03911180794239044,-0.33525359630584717,-0.19170519709587097
1772789834106825500,17.717825439453126,-0.011147714219987392,-0.35574114322662354,-0.23080974817276
1772789834126860300,17.7378603515625,-0.003912254702299833,-0.35228148102760315,-0.2091110795736313
1772789834146895400,17.757895263671877,0.04760180413722992,-0.2938205599784851,-0.12844952940940857
1772789834166930400,17.777930419921876,0.06335995346307755,-0.23758304119110107,0.016064263880252838
1772789834186965500,17.797965576171876,0.07153547555208206,-0.12131046503782272,0.005411180201917887
1772789834207000600,17.81800048828125,0.09763874858617783,-0.034699760377407074,0.027257375419139862
1772789834227035400,17.838035400390623,0.11181449145078659,-0.010263659060001373,0.014261946082115173
1772789834247071500,17.858071533203123,0.12835171818733215,-0.14259588718414307,0.06695625185966492
1772789834267106300,17.878106201171875,0.0970107764005661,-0.19355624914169312,0.09242571890354156
1772789834287141400,17.898141357421874,0.10134236514568329,-0.15747883915901184,0.04649663716554642
1772789834307176400,17.918176513671874,0.09632181376218796,-0.08158364146947861,-0.016756156459450722
1772789834327211300,17.938211181640625,0.11005550622940063,0.025749627500772476,-0.003472630400210619
1772789834347246300,17.958246337890625,0.08958747982978821,0.080240398645401,0.03396051377058029
1772789834367281400,17.978281494140624,0.06701540946960449,0.12463029474020004,-0.026730338111519814
1772789834387316500,17.99831640625,0.08227062970399857,0.02037966251373291,-0.07430995255708694
1772789834407351600,18.0183515625,0.05591659992933273,-0.13709057867527008,-0.005783933214843273
1772789834427386400,18.038386474609375,0.04493825137615204,-0.0950310081243515,0.0016074040904641151
1772789834447421400,18.05842138671875,0.0885242447257042,0.044584259390830994,-0.004319910425692797
1772789834467457300,18.078457275390626,0.10656431317329407,0.0997285395860672,0.009547930210828781
1772789834487492400,18.098492431640626,0.08586268126964569,0.01778513938188553,0.0038733044639229774
1772789834507527400,18.11852734375,0.03796027973294258,-0.09864236414432526,-0.02975456789135933
1772789834527562500,18.1385625,0.02875584177672863,-0.16673867404460907,0.018386073410511017
1772789834547597300,18.158597412109376,0.032531652599573135,-0.1391979455947876,0.06876962631940842
1772789834567632400,18.17863232421875,0.07246347516775131,-0.01867903582751751,-0.005196071695536375
1772789834587667500,18.19866748046875,0.07059900462627411,0.03873659670352936,-0.04564546048641205
1772789834607702500,18.21870263671875,0.07705722749233246,-0.11428733170032501,-0.01721920631825924
1772789834627737300,18.2387373046875,0.04765281081199646,-0.17651015520095825,0.024940956383943558
1772789834647772400,18.2587724609375,0.05621487647294998,-0.07964859157800674,0.03042786568403244
1772789834667807200,18.27880712890625,0.0788426324725151,0.03547988831996918,0.004656556993722916
1772789834687842300,18.29884228515625,0.05334202200174332,0.047666341066360474,-0.014349108561873436
1772789834707878400,18.31887841796875,0.03396828472614288,-0.012370786629617214,-0.005625833757221699
1772789834727913500,18.33891357421875,0.028464552015066147,-0.07229156047105789,-0.0004915432073175907
1772789834747948300,18.3589482421875,0.031928665935993195,-0.06995644420385361,0.001134747639298439
1772789834767983400,18.3789833984375,0.019587747752666473,-0.03986820951104164,-0.015808768570423126
1772789834788018400,18.399018310546875,0.024052144959568977,0.01761990413069725,-0.03744811937212944
1772789834808053500,18.419053466796875,0.04459257423877716,0.008705247193574905,-0.015170209109783173
1772789834828088300,18.43908837890625,0.0466919019818306,-0.05185945704579353,0.04901842027902603
1772789834848123400,18.459123291015626,0.043829500675201416,-0.040236279368400574,0.03604291379451752
1772789834868158500,18.479158447265625,0.04809661954641342,-0.01949981041252613,-0.02163972333073616
1772789834888193300,18.499193359375,0.030321840196847916,0.005214152857661247,-0.06320472806692123
1772789834908228400,18.519228271484376,0.016648638993501663,0.058698683977127075,-0.04251622408628464
1772789834928264400,18.539264404296876,0.0212834645062685,0.02635614573955536,0.047920603305101395
1772789834948299500,18.559299560546876,0.006438510492444038,0.009842322207987309,0.05998736619949341
1772789834968334300,18.579334228515624,0.0007913389708846807,0.07895000278949738,0.013745770789682865
1772789834988369400,18.599369384765627,-0.01743515022099018,0.13875442743301392,-0.016058657318353653
1772789835008404500,18.619404541015626,-0.03089163266122341,0.20028677582740784,-0.05813756585121155
1772789835028439600,18.639439453125,-0.0065683480352163315,0.16786372661590576,-0.034051522612571716
1772789835048474600,18.659474609375,-0.020993724465370178,0.08095264434814453,0.04162996634840965
1772789835068509700,18.679509765625,-0.03799626976251602,0.06863318383693695,0.020402077585458755
1772789835088544500,18.69954443359375,-0.04329751804471016,0.10796529799699783,-0.028975648805499077
1772789835108579600,18.71957958984375,-0.04512397199869156,0.11811275035142899,-0.03997527435421944
1772789835128614400,18.739614501953124,-0.04037580266594887,0.06645257025957108,-0.0009525171481072903
1772789835148650500,18.759650390625,-0.05303898826241493,0.02949138730764389,0.015713371336460114
1772789835168685300,18.779685302734375,-0.04622277244925499,0.05977337434887886,-0.015565246343612671
1772789835188720400,18.799720458984375,-0.028102627024054527,0.11723373830318451,-0.055243682116270065
1772789835208755500,18.81975537109375,-0.023255961015820503,0.07721247524023056,-0.04052514582872391
1772789835228790500,18.83979052734375,-0.043885137885808945,-0.03148042410612106,0.008033400401473045
1772789835248825600,18.85982568359375,-0.04295116290450096,-0.04458798095583916,-0.019856322556734085
1772789835268860700,18.879860595703125,-0.0349729061126709,0.0006576338782906532,-0.04177488386631012
1772789835288895500,18.8998955078125,-0.03911545127630234,0.02344631962478161,-0.03129180893301964
1772789835308930600,18.9199306640625,-0.030962055549025536,0.008080328814685345,-0.0049017551355063915
1772789835328965400,18.93996533203125,-0.029039835557341576,0.017889682203531265,-0.0022656309884041548
1772789835349001500,18.96000146484375,-0.035781584680080414,-0.0037829549983143806,-0.01860787160694599
1772789835369036500,18.98003662109375,-0.05984783545136452,-0.03274082392454147,-0.04994579032063484
1772789835389071400,19.0000712890625,-0.05113571509718895,-0.02584008313715458,-0.03815796971321106
1772789835409106400,19.0201064453125,-0.027642227709293365,-0.006480191834270954,-0.0005500135011970997
1772789835429141500,19.0401416015625,-0.042696282267570496,-0.0186162069439888,-0.012166952714323997
1772789835449176600,19.060176513671873,-0.046744752675294876,-0.010044066235423088,-0.043599579483270645
1772789835469211600,19.080211669921876,-0.022906063124537468,0.005994320847094059,-0.036916811019182205
1772789835489246700,19.100246826171876,-0.03100893460214138,0.006004686467349529,-0.014093583449721336
1772789835509281500,19.120281494140624,-0.02793779782950878,-0.017583806067705154,0.01741458661854267
1772789835529316400,19.14031640625,-0.01179586723446846,-0.047103699296712875,0.009240556508302689
1772789835549351400,19.160351318359375,0.00030740094371140003,-0.017192671075463295,-0.01752660796046257
1772789835569387500,19.180387451171875,0.011370029300451279,0.021939773112535477,-0.011814257130026817
1772789835589422600,19.200422607421874,0.015975842252373695,0.02490871027112007,0.017104871571063995
1772789835609457400,19.22045751953125,0.01779707707464695,-0.020556658506393433,0.03412015363574028
1772789835629492500,19.240492431640625,0.005910774692893028,-0.06183357164263725,0.021522220224142075
1772789835649527600,19.260527587890625,0.003822098020464182,-0.027103668078780174,0.029409879818558693
1772789835669562600,19.280562744140624,0.023265572264790535,0.021892894059419632,0.04668363556265831
1772789835689597700,19.30059765625,0.023001916706562042,0.03365581855177879,0.04230277240276337
1772789835709632500,19.320632568359375,0.023570481687784195,0.0065498147159814835,0.033739123493433
1772789835729667300,19.340667236328127,0.0019577927887439728,-0.050415825098752975,0.04950689896941185
1772789835749702400,19.360702392578126,-0.01731022633612156,-0.04098278284072876,0.05972607433795929
1772789835769737500,19.380737548828126,-0.012404724955558777,-0.0058023203164339066,0.047195956110954285
1772789835789772500,19.4007724609375,-0.006799899972975254,0.019443146884441376,0.01317843422293663
1772789835809808400,19.420808349609374,-0.007477018982172012,-0.057081498205661774,0.0325235091149807
1772789835829843500,19.440843505859377,0.017625220119953156,-0.07427000999450684,0.07016827911138535
1772789835849878500,19.46087841796875,0.0529165081679821,0.028782647103071213,0.0319075733423233
1772789835869913600,19.48091357421875,0.05501561239361763,0.05110765993595123,-0.006506926845759153
1772789835889948700,19.50094873046875,0.040925994515419006,-0.06644519418478012,-0.019390353932976723
1772789835909983700,19.520983642578123,0.015494896098971367,-0.10627986490726471,-0.01403205469250679
1772789835930018300,19.541018310546875,0.02729218825697899,-0.05644084885716438,0.010873551480472088
1772789835950053000,19.56105322265625,0.029476413503289223,0.002769595943391323,0.025126073509454727
1772789835970088200,19.581088134765626,0.023409303277730942,0.00814878661185503,-0.012350846081972122
1772789835990123000,19.601123046875,-0.005984583403915167,-0.05255971476435661,-0.003608130384236574
1772789836010159400,19.621159423828125,-0.002126891165971756,-0.08213238418102264,0.03807927668094635
1772789836030194000,19.64119384765625,0.016504786908626556,-0.03348412364721298,0.05251371115446091
1772789836050229000,19.66122900390625,0.042583342641592026,0.03202064707875252,0.019081909209489822
1772789836070264000,19.68126416015625,0.03393581509590149,-0.006043563596904278,-0.008440271951258183
1772789836090299100,19.701299072265623,0.01519838534295559,-0.0673360675573349,0.03673403710126877
1772789836110334200,19.721334228515627,0.018718980252742767,-0.04776836931705475,0.07698114216327667
1772789836130369300,19.741369384765626,0.02539757639169693,-0.00877443142235279,0.06168854609131813
1772789836150404000,19.761404052734374,0.03414052724838257,0.05408467352390289,0.03992459923028946
1772789836170439200,19.781439208984374,0.041112497448921204,0.03932151198387146,0.05299508944153786
1772789836190474000,19.801473876953125,0.03542722389101982,-0.0233377143740654,0.06172221526503563
1772789836210509000,19.821509033203125,0.007910504005849361,-0.05540089309215546,0.057369381189346313
1772789836230544100,19.841544189453124,0.010284729301929474,0.0032489318400621414,0.04189670830965042
1772789836250580000,19.861580078125,0.01112557202577591,0.057265881448984146,0.027444154024124146
1772789836270615000,19.881614990234375,0.009162514470517635,0.03439024090766907,0.030003542080521584
1772789836290650000,19.901650146484375,0.007931211963295937,-0.003988795913755894,0.015152553096413612
1772789836310685200,19.921685302734375,0.008525999262928963,-0.0014562662690877914,0.012275384739041328
1772789836330720300,19.94172021484375,0.011036580428481102,0.005139671266078949,0.007622567471116781
1772789836350755300,19.96175537109375,0.019838614389300346,0.024523839354515076,-0.0005698585882782936
1772789836370790100,19.9817900390625,0.00634546484798193,0.04096227511763573,-0.003488995134830475
1772789836390823200,20.0018232421875,0.006507588550448418,0.0300486758351326,-0.008334249258041382
1772789836410858200,20.021858154296876,-0.0006937829311937094,-0.00432522501796484,0.02033296972513199
1772789836430893000,20.04189306640625,-0.005516602657735348,-0.016613733023405075,0.029299383983016014
1772789836450928000,20.06192822265625,-0.003225380554795265,0.03268604353070259,0.027623336762189865
1772789836470963200,20.081963134765626,-0.0024223988875746727,0.05802911892533302,0.00952980387955904
1772789836490998300,20.101998291015626,-0.0019282811554148793,0.028633564710617065,-0.01741454377770424
1772789836511033000,20.122033203125,-0.006111201364547014,-0.04281705617904663,-0.0025811593513935804
1772789836531069000,20.14206884765625,-0.017602432519197464,-0.026758037507534027,0.021149149164557457
1772789836551104000,20.16210400390625,0.01223808340728283,0.052745286375284195,0.02481146529316902
1772789836571139000,20.18213916015625,-0.0056735859252512455,0.0551113598048687,0.026205185800790787
1772789836591174100,20.202174072265624,-0.018670201301574707,0.021099643781781197,-0.004865785129368305
1772789836611209200,20.222209228515624,-0.00960101094096899,-0.009883328340947628,-0.009044082835316658
1772789836631244300,20.242244384765623,-0.004856979474425316,-0.002399004064500332,-0.00053755147382617
1772789836651279000,20.262279052734375,0.003924506716430187,0.011415003798902035,0.007791530340909958
1772789836671314200,20.282314208984374,0.01385262981057167,0.0327141135931015,0.012708626687526703
1772789836691349200,20.302349365234374,0.014818597584962845,0.0025742268189787865,0.008750883862376213
1772789836711384000,20.322384033203125,0.00196069129742682,-0.01837964355945587,0.03543753921985626
1772789836731419100,20.342419189453125,0.015021511353552341,0.01531496923416853,0.05960208550095558
1772789836751454200,20.3624541015625,0.018403133377432823,0.03166891634464264,0.08306829631328583
1772789836771490000,20.382489990234376,0.02182263322174549,0.028294427320361137,0.04589961841702461
1772789836791525000,20.402525146484376,0.02370183728635311,-0.005131097510457039,0.028317395597696304
1772789836811562000,20.42256201171875,0.02906700223684311,0.008468696847558022,0.028779206797480583
1772789836831597000,20.44259716796875,0.04947773367166519,0.03020435944199562,0.041934460401535034
1772789836851632000,20.462632080078127,0.06165280193090439,0.009843824431300163,0.009907135739922523
1772789836871667200,20.482667236328126,0.05003535747528076,-0.03021600842475891,0.009065210819244385
1772789836891702300,20.502702392578126,0.06341970711946487,-0.017324041575193405,0.016096102073788643
1772789836911738000,20.522738037109374,0.08074771612882614,0.03944581001996994,0.008304089307785034
1772789836931773200,20.542773193359373,0.06677791476249695,0.01841782033443451,0.017047438770532608
1772789836951808800,20.562808837890625,0.060594502836465836,0.0026076333597302437,0.0019862717017531395
1772789836971843800,20.58284375,0.05961362645030022,0.014240159653127193,-0.009331042878329754
1772789836991878700,20.602878662109376,0.05491338670253754,0.008209357969462872,0.008122028782963753
1772789837011913500,20.62291357421875,0.05416624993085861,-0.0011800993233919144,0.007671320345252752
1772789837031948500,20.642948486328127,0.05186958238482475,0.01582673192024231,0.024031028151512146
1772789837051983600,20.662983642578126,0.05056258291006088,0.008914818055927753,0.021147513762116432
1772789837072018700,20.683018798828126,0.033751048147678375,-0.027481241151690483,0.032426897436380386
1772789837092053800,20.7030537109375,0.03291979432106018,-0.0163562148809433,0.026541387662291527
1772789837112089600,20.723089599609374,0.03347967937588692,0.027318600565195084,0.01224379613995552
1772789837132124700,20.743124755859377,0.013294018805027008,0.008856953121721745,0.022292718291282654
1772789837152159700,20.76315966796875,-0.01593060977756977,0.0007536346092820168,0.0142091428861022
1772789837172194800,20.78319482421875,-0.03172639012336731,0.018357224762439728,-0.008405869826674461
1772789837192229600,20.803229736328124,-0.07042091339826584,0.03471412509679794,-0.013903340324759483
1772789837212264400,20.823264404296875,-0.1032925695180893,0.02677789330482483,-0.011563790030777454
1772789837232299500,20.843299560546875,-0.11668571084737778,0.03400718420743942,-0.04346031695604324
1772789837252334600,20.86333447265625,-0.1381968855857849,0.009177369996905327,-0.05637587606906891
1772789837272369700,20.88336962890625,-0.1502729058265686,-0.009063074365258217,-0.05783505737781525
1772789837292404700,20.90340478515625,-0.17901211977005005,-0.009304549545049667,-0.061902549117803574
1772789837312440600,20.923440673828125,-0.19310405850410461,-0.006850232370197773,-0.08357418328523636
1772789837332475600,20.9434755859375,-0.21463869512081146,0.00588394608348608,-0.09714534878730774
1772789837352510700,20.9635107421875,-0.21332909166812897,-0.017986275255680084,-0.0549495592713356
1772789837372545800,20.9835458984375,-0.2324545979499817,-0.046358779072761536,-0.023358572274446487
1772789837392580900,21.003580810546875,-0.23522569239139557,-0.043959349393844604,-0.027886707335710526
1772789837412615400,21.023615478515627,-0.21681955456733704,-0.02661529928445816,0.006689229514449835
1772789837432650500,21.043650390625,-0.21309569478034973,-0.022097691893577576,0.02288336306810379
1772789837452685600,21.063685546875,-0.23165979981422424,-0.09743887186050415,0.07120190560817719
1772789837472720600,21.083720703125,-0.23353208601474762,-0.08769948780536652,0.120303213596344
1772789837492755700,21.103755615234373,-0.18557995557785034,-0.02442198246717453,0.10609845072031021
1772789837512790800,21.123790771484376,-0.17335359752178192,-0.0471535250544548,0.08127259463071823
1772789837532826600,21.14382666015625,-0.18237720429897308,-0.1227053552865982,0.0446605384349823
1772789837552861700,21.16386181640625,-0.175416961312294,-0.1543891727924347,0.03590136393904686
1772789837572896800,21.183896728515624,-0.14816969633102417,-0.13458490371704102,0.059645116329193115
1772789837592931800,21.203931884765623,-0.11574383825063705,-0.05685725808143616,0.03771187737584114
1772789837612966700,21.223966552734375,-0.09786564111709595,-0.06402653455734253,-0.020103346556425095
1772789837633001500,21.24400146484375,-0.11842049658298492,-0.11815571784973145,-0.08425328880548477
1772789837653036500,21.26403662109375,-0.09548481553792953,-0.12925097346305847,-0.09552165120840073
1772789837673071600,21.284071533203125,-0.08129912614822388,-0.16897426545619965,-0.07833076268434525
1772789837693106700,21.304106689453125,-0.09025470167398453,-0.18531769514083862,0.014226214028894901
1772789837713141800,21.324141845703124,-0.04997047781944275,-0.07867120206356049,0.06686100363731384
1772789837733176800,21.3441767578125,0.018063906580209732,0.015870504081249237,0.062030356377363205
1772789837753211600,21.364211669921875,0.04028388857841492,-0.01529580820351839,0.014297044835984707
1772789837773247700,21.384247802734375,0.009228112176060677,-0.09866975992918015,-0.05767585709691048
1772789837793282800,21.40428271484375,0.0012481329031288624,-0.11957403272390366,-0.0470460020005703
1772789837813317600,21.424317626953126,0.03607599064707756,-0.05956248939037323,0.00796306598931551
1772789837833352400,21.4443525390625,0.041491877287626266,0.011880599893629551,0.014147118665277958
1772789837853387500,21.464387451171874,0.057075608521699905,0.09891556203365326,-0.05495787039399147
1772789837873422600,21.484422607421877,0.05702713876962662,0.03727642819285393,-0.09603872895240784
1772789837893457700,21.504457763671876,0.024137472733855247,-0.031161624938249588,-0.0586603544652462
1772789837913492700,21.52449267578125,0.036645397543907166,0.023162823170423508,-0.03275458142161369
1772789837933527800,21.54452783203125,0.03699793666601181,0.07369527220726013,-0.024615060538053513
1772789837953561900,21.564561767578127,0.020597534254193306,0.09351829439401627,-0.04649413377046585
1772789837973597000,21.584596923828126,0.01818825677037239,0.0972299873828888,-0.054321542382240295
1772789837993632800,21.6046328125,-0.0021406752057373524,0.05343766137957573,0.00870397686958313
1772789838013667800,21.624667724609374,0.022612199187278748,0.09515923261642456,0.06441131979227066
1772789838033703000,21.644702880859374,0.052218273282051086,0.12209863215684891,0.0620291642844677
1772789838053738000,21.664738037109377,0.05421937257051468,0.14910148084163666,0.03415276110172272
1772789838073772800,21.684772705078124,0.06679829955101013,0.10680977255105972,0.01919008046388626
1772789838093807600,21.7048076171875,0.06104994937777519,-0.003966742195188999,0.006927215959876776
1772789838113842700,21.7248427734375,0.04319785535335541,-0.02110067941248417,-0.052201490849256516
1772789838133877800,21.744877685546875,0.030402781441807747,-0.08567988127470016,-0.03542448207736015
1772789838153912800,21.764912841796875,0.029434803873300552,-0.07656247913837433,0.0030397805385291576
1772789838173948000,21.784947998046874,0.05137351527810097,-0.011608555912971497,0.022136913612484932
1772789838193982700,21.804982666015626,0.05626945197582245,0.005721069872379303,0.02855643630027771
1772789838214018800,21.825018798828125,0.05297696217894554,-0.0367303267121315,0.020751822739839554
1772789838234054000,21.845053955078125,0.06591921299695969,-0.09286145120859146,0.04025271162390709
1772789838254089000,21.8650888671875,0.08523888885974884,-0.062309764325618744,0.03574955463409424
1772789838274124000,21.8851240234375,0.12919650971889496,0.038779377937316895,0.014007726684212685
1772789838294158600,21.90515869140625,0.16283585131168365,0.06793969124555588,0.010441579855978489
1772789838314193700,21.925193603515623,0.1567951738834381,0.04545218497514725,-0.012949617579579353
1772789838334228700,21.945228759765627,0.1774057298898697,0.04215765371918678,-0.009037241339683533
1772789838354263800,21.965263916015626,0.17971612513065338,0.03380078822374344,0.0297385323792696
1772789838374299000,21.985298828125,0.16575616598129272,0.06468997150659561,0.042414579540491104
1772789838394334000,22.005333984375,0.1669815480709076,0.1069503128528595,0.011472277343273163
1772789838414368800,22.02536865234375,0.14149931073188782,0.01005290262401104,0.005347061436623335
1772789838434403800,22.04540380859375,0.13785278797149658,-0.022093793377280235,-0.018793530762195587
1772789838454440000,22.06543994140625,0.141495943069458,0.023721640929579735,-0.026228779926896095
1772789838474475000,22.08547509765625,0.1203220784664154,-0.015352746471762657,-0.02383819781243801
1772789838494509800,22.105509765625,0.11888647824525833,-0.04365748539566994,-0.03284752741456032
1772789838514544600,22.125544677734375,0.09019937366247177,-0.02778608910739422,-0.009146659635007381
1772789838534579700,22.145579833984375,0.0887770801782608,-0.0025458186864852905,0.03265799954533577
1772789838554614800,22.16561474609375,0.07122594863176346,0.011346133425831795,-0.049275703728199005
1772789838574649900,22.18564990234375,0.07269996404647827,-0.02298056334257126,-0.07635623216629028
1772789838594685000,22.205684814453125,0.045303475111722946,-0.061511531472206116,-0.001378118060529232
1772789838614719700,22.2257197265625,0.05628077685832977,-0.03783674165606499,0.03452687710523605
1772789838634754800,22.2457548828125,0.059412576258182526,-0.033679354935884476,0.07472466677427292
1772789838654790000,22.265789794921876,0.04639881104230881,-0.04246841371059418,0.05869641155004501
1772789838674826000,22.285825927734376,0.04217199236154556,-0.031227711588144302,0.04037635400891304
1772789838694861000,22.305861083984375,0.03973875939846039,-0.010580340400338173,0.06216865032911301
1772789838714895600,22.3258955078125,0.03471589833498001,-0.0453234538435936,0.07475489377975464
1772789838734930700,22.3459306640625,0.009266447275876999,-0.08492714911699295,0.07996933162212372
1772789838754965800,22.3659658203125,-0.003560512326657772,-0.06042351946234703,0.09352821111679077
1772789838775000800,22.386000732421873,0.007603746838867664,0.01961359940469265,0.06161150336265564
1772789838795036000,22.406035888671877,-0.015587017871439457,-0.01338973082602024,0.04477867856621742
1772789838815071000,22.426071044921876,-0.04104769974946976,-0.11655469983816147,0.044569190591573715
1772789838835105800,22.446105712890624,-0.04602248594164848,-0.09042403846979141,0.06854133307933807
1772789838855140900,22.466140869140624,-0.02844851091504097,0.0043468475341796875,0.08100277930498123
1772789838875175700,22.48617578125,-0.029693344607949257,0.029968228191137314,0.05282972753047943
1772789838895210800,22.506210693359375,-0.06263276189565659,-0.03866153210401535,-0.0029845742974430323
1772789838915246800,22.526246826171874,-0.07580838352441788,-0.0732521340250969,-0.020516319200396538
1772789838935281700,22.54628173828125,-0.06761778891086578,-0.04323602095246315,-0.0003455919213593006
1772789838955317200,22.566317138671874,-0.04395941272377968,0.005876332521438599,0.007828522473573685
1772789838975352000,22.58635205078125,-0.04078944772481918,0.03740175440907478,0.019410040229558945
1772789838995387100,22.60638720703125,-0.044166263192892075,0.004040413536131382,-0.023603243753314018
1772789839015422200,22.626422119140624,-0.03940362483263016,-0.003059159033000469,-0.020065050572156906
1772789839035457000,22.64645703125,-0.03086877055466175,-0.023032760247588158,-0.005341976881027222
1772789839055492000,22.6664921875,-0.03586000204086304,-0.11191020160913467,0.012383123859763145
1772789839075527200,22.686527099609375,-0.04697273671627045,-0.08656022697687149,0.011413613334298134
1772789839095562200,22.706562255859374,-0.01582668162882328,0.011156176216900349,0.016383513808250427
1772789839115597300,22.726597412109374,-0.021725114434957504,0.055569469928741455,0.03803614526987076
1772789839135633200,22.746633056640626,-0.06062615290284157,0.015892716124653816,0.021180452778935432
1772789839155668200,22.766668212890625,-0.06967093795537949,0.006033020094037056,-0.010811989195644855
1772789839175703000,22.786703125,-0.05093277990818024,0.0682712197303772,-0.011599632911384106
1772789839195738000,22.806738037109376,-0.05203991010785103,0.07284387946128845,-0.032747767865657806
1772789839215773200,22.826773193359376,-0.06822557002305984,0.03964591771364212,-0.058703385293483734
1772789839235808300,22.846808349609375,-0.05683993548154831,0.003948426805436611,-0.042980991303920746
1772789839255843000,22.866843017578127,-0.03803109750151634,0.03636496514081955,-0.02527998946607113
1772789839275878100,22.886878173828126,-0.03796498477458954,0.005648566409945488,-0.021415576338768005
1772789839295913200,22.906913330078126,-0.046995267271995544,-0.04309704154729843,-0.031592294573783875
1772789839315948300,22.9269482421875,-0.04676331207156181,-0.08093681931495667,-0.020559847354888916
1772789839335983000,22.946983154296873,-0.028484197333455086,-0.07121501117944717,0.032597996294498444
1772789839356018200,22.96701806640625,-0.008665566332638264,0.010032898746430874,0.042317237704992294
1772789839376054000,22.987053955078125,-0.010238610208034515,0.02239428088068962,0.03564164787530899
1772789839396089000,23.007089111328124,-0.028875842690467834,-0.03122032806277275,0.017487861216068268
1772789839416124200,23.027124267578124,-0.040361545979976654,-0.045343413949012756,0.0045175147242844105
1772789839436159200,23.0471591796875,-0.04021347314119339,-0.016942409798502922,0.03249584883451462
1772789839456194000,23.067194091796875,-0.03737161308526993,-0.006538493558764458,0.04624684900045395
1772789839476229000,23.08722900390625,-0.057364415377378464,-0.03975764662027359,0.0314323753118515
1772789839496264200,23.10726416015625,-0.05927599221467972,0.006398302502930164,0.006964564323425293
1772789839516299300,23.12729931640625,-0.0335058867931366,0.042558230459690094,0.005035288166254759
1772789839536334000,23.147333984375,-0.04090113937854767,-0.01133955642580986,0.03443757817149162
1772789839556369200,23.167369140625,-0.04683619737625122,-0.036584481596946716,0.02589915320277214
1772789839576404000,23.187404052734376,-0.033700644969940186,0.00840126071125269,0.03310002014040947
1772789839596439000,23.20743896484375,-0.030742885544896126,0.06507466733455658,0.05627485737204552
1772789839616475100,23.22747509765625,-0.0017059429083019495,0.09566061943769455,0.03409896418452263
1772789839636510200,23.24751025390625,0.004784625954926014,-0.00974414125084877,0.035340406000614166
1772789839656545300,23.267545166015626,-0.02510261721909046,-0.08938723802566528,0.0027909129858016968
1772789839676580000,23.287580078125,-0.004286712035536766,-0.030891578644514084,0.002277566585689783
1772789839696615200,23.307615234375,0.012958420440554619,0.019964035600423813,0.028631895780563354
1772789839716650200,23.327650146484373,0.005291304551064968,0.005527256987988949,0.0023372764699161053
1772789839736685000,23.34768505859375,0.003606566460803151,-0.05202985554933548,-0.029783863574266434
1772789839756720000,23.36772021484375,0.016071289777755737,-0.04845565930008888,0.007610280532389879
1772789839776755200,23.387755126953124,0.03561749681830406,-0.018835149705410004,-0.016478976234793663
1772789839796790000,23.4077900390625,0.03207748010754585,-0.013659338466823101,-0.02936108037829399
1772789839816825000,23.4278251953125,0.027250299230217934,-0.05097665265202522,0.0072871106676757336
1772789839836860200,23.447860107421874,0.026598867028951645,-0.045756395906209946,0.015848152339458466
1772789839856896300,23.467896240234374,0.026898005977272987,-0.004846281372010708,0.028112443163990974
1772789839876931000,23.48793115234375,0.018495623022317886,0.05264431983232498,0.021812357008457184
1772789839896966100,23.507966064453125,0.0022985099349170923,0.09762811660766602,0.008173493668437004
1772789839917001200,23.528001220703125,0.003912933170795441,0.0712599903345108,-0.00287300581112504
1772789839937036000,23.5480361328125,-0.011594098061323166,-0.02617700770497322,-0.012263890355825424
1772789839957071400,23.5680712890625,-0.014311506412923336,-0.03423460200428963,-0.03156762197613716
1772789839977106400,23.5881064453125,-0.0063621886074543,0.013540787622332573,-0.013512011617422104
1772789839997141200,23.608141357421875,-0.004215829540044069,0.04352182894945145,-0.0011025723069906235
1772789840017176300,23.62817626953125,-0.010254980064928532,-0.0006276397034525871,-0.012148115783929825
1772789840037211100,23.648211181640626,-0.021617785096168518,-0.027073226869106293,-0.017920104786753654
1772789840057246200,23.66824609375,-0.004795706830918789,-0.008440565317869186,-0.009010141715407372
1772789840077281300,23.68828125,0.014583051204681396,0.023590870201587677,-0.013463479466736317
1772789840097317000,23.708317138671877,0.006220709066838026,-0.009776505641639233,-0.00395122729241848
1772789840117352200,23.728352294921876,-0.009576915763318539,-0.0014992207288742065,-0.006328089162707329
1772789840137387300,23.74838720703125,0.007166935596615076,0.014431614428758621,-0.02063889615237713
1772789840157422300,23.76842236328125,0.004812078084796667,-0.008455894887447357,0.012182578444480896
1772789840177457400,23.78845751953125,0.006854560226202011,-0.04783565178513527,0.04229136183857918
1772789840197492500,23.808492431640627,0.004638358950614929,-0.040244780480861664,0.023506946861743927
1772789840217527300,23.82852734375,0.0069817746989429,-0.0018221419304609299,0.0246360432356596
1772789840237562000,23.84856201171875,0.01421692781150341,0.03657935559749603,0.008070511743426323
1772789840257597200,23.86859716796875,0.0019442727789282799,-0.013347307220101357,0.00819668173789978
1772789840277632300,23.88863232421875,-0.029737742617726326,-0.07321453839540482,0.030855948105454445
1772789840297667300,23.908667236328125,-0.018259359523653984,-0.0011782851070165634,0.035944074392318726
1772789840317702400,23.928702392578124,0.0003132426645606756,0.04385194182395935,0.02616065740585327
1772789840337738200,23.94873828125,-0.011060075834393501,0.02483769878745079,0.004384567029774189
