time,seconds_elapsed,z,y,x
1772788583094905300,0.3229052734375,9.958003997802734,0.8108695149421692,-0.4066324830055237
1772788583135102000,0.36310205078125,9.944230079650879,0.7821237444877625,-0.3874686658382416
1772788583155200500,0.383200439453125,9.953213691711426,0.7773327827453613,-0.4066324830055237
1772788583175298800,0.403298828125,9.953213691711426,0.7869147062301636,-0.3922595977783203
1772788583195397400,0.4233974609375,9.958003997802734,0.8012875914573669,-0.39705055952072144
1772788583215495700,0.44349560546875,9.93943977355957,0.8012875914573669,-0.4066324830055237
1772788583235594200,0.46359423828125,9.944230079650879,0.8012875914573669,-0.40184152126312256
1772788583255692500,0.483692626953125,9.953213691711426,0.7917056679725647,-0.40184152126312256
1772788583275791000,0.503791015625,9.9484224319458,0.7964966297149658,-0.4066324830055237
1772788583295889400,0.523889404296875,9.9484224319458,0.7964966297149658,-0.39705055952072144
1772788583315988000,0.543988037109375,9.958003997802734,0.7821237444877625,-0.4114234447479248
1772788583336086300,0.564086181640625,9.92985725402832,0.7964966297149658,-0.39705055952072144
1772788583356184600,0.5841845703125,9.944230079650879,0.7869147062301636,-0.39705055952072144
1772788583376283100,0.604283203125,9.953213691711426,0.762959897518158,-0.42100536823272705
1772788583396381400,0.62438134765625,9.944230079650879,0.7964966297149658,-0.40184152126312256
1772788583416480000,0.64447998046875,9.9484224319458,0.8012875914573669,-0.40184152126312256
1772788583436578300,0.664578369140625,9.934648513793945,0.762959897518158,-0.40184152126312256
1772788583456676900,0.6846767578125,9.93943977355957,0.7773327827453613,-0.3922595977783203
1772788583476775200,0.704775146484375,9.915484428405762,0.8156604170799255,-0.3874686658382416
1772788583496873700,0.724873779296875,9.93943977355957,0.7964966297149658,-0.3874686658382416
1772788583516972000,0.744971923828125,9.958003997802734,0.7821237444877625,-0.40184152126312256
1772788583537070300,0.7650703125,9.938840866088867,0.8108695149421692,-0.40184152126312256
1772788583557169000,0.7851689453125,9.96279525756836,0.7917056679725647,-0.40184152126312256
1772788583577267200,0.80526708984375,9.934648513793945,0.7725418210029602,-0.4066324830055237
1772788583597365800,0.82536572265625,9.92985725402832,0.7964966297149658,-0.37788674235343933
1772788583617464000,0.845464111328125,9.938840866088867,0.7964966297149658,-0.39705055952072144
1772788583637562600,0.865562744140625,9.9484224319458,0.7869147062301636,-0.4066324830055237
1772788583657661000,0.885660888671875,9.938840866088867,0.7964966297149658,-0.3874686658382416
1772788583677760000,0.905760009765625,9.92985725402832,0.8156604170799255,-0.3922595977783203
1772788583697859300,0.925859375,9.949021339416504,0.7869147062301636,-0.41082456707954407
1772788583717958700,0.945958740234375,9.920275688171387,0.7964966297149658,-0.38686978816986084
1772788583738057700,0.9660576171875,9.93943977355957,0.7964966297149658,-0.38686978816986084
1772788583758157000,0.986156982421875,9.92985725402832,0.8006886839866638,-0.4012426435947418
1772788583778256400,1.00625634765625,9.925066947937012,0.7869147062301636,-0.38686978816986084
1772788583798355700,1.026355712890625,9.934648513793945,0.7773327827453613,-0.39166074991226196
1772788583818455000,1.046455078125,9.949021339416504,0.7958977222442627,-0.41082456707954407
1772788583838554400,1.066554443359375,9.93943977355957,0.8054796457290649,-0.4156155288219452
1772788583858653700,1.08665380859375,9.93943977355957,0.7911067605018616,-0.3964517116546631
1772788583878753000,1.1067529296875,9.953812599182129,0.8006886839866638,-0.40064379572868347
1772788583898852400,1.126852294921875,9.920275688171387,0.8156604170799255,-0.4012426435947418
1772788583918951700,1.14695166015625,9.920275688171387,0.7869147062301636,-0.40184152126312256
1772788583939051000,1.167051025390625,9.944230079650879,0.8108695149421692,-0.40184152126312256
1772788583959150300,1.187150390625,9.944230079650879,0.8012875914573669,-0.40184152126312256
1772788583979249700,1.207249755859375,9.9484224319458,0.8060785531997681,-0.4114234447479248
1772788583999349000,1.227348876953125,9.953213691711426,0.8012875914573669,-0.3922595977783203
1772788584019448300,1.2474482421875,9.925066947937012,0.7917056679725647,-0.3922595977783203
1772788584039547600,1.267547607421875,9.934648513793945,0.7964966297149658,-0.4066324830055237
1772788584059647000,1.28764697265625,9.920275688171387,0.7869147062301636,-0.40184152126312256
1772788584079746000,1.30774609375,9.925066947937012,0.8060785531997681,-0.4066324830055237
1772788584099845400,1.327845458984375,9.92985725402832,0.8060785531997681,-0.3880675137042999
1772788584119944700,1.34794482421875,9.92985725402832,0.7917056679725647,-0.3976494371891022
1772788584140044000,1.3680439453125,9.9484224319458,0.7821237444877625,-0.37369465827941895
1772788584160143400,1.388143310546875,9.9484224319458,0.7875135540962219,-0.3976494371891022
1772788584180242000,1.408241943359375,9.929258346557617,0.8012875914573669,-0.4072313606739044
1772788584200340000,1.428340087890625,9.929258346557617,0.7827225923538208,-0.3976494371891022
1772788584220438300,1.448438232421875,9.938840866088867,0.8066774010658264,-0.41202232241630554
1772788584240536600,1.46853662109375,9.924468040466309,0.8258412480354309,-0.39285847544670105
1772788584260635000,1.488634765625,9.938840866088867,0.8066774010658264,-0.3976494371891022
1772788584280733200,1.508733154296875,9.934049606323242,0.8018864393234253,-0.38387542963027954
1772788584300831200,1.528831298828125,9.934648513793945,0.8108695149421692,-0.37788674235343933
1772788584320929500,1.548929443359375,9.967586517333984,0.7917056679725647,-0.3922595977783203
1772788584341027800,1.56902783203125,9.943631172180176,0.7869147062301636,-0.39705055952072144
1772788584361126100,1.589126220703125,9.92985725402832,0.7869147062301636,-0.3922595977783203
1772788584381224200,1.60922412109375,9.92985725402832,0.7773327827453613,-0.4162144064903259
1772788584401322500,1.629322509765625,9.92985725402832,0.7869147062301636,-0.40184152126312256
1772788584421420800,1.6494208984375,9.925066947937012,0.8012875914573669,-0.39705055952072144
1772788584441519000,1.66951904296875,9.934648513793945,0.8060785531997681,-0.3874686658382416
1772788584461617200,1.6896171875,9.943631172180176,0.8012875914573669,-0.38267770409584045
1772788584481715500,1.709715576171875,9.934648513793945,0.7821237444877625,-0.4066324830055237
1772788584501813800,1.729813720703125,9.910693168640137,0.7970954775810242,-0.3880675137042999
1772788584521911800,1.749911865234375,9.938840866088867,0.7875135540962219,-0.39285847544670105
1772788584542010000,1.770010009765625,9.938840866088867,0.792304515838623,-0.39285847544670105
1772788584562108400,1.7901083984375,9.910693168640137,0.8066774010658264,-0.39285847544670105
1772788584582206700,1.810206787109375,9.929258346557617,0.8114683628082275,-0.4072313606739044
1772788584602304800,1.8303046875,9.929258346557617,0.792304515838623,-0.38866639137268066
1772788584622403000,1.850403076171875,9.934049606323242,0.8018864393234253,-0.38866639137268066
1772788584642501400,1.87050146484375,9.919676780700684,0.7970954775810242,-0.3934573531150818
1772788584662599700,1.890599609375,9.938840866088867,0.792304515838623,-0.40783020853996277
1772788584682699500,1.910699462890625,9.943631172180176,0.7827225923538208,-0.3982483148574829
1772788584702799600,1.930799560546875,9.92985725402832,0.7964966297149658,-0.3880675137042999
1772788584722899700,1.950899658203125,9.920275688171387,0.8108695149421692,-0.3880675137042999
1772788584742999800,1.970999755859375,9.938840866088867,0.8012875914573669,-0.3976494371891022
1772788584763100000,1.991099853515625,9.920275688171387,0.7869147062301636,-0.4072313606739044
1772788584783200000,2.011199951171875,9.925066947937012,0.8204513788223267,-0.39285847544670105
1772788584803300000,2.031300048828125,9.934049606323242,0.8156604170799255,-0.4024403989315033
1772788584823400200,2.051400146484375,9.943631172180176,0.7964966297149658,-0.4024403989315033
1772788584843500300,2.071500244140625,9.915484428405762,0.8300333023071289,-0.39705055952072144
1772788584863600400,2.091600341796875,9.910693168640137,0.7964966297149658,-0.39705055952072144
1772788584883700700,2.11170068359375,9.934648513793945,0.7677508592605591,-0.4162144064903259
1772788584903800800,2.13180078125,9.919676780700684,0.7779316306114197,-0.40783020853996277
1772788584923901000,2.15190087890625,9.924468040466309,0.8018864393234253,-0.40783020853996277
1772788584944001000,2.1720009765625,9.929258346557617,0.7731407284736633,-0.3934573531150818
1772788584964101000,2.19210107421875,9.943631172180176,0.7827225923538208,-0.38866639137268066
1772788584984201200,2.212201171875,9.943631172180176,0.792304515838623,-0.38387542963027954
1772788585004301300,2.23230126953125,9.934049606323242,0.7539768815040588,-0.3982483148574829
1772788585024401400,2.2524013671875,9.957405090332031,0.7875135540962219,-0.3934573531150818
1772788585044501500,2.27250146484375,9.943631172180176,0.8162593245506287,-0.38387542963027954
1772788585064601600,2.2926015625,9.952614784240723,0.7970954775810242,-0.40783020853996277
1772788585084701700,2.31270166015625,9.929258346557617,0.792304515838623,-0.38387542963027954
1772788585104802000,2.332802001953125,9.914885520935059,0.7827225923538208,-0.40303927659988403
1772788585124902100,2.352902099609375,9.919676780700684,0.7875135540962219,-0.3934573531150818
1772788585145002200,2.373002197265625,9.914885520935059,0.7875135540962219,-0.3934573531150818
1772788585165102300,2.393102294921875,9.934049606323242,0.7875135540962219,-0.3982483148574829
1772788585185202200,2.4132021484375,9.924468040466309,0.8162593245506287,-0.38866639137268066
1772788585205301800,2.4333017578125,9.938840866088867,0.7970954775810242,-0.3982483148574829
1772788585225401600,2.453401611328125,9.924468040466309,0.8018864393234253,-0.40783020853996277
1772788585245501200,2.473501220703125,9.910094261169434,0.7970954775810242,-0.38387542963027954
1772788585265601000,2.49360107421875,9.934049606323242,0.8066774010658264,-0.3790844678878784
1772788585285700900,2.513700927734375,9.929258346557617,0.8114683628082275,-0.36950257420539856
1772788585305800400,2.533800537109375,9.943631172180176,0.75876784324646,-0.38387542963027954
1772788585325900300,2.553900390625,9.9484224319458,0.7827225923538208,-0.38866639137268066
1772788585346000100,2.574000244140625,9.924468040466309,0.8114683628082275,-0.3742935359477997
1772788585366099700,2.594099609375,9.924468040466309,0.792304515838623,-0.38387542963027954
1772788585386199600,2.614199462890625,9.938840866088867,0.7970954775810242,-0.4126211702823639
1772788585406299100,2.634299072265625,9.938840866088867,0.8018864393234253,-0.4036381244659424
1772788585426399000,2.65439892578125,9.943631172180176,0.792304515838623,-0.3940562307834625
1772788585446498800,2.674498779296875,9.952614784240723,0.7875135540962219,-0.3940562307834625
1772788585466598400,2.694598388671875,9.952614784240723,0.7827225923538208,-0.3940562307834625
1772788585486698200,2.7146982421875,9.914885520935059,0.792304515838623,-0.37489238381385803
1772788585506798000,2.734798095703125,9.958003997802734,0.7491859197616577,-0.3742935359477997
1772788585526897700,2.754897705078125,9.943631172180176,0.7683497667312622,-0.38866639137268066
1772788585546997500,2.77499755859375,9.929258346557617,0.8066774010658264,-0.40303927659988403
1772788585567097300,2.795097412109375,9.919676780700684,0.8018864393234253,-0.3934573531150818
1772788585587197000,2.815197021484375,9.929258346557617,0.75876784324646,-0.3982483148574829
1772788585607296800,2.835296875,9.929258346557617,0.7875135540962219,-0.3790844678878784
1772788585627396400,2.855396240234375,9.938840866088867,0.7970954775810242,-0.3742935359477997
1772788585647496200,2.87549609375,9.943631172180176,0.7875135540962219,-0.3880675137042999
1772788585667595800,2.895595703125,9.953213691711426,0.7683497667312622,-0.3880675137042999
1772788585687694600,2.915694580078125,9.929258346557617,0.7683497667312622,-0.37369465827941895
1772788585707793400,2.93579345703125,9.924468040466309,0.788112461566925,-0.385073184967041
1772788585727892200,2.955892333984375,9.933450698852539,0.7593666911125183,-0.37549126148223877
1772788585747991000,2.975990966796875,9.933450698852539,0.788112461566925,-0.38986414670944214
1772788585768089900,2.99608984375,9.947823524475098,0.7929034233093262,-0.4042370021343231
1772788585788188700,3.016188720703125,9.914885520935059,0.7689486145973206,-0.3946550786495209
1772788585808287500,3.03628759765625,9.933450698852539,0.7689486145973206,-0.36650821566581726
1772788585828386300,3.05638623046875,9.957405090332031,0.7647565007209778,-0.36650821566581726
1772788585848485000,3.076485107421875,9.938241958618164,0.7887113094329834,-0.3904629945755005
1772788585868584000,3.096583984375,9.905303955078125,0.7887113094329834,-0.3712991774082184
1772788585888682800,3.116682861328125,9.938241958618164,0.7887113094329834,-0.3904629945755005
1772788585908781600,3.136781494140625,9.929258346557617,0.8024852871894836,-0.385073184967041
1772788585928880400,3.15688037109375,9.929258346557617,0.7833214998245239,-0.37070029973983765
1772788585948979200,3.176979248046875,9.929258346557617,0.7833214998245239,-0.4042370021343231
1772788585969078000,3.197078125,9.929258346557617,0.7689486145973206,-0.38986414670944214
1772788585989177000,3.217177001953125,9.947823524475098,0.7833214998245239,-0.3946550786495209
1772788586009275600,3.237275634765625,9.934049606323242,0.7593666911125183,-0.4042370021343231
1772788586029374500,3.25737451171875,9.914885520935059,0.7737395763397217,-0.385073184967041
1772788586049473500,3.2774736328125,9.938241958618164,0.788112461566925,-0.385073184967041
1772788586069572400,3.297572265625,9.938241958618164,0.7785305380821228,-0.3946550786495209
1772788586089671200,3.317671142578125,9.938241958618164,0.7689486145973206,-0.399446040391922
1772788586109770000,3.33777001953125,9.938241958618164,0.7833214998245239,-0.38986414670944214
1772788586129868800,3.357868896484375,9.934049606323242,0.7785305380821228,-0.38986414670944214
1772788586149967600,3.377967529296875,9.914885520935059,0.7689486145973206,-0.385073184967041
1772788586170066200,3.398066162109375,9.934049606323242,0.7689486145973206,-0.37549126148223877
1772788586190164700,3.418164794921875,9.934049606323242,0.788112461566925,-0.385073184967041
1772788586210263600,3.438263671875,9.929258346557617,0.8024852871894836,-0.385073184967041
1772788586230362000,3.458362060546875,9.934049606323242,0.7929034233093262,-0.3946550786495209
1772788586250460700,3.478460693359375,9.924468040466309,0.7641576528549194,-0.385073184967041
1772788586270559200,3.498559326171875,9.934049606323242,0.7689486145973206,-0.38986414670944214
1772788586290657800,3.51865771484375,9.947823524475098,0.788112461566925,-0.399446040391922
1772788586310756400,3.53875634765625,9.919676780700684,0.788112461566925,-0.3892652690410614
1772788586330855000,3.55885498046875,9.934049606323242,0.7641576528549194,-0.3940562307834625
1772788586350953500,3.578953369140625,9.914885520935059,0.7689486145973206,-0.3892652690410614
1772788586371052300,3.59905224609375,9.957405090332031,0.7785305380821228,-0.37968334555625916
1772788586411249400,3.63924951171875,9.934049606323242,0.7785305380821228,-0.3940562307834625
1772788586431348000,3.659347900390625,9.947823524475098,0.7785305380821228,-0.3844743072986603
1772788586451446500,3.679446533203125,9.919676780700684,0.7785305380821228,-0.3892652690410614
1772788586471545000,3.699545166015625,9.929258346557617,0.7827225923538208,-0.4036381244659424
1772788586491643600,3.7196435546875,9.943631172180176,0.7785305380821228,-0.3940562307834625
1772788586511742200,3.7397421875,9.934049606323242,0.788112461566925,-0.39884716272354126
1772788586531840800,3.7598408203125,9.938241958618164,0.7737395763397217,-0.3940562307834625
1772788586551939600,3.779939697265625,9.919676780700684,0.7689486145973206,-0.37968334555625916
1772788586572038100,3.8000380859375,9.924468040466309,0.7641576528549194,-0.3844743072986603
1772788586592136700,3.82013671875,9.938241958618164,0.7833214998245239,-0.3892652690410614
1772788586612235300,3.8402353515625,9.938241958618164,0.7976943254470825,-0.3844743072986603
1772788586632333800,3.860333740234375,9.934049606323242,0.7785305380821228,-0.39884716272354126
1772788586652432400,3.880432373046875,9.952614784240723,0.7785305380821228,-0.39884716272354126
1772788586672531000,3.900531005859375,9.938241958618164,0.7833214998245239,-0.39884716272354126
1772788586692629500,3.92062939453125,9.929258346557617,0.7785305380821228,-0.3844743072986603
1772788586712728300,3.940728271484375,9.928659439086914,0.7689486145973206,-0.399446040391922
1772788586732827000,3.960826904296875,9.919676780700684,0.7737395763397217,-0.38986414670944214
1772788586752925400,3.980925537109375,9.928659439086914,0.7641576528549194,-0.37549126148223877
1772788586773024300,4.001024169921875,9.933450698852539,0.7737395763397217,-0.3802822232246399
1772788586793122800,4.021122802734375,9.923869132995605,0.7785305380821228,-0.3946550786495209
1772788586813221400,4.041221435546875,9.919676780700684,0.7695474624633789,-0.3952539563179016
1772788586833320000,4.06131982421875,9.947823524475098,0.7833214998245239,-0.3904629945755005
1772788586853418800,4.081418701171875,9.928659439086914,0.7647565007209778,-0.3952539563179016
1772788586873517300,4.101517333984375,9.923869132995605,0.7599655389785767,-0.3952539563179016
1772788586893615900,4.121615966796875,9.928659439086914,0.7791293859481812,-0.3952539563179016
1772788586913714400,4.14171435546875,9.924468040466309,0.7929034233093262,-0.3940562307834625
1772788586933813200,4.161813232421875,9.924468040466309,0.7689486145973206,-0.3892652690410614
1772788586953911800,4.181911865234375,9.919676780700684,0.8024852871894836,-0.37968334555625916
1772788586974010400,4.20201025390625,9.943032264709473,0.7785305380821228,-0.3892652690410614
1772788586994109000,4.22210888671875,9.947823524475098,0.7785305380821228,-0.39884716272354126
1772788587014207700,4.242207763671875,9.947823524475098,0.7833214998245239,-0.37968334555625916
1772788587034306300,4.262306396484375,9.943032264709473,0.788112461566925,-0.3844743072986603
1772788587054404900,4.28240478515625,9.919676780700684,0.7689486145973206,-0.39884716272354126
1772788587074503700,4.302503662109375,9.929258346557617,0.7785305380821228,-0.3892652690410614
1772788587094602200,4.322602294921875,9.934049606323242,0.7689486145973206,-0.3844743072986603
1772788587114700800,4.34270068359375,9.923869132995605,0.8024852871894836,-0.3802822232246399
1772788587134799400,4.36279931640625,9.923869132995605,0.7833214998245239,-0.399446040391922
1772788587154898200,4.382898193359375,9.928659439086914,0.7976943254470825,-0.3946550786495209
1772788587174996700,4.402996826171875,9.933450698852539,0.8072762489318848,-0.3904629945755005
1772788587195095800,4.423095703125,9.947823524475098,0.7929034233093262,-0.3904629945755005
1772788587215195000,4.44319482421875,9.938241958618164,0.77433842420578,-0.40004491806030273
1772788587235294000,4.4632939453125,9.933450698852539,0.7647565007209778,-0.3952539563179016
1772788587255393000,4.48339306640625,9.933450698852539,0.7695474624633789,-0.3904629945755005
1772788587275492400,4.503492431640625,9.943032264709473,0.7791293859481812,-0.3760901391506195
1772788587295591200,4.523591064453125,9.947823524475098,0.7887113094329834,-0.3904629945755005
1772788587315690200,4.543690185546875,9.928659439086914,0.7791293859481812,-0.4054347574710846
1772788587335789300,4.563789306640625,9.91907787322998,0.77433842420578,-0.3910618722438812
1772788587375987500,4.603987548828125,9.928659439086914,0.7647565007209778,-0.39585283398628235
1772788587396086500,4.62408642578125,9.961597442626953,0.77433842420578,-0.3910618722438812
1772788587416185600,4.644185546875,9.94243335723877,0.7887113094329834,-0.39585283398628235
1772788587436284700,4.66428466796875,9.91907787322998,0.7887113094329834,-0.39585283398628235
1772788587456383700,4.6843837890625,9.928659439086914,0.7839203476905823,-0.38686978816986084
1772788587496582000,4.724581787109375,9.923869132995605,0.788112461566925,-0.41381892561912537
1772788587516681000,4.744680908203125,9.928659439086914,0.7833214998245239,-0.3946550786495209
1772788587536780000,4.764780029296875,9.938241958618164,0.7833214998245239,-0.38986414670944214
1772788587576978200,4.804978271484375,9.943032264709473,0.788112461566925,-0.3946550786495209
1772788587597077200,4.8250771484375,9.924468040466309,0.788112461566925,-0.3802822232246399
1772788587617176300,4.84517626953125,9.947823524475098,0.7689486145973206,-0.3802822232246399
1772788587637275400,4.865275390625,9.933450698852539,0.7641576528549194,-0.4042370021343231
1772788587657374500,4.88537451171875,9.924468040466309,0.7785305380821228,-0.3946550786495209
1772788587677474000,4.90547412109375,9.929258346557617,0.7976943254470825,-0.38986414670944214
1772788587697574000,4.925573974609375,9.943032264709473,0.7887113094329834,-0.39585283398628235
1772788587737773800,4.96577392578125,9.928659439086914,0.7935022711753845,-0.3910618722438812
1772788587757873700,4.985873779296875,9.938241958618164,0.7982932329177856,-0.3862709105014801
1772788587777973800,5.005973876953125,9.933450698852539,0.7839203476905823,-0.3862709105014801
1772788587798073600,5.026073486328125,9.933450698852539,0.7647565007209778,-0.3910618722438812
1772788587818173400,5.04617333984375,9.923869132995605,0.7839203476905823,-0.3910618722438812
1772788587838273300,5.066273193359375,9.933450698852539,0.77433842420578,-0.3820788264274597
1772788587858373400,5.086373291015625,9.947224617004395,0.770146369934082,-0.3964517116546631
1772788587878473200,5.10647314453125,9.947224617004395,0.7893101572990417,-0.39166074991226196
1772788587898573000,5.126572998046875,9.923869132995605,0.7887113094329834,-0.38567203283309937
1772788587918673000,5.1466728515625,9.947823524475098,0.77433842420578,-0.38567203283309937
1772788587938773000,5.16677294921875,9.952614784240723,0.7695474624633789,-0.3904629945755005
1772788587958872800,5.186872802734375,9.938241958618164,0.77433842420578,-0.40004491806030273
1772788587978972700,5.20697265625,9.943032264709473,0.7695474624633789,-0.40004491806030273
1772788587999072800,5.22707275390625,9.943032264709473,0.7791293859481812,-0.3760901391506195
1772788588019172600,5.247172607421875,9.952614784240723,0.7839203476905823,-0.3760901391506195
1772788588039272400,5.2672724609375,9.933450698852539,0.77433842420578,-0.3952539563179016
1772788588059372300,5.287372314453125,9.923869132995605,0.7839203476905823,-0.40483587980270386
1772788588079472400,5.307472412109375,9.943032264709473,0.77433842420578,-0.40004491806030273
1772788588099572200,5.327572265625,9.923869132995605,0.7791293859481812,-0.40483587980270386
1772788588119672000,5.347672119140625,9.928659439086914,0.7695474624633789,-0.4144177734851837
1772788588139772200,5.367772216796875,9.91907787322998,0.7791293859481812,-0.4054347574710846
1772788588179971000,5.40797119140625,9.943032264709473,0.7647565007209778,-0.4054347574710846
1772788588200069600,5.428069580078125,9.943032264709473,0.7791293859481812,-0.41022568941116333
1772788588220168200,5.448168212890625,9.943032264709473,0.77433842420578,-0.40064379572868347
1772788588240266800,5.468266845703125,9.91907787322998,0.7791293859481812,-0.39585283398628235
1772788588260365300,5.488365234375,9.943032264709473,0.7599655389785767,-0.40064379572868347
1772788588280464000,5.5084638671875,9.933450698852539,0.7647565007209778,-0.4054347574710846
1772788588300562700,5.528562744140625,9.943032264709473,0.7887113094329834,-0.39585283398628235
1772788588320661200,5.5486611328125,9.95201587677002,0.7695474624633789,-0.40064379572868347
1772788588340759800,5.568759765625,9.923869132995605,0.7791293859481812,-0.3910618722438812
1772788588360858400,5.5888583984375,9.91907787322998,0.77433842420578,-0.4054347574710846
1772788588380957000,5.60895703125,9.947224617004395,0.7839203476905823,-0.3910618722438812
1772788588401055500,5.629055419921875,9.933450698852539,0.8030841946601868,-0.3862709105014801
1772788588421154000,5.649154052734375,9.961597442626953,0.7935022711753845,-0.40064379572868347
1772788588441252900,5.6692529296875,9.95201587677002,0.7887113094329834,-0.40064379572868347
1772788588461351400,5.689351318359375,9.94243335723877,0.7839203476905823,-0.3910618722438812
1772788588481450000,5.709449951171875,9.947224617004395,0.77433842420578,-0.4198076128959656
1772788588501548500,5.729548583984375,9.947823524475098,0.7791293859481812,-0.3904629945755005
1772788588521647000,5.749647216796875,9.928659439086914,0.7935022711753845,-0.40483587980270386
1772788588541745700,5.76974560546875,9.947823524475098,0.7839203476905823,-0.40483587980270386
1772788588561844200,5.78984423828125,9.947823524475098,0.77433842420578,-0.3952539563179016
1772788588581942800,5.80994287109375,9.928659439086914,0.7887113094329834,-0.3952539563179016
1772788588602041600,5.83004150390625,9.928659439086914,0.7791293859481812,-0.40483587980270386
1772788588622140200,5.85014013671875,9.943032264709473,0.77433842420578,-0.38567203283309937
1772788588642238700,5.87023876953125,9.933450698852539,0.7647565007209778,-0.40004491806030273
1772788588662337300,5.890337158203125,9.933450698852539,0.7929034233093262,-0.40004491806030273
1772788588682436900,5.910436767578125,9.938241958618164,0.7833214998245239,-0.40004491806030273
1772788588702536700,5.93053662109375,9.943032264709473,0.7839203476905823,-0.40483587980270386
1772788588722636500,5.950636474609375,9.938241958618164,0.7839203476905823,-0.40004491806030273
1772788588742736400,5.970736328125,9.928659439086914,0.77433842420578,-0.3904629945755005
1772788588782936000,6.01093603515625,9.938241958618164,0.7839203476905823,-0.40004491806030273
1772788588823135700,6.0511357421875,9.975970268249512,0.7791293859481812,-0.3904629945755005
1772788588843235600,6.071235595703125,9.947823524475098,0.77433842420578,-0.38567203283309937
1772788588863335400,6.09133544921875,9.928659439086914,0.7839203476905823,-0.40004491806030273
1772788588883435300,6.111435302734375,9.928659439086914,0.7839203476905823,-0.40004491806030273
1772788588903534800,6.131534912109375,9.943032264709473,0.7785305380821228,-0.4042370021343231
1772788588923634700,6.151634765625,9.928659439086914,0.7785305380821228,-0.3904629945755005
1772788588943734500,6.171734619140625,9.947823524475098,0.7641576528549194,-0.385073184967041
1772788588963834400,6.19183447265625,9.947823524475098,0.7689486145973206,-0.3946550786495209
1772788588983934200,6.211934326171875,9.938241958618164,0.7833214998245239,-0.3946550786495209
1772788589004034000,6.232033935546875,9.952614784240723,0.788112461566925,-0.3946550786495209
1772788589024134000,6.2521337890625,9.938241958618164,0.7976943254470825,-0.385073184967041
1772788589044233700,6.272233642578125,9.952614784240723,0.7545757293701172,-0.3946550786495209
1772788589064333600,6.29233349609375,9.962196350097656,0.7689486145973206,-0.4042370021343231
1772788589084433400,6.312433349609375,9.938241958618164,0.8024852871894836,-0.3946550786495209
1772788589104533200,6.332533203125,9.938241958618164,0.7887113094329834,-0.3904629945755005
1772788589124633000,6.352633056640625,9.938241958618164,0.7791293859481812,-0.40483587980270386
1772788589144732700,6.372732666015625,9.943032264709473,0.7791293859481812,-0.3904629945755005
1772788589164832800,6.392832763671875,9.956806182861328,0.7695474624633789,-0.409626841545105
1772788589184932400,6.412932373046875,9.947823524475098,0.7791293859481812,-0.4054347574710846
1772788589205032000,6.433031982421875,9.943032264709473,0.7599655389785767,-0.41501665115356445
1772788589225131500,6.453131591796875,9.947823524475098,0.77433842420578,-0.40064379572868347
1772788589245231000,6.473231201171875,9.947823524475098,0.7887113094329834,-0.41022568941116333
1772788589265330700,6.49333056640625,9.928659439086914,0.7791293859481812,-0.41022568941116333
1772788589285430300,6.51343017578125,9.938241958618164,0.7695474624633789,-0.41022568941116333
1772788589305529900,6.53352978515625,9.933450698852539,0.7929034233093262,-0.38986414670944214
1772788589325629400,6.55362939453125,9.947823524475098,0.788112461566925,-0.38986414670944214
1772788589345729000,6.57372900390625,9.947823524475098,0.788112461566925,-0.4042370021343231
1772788589365828600,6.59382861328125,9.933450698852539,0.7929034233093262,-0.399446040391922
1772788589385928200,6.61392822265625,9.938241958618164,0.8072762489318848,-0.399446040391922
1772788589406027800,6.63402783203125,9.929258346557617,0.788112461566925,-0.4084290862083435
1772788589426127400,6.65412744140625,9.966987609863281,0.7689486145973206,-0.4036381244659424
1772788589446227000,6.67422705078125,9.929258346557617,0.788112461566925,-0.4036381244659424
1772788589466326500,6.694326416015625,9.962196350097656,0.7737395763397217,-0.3892652690410614
1772788589486426400,6.71442626953125,9.943032264709473,0.7737395763397217,-0.3940562307834625
1772788589506526000,6.73452587890625,9.943032264709473,0.7695474624633789,-0.40004491806030273
1772788589526625500,6.75462548828125,9.943032264709473,0.8030841946601868,-0.3904629945755005
1772788589566824700,6.79482470703125,9.933450698852539,0.7503836750984192,-0.42399969696998596
1772788589586924300,6.81492431640625,9.933450698852539,0.7935022711753845,-0.41022568941116333
1772788589607023900,6.83502392578125,9.947823524475098,0.7887113094329834,-0.3910618722438812
1772788589627123500,6.85512353515625,9.95201587677002,0.7887113094329834,-0.40064379572868347
1772788589667322600,6.895322509765625,9.938241958618164,0.7982932329177856,-0.41022568941116333
1772788589687421700,6.915421630859375,9.966388702392578,0.7887113094329834,-0.4054347574710846
1772788589707520800,6.935520751953125,9.943032264709473,0.7599655389785767,-0.409626841545105
1772788589727619600,6.95561962890625,9.933450698852539,0.7791293859481812,-0.409626841545105
1772788589747718700,6.97571875,9.947823524475098,0.8078751564025879,-0.3910618722438812
1772788589767817700,6.995817626953125,9.956806182861328,0.7982932329177856,-0.41022568941116333
1772788589787916800,7.015916748046875,9.947823524475098,0.7839203476905823,-0.40064379572868347
1772788589808015600,7.036015625,9.933450698852539,0.7791293859481812,-0.41022568941116333
1772788589828114700,7.05611474609375,9.938241958618164,0.7791293859481812,-0.40064379572868347
1772788589868312800,7.096312744140625,9.938241958618164,0.7647565007209778,-0.3910618722438812
1772788589888411600,7.11641162109375,9.938241958618164,0.7647565007209778,-0.4054347574710846
1772788589908510700,7.1365107421875,9.947823524475098,0.77433842420578,-0.40483587980270386
1772788589928609800,7.15660986328125,9.943032264709473,0.7551746368408203,-0.3952539563179016
1772788589948708900,7.176708984375,9.943032264709473,0.7641576528549194,-0.399446040391922
1772788589968808000,7.196807861328125,9.933450698852539,0.7976943254470825,-0.3946550786495209
1772788589988906800,7.21690673828125,9.952614784240723,0.7785305380821228,-0.3946550786495209
1772788590029105000,7.25710498046875,9.962196350097656,0.7689486145973206,-0.4042370021343231
1772788590049204000,7.277203857421875,9.962196350097656,0.7785305380821228,-0.399446040391922
1772788590069302800,7.297302734375,9.938241958618164,0.7785305380821228,-0.4042370021343231
1772788590089401900,7.31740185546875,9.97177791595459,0.788112461566925,-0.4042370021343231
1772788590109501000,7.3375009765625,9.957405090332031,0.788112461566925,-0.40004491806030273
1772788590129600000,7.35760009765625,9.952614784240723,0.7833214998245239,-0.40902796387672424
1772788590149699000,7.377698974609375,9.947823524475098,0.7929034233093262,-0.41381892561912537
1772788590169798000,7.3977978515625,9.966388702392578,0.7785305380821228,-0.40902796387672424
1772788590189896000,7.41789599609375,9.943032264709473,0.788112461566925,-0.4042370021343231
1772788590209993700,7.43799365234375,9.971179008483887,0.788112461566925,-0.40902796387672424
1772788590230091800,7.458091796875,9.966388702392578,0.7689486145973206,-0.38986414670944214
1772788590250189800,7.47818994140625,9.952614784240723,0.7833214998245239,-0.3946550786495209
1772788590270288000,7.498287841796875,9.952614784240723,0.7785305380821228,-0.4042370021343231
1772788590290386000,7.518385986328125,9.938241958618164,0.7641576528549194,-0.41381892561912537
1772788590310483700,7.538483642578125,9.947823524475098,0.7545757293701172,-0.4042370021343231
1772788590330581800,7.558581787109375,9.943032264709473,0.7785305380821228,-0.4042370021343231
1772788590350679800,7.5786796875,9.933450698852539,0.788112461566925,-0.40902796387672424
1772788590370777900,7.59877783203125,9.952614784240723,0.7689486145973206,-0.3946550786495209
1772788590410974000,7.638973876953125,9.957405090332031,0.788112461566925,-0.3946550786495209
1772788590451169800,7.679169677734375,9.943032264709473,0.7929034233093262,-0.4036381244659424
1772788590471267800,7.699267822265625,9.943032264709473,0.8216491341590881,-0.4228019714355469
1772788590491366000,7.719365966796875,9.947823524475098,0.7976943254470825,-0.4228019714355469
1772788590531561700,7.759561767578125,9.947823524475098,0.7976943254470825,-0.4186098873615265
1772788590551659800,7.77965966796875,9.943032264709473,0.7689486145973206,-0.40902796387672424
1772788590571757800,7.7997578125,9.952614784240723,0.7689486145973206,-0.3802822232246399
1772788590591855900,7.81985595703125,9.943032264709473,0.788112461566925,-0.38986414670944214
1772788590632051700,7.8600517578125,9.985551834106445,0.7833214998245239,-0.4042370021343231
1772788590652149800,7.880149658203125,9.957405090332031,0.7737395763397217,-0.40902796387672424
1772788590672248000,7.900248046875,9.943032264709473,0.788112461566925,-0.4515477120876312
1772788590692346400,7.920346435546875,9.947823524475098,0.7785305380821228,-0.4377737045288086
1772788590712444700,7.940444580078125,9.947823524475098,0.7689486145973206,-0.4234008193016052
1772788590732543200,7.960543212890625,9.947823524475098,0.7976943254470825,-0.42819178104400635
1772788590752641500,7.9806416015625,9.952614784240723,0.7929034233093262,-0.40902796387672424
1772788590772740000,8.000739990234376,9.929258346557617,0.7833214998245239,-0.40902796387672424
1772788590792838700,8.020838623046876,9.957405090332031,0.7689486145973206,-0.399446040391922
1772788590812937000,8.04093701171875,9.914885520935059,0.788112461566925,-0.3946550786495209
1772788590833035500,8.061035400390624,9.952614784240723,0.8072762489318848,-0.41381892561912537
1772788590853133800,8.0811337890625,9.962196350097656,0.7929034233093262,-0.40902796387672424
1772788590873232400,8.101232421875,9.947823524475098,0.7785305380821228,-0.4377737045288086
1772788590893330700,8.12133056640625,9.938241958618164,0.8072762489318848,-0.40902796387672424
1772788590913429200,8.14142919921875,9.957405090332031,0.7785305380821228,-0.43238386511802673
1772788590933527600,8.161527587890625,9.934049606323242,0.7833214998245239,-0.39884716272354126
1772788590953626000,8.181626220703125,9.957405090332031,0.7737395763397217,-0.41801100969314575
1772788590973724400,8.201724365234375,9.929258346557617,0.8024852871894836,-0.4084290862083435
1772788590993823000,8.221822998046875,9.966987609863281,0.788112461566925,-0.41322004795074463
1772788591013921300,8.24192138671875,9.962196350097656,0.7833214998245239,-0.427592933177948
1772788591034019800,8.262019775390625,9.943032264709473,0.7785305380821228,-0.441965788602829
1772788591054118100,8.2821181640625,9.947823524475098,0.7737395763397217,-0.4467567503452301
1772788591074216700,8.302216796875,9.924468040466309,0.8024852871894836,-0.43717482686042786
1772788591094315000,8.32231494140625,9.976569175720215,0.7929034233093262,-0.43717482686042786
1772788591114413600,8.34241357421875,9.924468040466309,0.7593666911125183,-0.4467567503452301
1772788591134511900,8.362511962890625,9.957405090332031,0.7449938058853149,-0.43238386511802673
1772788591154610400,8.3826103515625,9.929258346557617,0.7785305380821228,-0.41801100969314575
1772788591174709000,8.402708984375,9.947823524475098,0.7497847676277161,-0.41801100969314575
1772788591214907400,8.442907470703124,9.938840866088867,0.7210390567779541,-0.41801100969314575
1772788591235006700,8.4630068359375,9.929258346557617,0.7689486145973206,-0.41322004795074463
1772788591255105800,8.483105712890625,9.962196350097656,0.7785305380821228,-0.427592933177948
1772788591275205000,8.503205078125,9.966987609863281,0.7545757293701172,-0.4467567503452301
1772788591295304200,8.52330419921875,9.943631172180176,0.7689486145973206,-0.4515477120876312
1772788591315403500,8.543403564453126,9.919676780700684,0.7833214998245239,-0.43717482686042786
1772788591335502600,8.563502685546876,9.919676780700684,0.7449938058853149,-0.43717482686042786
1772788591355602000,8.583601806640624,9.952614784240723,0.7354119420051575,-0.4515477120876312
1772788591375701000,8.603700927734375,9.952614784240723,0.7929034233093262,-0.4467567503452301
1772788591395800000,8.623800048828125,9.919676780700684,0.7737395763397217,-0.43238386511802673
1772788591415899400,8.6438994140625,9.947823524475098,0.7449938058853149,-0.43238386511802673
1772788591435998500,8.66399853515625,9.962196350097656,0.7737395763397217,-0.4659205675125122
1772788591456097800,8.684097900390626,9.962196350097656,0.7641576528549194,-0.4611296057701111
1772788591476196900,8.70419677734375,9.938840866088867,0.7497847676277161,-0.43238386511802673
1772788591496296200,8.724296142578124,9.9484224319458,0.7539768815040588,-0.42220309376716614
1772788591516395300,8.744395263671874,9.97177791595459,0.7066661715507507,-0.44136691093444824
1772788591536494600,8.76449462890625,9.943631172180176,0.7539768815040588,-0.4317850172519684
1772788591556593700,8.78459375,9.986150741577148,0.7300220727920532,-0.42220309376716614
1772788591576692700,8.804692626953125,9.953213691711426,0.7018752098083496,-0.38387542963027954
1772788591596792000,8.8247919921875,9.943631172180176,0.720440149307251,-0.38866639137268066
1772788591616891100,8.84489111328125,9.929258346557617,0.7252311110496521,-0.40303927659988403
1772788591636990500,8.864990478515624,9.9484224319458,0.7443949580192566,-0.4126211702823639
1772788591657089500,8.885089599609374,9.929258346557617,0.7491859197616577,-0.42220309376716614
1772788591677189600,8.905189697265625,9.924468040466309,0.7443949580192566,-0.43597710132598877
1772788591697290000,8.9252900390625,9.938840866088867,0.7539768815040588,-0.44136691093444824
1772788591717390600,8.945390625,9.962196350097656,0.7539768815040588,-0.44615787267684937
1772788591737491000,8.965490966796875,9.958003997802734,0.75876784324646,-0.44136691093444824
1772788591757591600,8.985591552734375,9.943631172180176,0.7539768815040588,-0.44136691093444824
1772788591777692200,9.005692138671876,9.958003997802734,0.7300220727920532,-0.44136691093444824
1772788591817893000,9.04589306640625,9.9484224319458,0.7300220727920532,-0.44136691093444824
1772788591837993500,9.065993408203125,9.938840866088867,0.7491859197616577,-0.42699405550956726
1772788591858094000,9.086093994140626,9.9484224319458,0.7252311110496521,-0.417412132024765
1772788591898295000,9.126294921875,9.943631172180176,0.7114571332931519,-0.40303927659988403
1772788591918395600,9.146395751953126,9.910693168640137,0.7300220727920532,-0.3934573531150818
1772788591938496000,9.16649609375,9.910693168640137,0.7258300185203552,-0.3982483148574829
1772788591958596600,9.1865966796875,9.957405090332031,0.716248095035553,-0.3934573531150818
1772788591998797600,9.226797607421876,9.929258346557617,0.7491859197616577,-0.3982483148574829
1772788592018898200,9.246898193359375,9.938840866088867,0.7306209802627563,-0.4126211702823639
1772788592038998500,9.26699853515625,9.97177791595459,0.7396039962768555,-0.4365759789943695
1772788592079199500,9.307199462890624,9.934049606323242,0.7491859197616577,-0.42220309376716614
1772788592119400700,9.347400634765625,9.9484224319458,0.7060673236846924,-0.3982483148574829
1772788592139501000,9.3675009765625,9.962196350097656,0.75876784324646,-0.3982483148574829
1772788592159601700,9.3876015625,9.97177791595459,0.7396039962768555,-0.4317850172519684
1772788592179701200,9.407701171875,9.962196350097656,0.7156491875648499,-0.42220309376716614
1772788592219899600,9.447899658203125,9.943631172180176,0.6964854001998901,-0.417412132024765
1772788592239998700,9.467998779296876,9.943631172180176,0.6964854001998901,-0.40303927659988403
1772788592260098000,9.48809814453125,9.938840866088867,0.7060673236846924,-0.3934573531150818
1772788592280197000,9.508197021484374,9.938840866088867,0.7012763619422913,-0.3934573531150818
1772788592300296400,9.52829638671875,9.9484224319458,0.7108582854270935,-0.38387542963027954
1772788592320395800,9.548395751953125,9.943631172180176,0.7156491875648499,-0.4126211702823639
1772788592340494800,9.568494873046875,9.962196350097656,0.7156491875648499,-0.42220309376716614
1772788592360594200,9.58859423828125,9.943631172180176,0.720440149307251,-0.42699405550956726
1772788592380693200,9.608693359375,9.9484224319458,0.7156491875648499,-0.42699405550956726
1772788592400792600,9.62879248046875,9.966987609863281,0.720440149307251,-0.417412132024765
1772788592420891600,9.6488916015625,9.966987609863281,0.7300220727920532,-0.40783020853996277
1772788592440991000,9.668990966796875,9.938840866088867,0.7156491875648499,-0.40303927659988403
1772788592461090000,9.689090087890625,9.938840866088867,0.7108582854270935,-0.3982483148574829
1772788592481189400,9.709189453125,9.9484224319458,0.7348130345344543,-0.3790844678878784
1772788592501288700,9.729288818359375,9.957405090332031,0.6922932863235474,-0.3892652690410614
1772788592521387800,9.7493876953125,9.957405090332031,0.6922932863235474,-0.3892652690410614
1772788592541486800,9.76948681640625,9.934049606323242,0.7066661715507507,-0.3844743072986603
1772788592561586200,9.789586181640624,9.943631172180176,0.7066661715507507,-0.4084290862083435
1772788592581685500,9.809685546875,9.957405090332031,0.7114571332931519,-0.4084290862083435
1772788592601784600,9.82978466796875,9.929258346557617,0.716248095035553,-0.4036381244659424
1772788592621884000,9.8498837890625,9.914885520935059,0.7018752098083496,-0.4036381244659424
1772788592641983000,9.86998291015625,9.957405090332031,0.7066661715507507,-0.4084290862083435
1772788592662082300,9.890082275390625,9.97177791595459,0.6970842480659485,-0.3940562307834625
1772788592682182000,9.910181884765626,9.957405090332031,0.6970842480659485,-0.3940562307834625
1772788592702281500,9.930281494140624,9.958003997802734,0.7012763619422913,-0.3976494371891022
1772788592722381000,9.950381103515625,9.938840866088867,0.7012763619422913,-0.4024403989315033
1772788592742481000,9.97048095703125,9.96279525756836,0.7252311110496521,-0.4263951778411865
1772788592762580500,9.99058056640625,9.97177791595459,0.7156491875648499,-0.4168132543563843
1772788592782680000,10.01068017578125,9.938840866088867,0.7012763619422913,-0.4024403989315033
1772788592802780000,10.03077978515625,9.934049606323242,0.7156491875648499,-0.4024403989315033
1772788592822879500,10.05087939453125,9.967586517333984,0.6964854001998901,-0.4024403989315033
1772788592842979000,10.07097900390625,9.96279525756836,0.7156491875648499,-0.38267770409584045
1772788592863079000,10.091078857421875,9.96279525756836,0.691694438457489,-0.3874686658382416
1772788592883178500,10.111178466796876,9.938840866088867,0.6773215532302856,-0.38267770409584045
1772788592903278000,10.131278076171874,9.924468040466309,0.6821125149726868,-0.3832765817642212
1772788592923378000,10.1513779296875,9.943631172180176,0.6869034767150879,-0.39285847544670105
1772788592943477500,10.1714775390625,9.966987609863281,0.6725305914878845,-0.3976494371891022
1772788592963577000,10.1915771484375,9.958003997802734,0.6869034767150879,-0.4216042160987854
1772788592983677000,10.211677001953126,9.943631172180176,0.691694438457489,-0.4168132543563843
1772788593003776500,10.231776611328126,9.938840866088867,0.6964854001998901,-0.4168132543563843
1772788593023876000,10.2518759765625,9.938840866088867,0.720440149307251,-0.4168132543563843
1772788593043976000,10.271975830078125,9.958003997802734,0.6964854001998901,-0.4216042160987854
1772788593084175000,10.312175048828125,9.943631172180176,0.7060673236846924,-0.4072313606739044
1772788593104275000,10.33227490234375,9.967586517333984,0.7012763619422913,-0.40184152126312256
1772788593124374500,10.35237451171875,9.96279525756836,0.7102593779563904,-0.4114234447479248
1772788593144474400,10.372474365234375,9.953213691711426,0.7198413014411926,-0.4162144064903259
1772788593164574000,10.392573974609375,9.944230079650879,0.7102593779563904,-0.4114234447479248
1772788593184672800,10.4126728515625,9.977168083190918,0.7102593779563904,-0.4012426435947418
1772788593204771800,10.432771728515625,9.949021339416504,0.7294232249259949,-0.4012426435947418
1772788593224870700,10.45287060546875,9.944230079650879,0.7437961101531982,-0.4012426435947418
1772788593244969500,10.472969482421876,9.934648513793945,0.7006774544715881,-0.4012426435947418
1772788593285167400,10.51316748046875,9.96279525756836,0.7054684162139893,-0.4156155288219452
1772788593305266200,10.53326611328125,9.967586517333984,0.7060673236846924,-0.43537822365760803
1772788593325365000,10.553364990234375,9.925066947937012,0.7108582854270935,-0.4305872619152069
1772788593345464000,10.573464111328125,9.925066947937012,0.691694438457489,-0.4257963001728058
1772788593365563000,10.59356298828125,9.943631172180176,0.6964854001998901,-0.4066324830055237
1772788593385661700,10.61366162109375,9.943631172180176,0.6964854001998901,-0.4114234447479248
1772788593405760800,10.6337607421875,9.958003997802734,0.6773215532302856,-0.4162144064903259
1772788593425859600,10.653859619140626,9.958003997802734,0.691694438457489,-0.43537822365760803
1772788593445958400,10.67395849609375,9.953213691711426,0.7012763619422913,-0.43537822365760803
1772788593466057200,10.69405712890625,9.9484224319458,0.7108582854270935,-0.4497511088848114
1772788593486156300,10.71415625,9.938840866088867,0.720440149307251,-0.4497511088848114
1772788593506255000,10.734255126953125,9.938840866088867,0.7060673236846924,-0.4641239643096924
1772788593526354200,10.754354248046875,9.953213691711426,0.691694438457489,-0.44016918540000916
1772788593546453000,10.774452880859375,9.967586517333984,0.6821125149726868,-0.4497511088848114
1772788593566551800,10.7945517578125,9.958003997802734,0.7012763619422913,-0.4497511088848114
1772788593586650600,10.814650634765625,9.958003997802734,0.7156491875648499,-0.4497511088848114
1772788593606749700,10.834749755859375,9.967586517333984,0.7060673236846924,-0.44016918540000916
1772788593626848500,10.8548486328125,9.953213691711426,0.7060673236846924,-0.4497511088848114
1772788593646947300,10.874947265625,9.934648513793945,0.6964854001998901,-0.44016918540000916
1772788593667046100,10.895046142578124,9.925066947937012,0.6964854001998901,-0.4497511088848114
1772788593687145000,10.91514501953125,9.953213691711426,0.7060673236846924,-0.4449601471424103
1772788593707243800,10.935243896484375,9.9484224319458,0.7060673236846924,-0.43118613958358765
1772788593727342600,10.955342529296875,9.958003997802734,0.6869034767150879,-0.4263951778411865
1772788593747441400,10.97544140625,9.9484224319458,0.691694438457489,-0.43118613958358765
1772788593767540000,10.9955400390625,9.938840866088867,0.6869034767150879,-0.4317850172519684
1772788593787638800,11.015638671875,9.9484224319458,0.7108582854270935,-0.4509488344192505
1772788593807737600,11.035737548828125,9.953213691711426,0.7108582854270935,-0.4509488344192505
1772788593827836400,11.05583642578125,9.938840866088867,0.716248095035553,-0.46053075790405273
1772788593847935200,11.075935302734376,9.9484224319458,0.716248095035553,-0.44136691093444824
1772788593868033800,11.09603369140625,9.943631172180176,0.7018752098083496,-0.44136691093444824
1772788593888132600,11.116132568359374,9.952614784240723,0.7018752098083496,-0.44136691093444824
1772788593908231400,11.1362314453125,9.944230079650879,0.7006774544715881,-0.4395703077316284
1772788593928330200,11.156330322265624,9.977168083190918,0.7006774544715881,-0.44436126947402954
1772788593948429000,11.176428955078125,9.944230079650879,0.7102593779563904,-0.4395703077316284
1772788593968527600,11.196527587890625,9.953812599182129,0.6815136671066284,-0.4395703077316284
1772788593988626400,11.21662646484375,9.972376823425293,0.695886492729187,-0.4539431929588318
1772788594008725200,11.236725341796875,9.949021339416504,0.7102593779563904,-0.45334431529045105
1772788594048923000,11.2769228515625,9.958602905273438,0.7150503396987915,-0.43418049812316895
1772788594069021400,11.297021484375,9.953812599182129,0.709660530090332,-0.4293895363807678
1772788594089120300,11.317120361328126,9.949021339416504,0.709660530090332,-0.4245985746383667
1772788594109219000,11.337218994140626,9.944230079650879,0.6863046288490295,-0.4395703077316284
1772788594149416700,11.377416748046874,9.944230079650879,0.7198413014411926,-0.42998838424682617
1772788594169515500,11.397515625,9.934648513793945,0.7054684162139893,-0.4347793459892273
1772788594189614600,11.417614501953125,9.93943977355957,0.7054684162139893,-0.4347793459892273
1772788594209714000,11.4377138671875,9.953213691711426,0.7102593779563904,-0.4347793459892273
1772788594229813000,11.45781298828125,9.944230079650879,0.7006774544715881,-0.42519745230674744
1772788594249912300,11.477912353515626,9.96279525756836,0.6863046288490295,-0.4347793459892273
1772788594270011600,11.49801171875,9.934648513793945,0.6815136671066284,-0.4395703077316284
1772788594290110700,11.51811083984375,9.93943977355957,0.7102593779563904,-0.44436126947402954
1772788594330309400,11.558309326171875,9.953213691711426,0.7060673236846924,-0.44016918540000916
1772788594350408400,11.578408447265625,9.953213691711426,0.720440149307251,-0.43537822365760803
1772788594370507800,11.5985078125,9.943631172180176,0.7108582854270935,-0.43597710132598877
1772788594390606800,11.61860693359375,9.96279525756836,0.7156491875648499,-0.43118613958358765
1772788594410706200,11.6387060546875,9.96279525756836,0.7012763619422913,-0.43118613958358765
1772788594430805500,11.658805419921874,9.934049606323242,0.6964854001998901,-0.4263951778411865
1772788594450904600,11.678904541015624,9.953213691711426,0.7060673236846924,-0.43118613958358765
1772788594471004000,11.69900390625,9.953213691711426,0.7108582854270935,-0.4407680630683899
1772788594491103200,11.719103271484375,9.938840866088867,0.7108582854270935,-0.4407680630683899
1772788594511202300,11.739202392578125,9.953213691711426,0.695886492729187,-0.4395703077316284
1772788594531301600,11.759301513671875,9.972376823425293,0.7006774544715881,-0.42998838424682617
1772788594551401000,11.77940087890625,9.944230079650879,0.7198413014411926,-0.4347793459892273
1772788594571500000,11.7995,9.93943977355957,0.7006774544715881,-0.42519745230674744
1772788594591599400,11.819599365234374,9.944230079650879,0.6910955309867859,-0.4347793459892273
1772788594631797800,11.8597978515625,9.967586517333984,0.7006774544715881,-0.43418049812316895
1772788594651897000,11.87989697265625,9.93943977355957,0.7102593779563904,-0.4293895363807678
1772788594671996000,11.899995849609375,9.944230079650879,0.7102593779563904,-0.4293895363807678
1772788594692094000,11.920093994140625,9.93943977355957,0.7006774544715881,-0.4437623918056488
1772788594712192000,11.94019189453125,9.943631172180176,0.7150503396987915,-0.44016918540000916
1772788594732290000,11.9602900390625,9.934648513793945,0.7198413014411926,-0.43537822365760803
1772788594752387800,11.980387939453125,9.943631172180176,0.7108582854270935,-0.4305872619152069
1772788594772486000,12.00048583984375,9.958003997802734,0.7156491875648499,-0.43537822365760803
1772788594812682000,12.040681884765625,9.934648513793945,0.7108582854270935,-0.44016918540000916
1772788594832780000,12.060780029296875,9.934648513793945,0.7108582854270935,-0.43537822365760803
1772788594852878000,12.080878173828125,9.953213691711426,0.7060673236846924,-0.43537822365760803
1772788594872976100,12.10097607421875,9.9484224319458,0.7012763619422913,-0.43537822365760803
1772788594893074200,12.12107421875,9.958003997802734,0.7156491875648499,-0.4257963001728058
1772788594933270300,12.161270263671875,9.953213691711426,0.7006774544715881,-0.4257963001728058
1772788594953368300,12.181368408203125,9.934648513793945,0.7150503396987915,-0.42100536823272705
1772788594973466000,12.201466064453125,9.934648513793945,0.695886492729187,-0.43537822365760803
1772788595013662200,12.241662109375,9.953213691711426,0.7246322631835938,-0.4305872619152069
1772788595033760300,12.26176025390625,9.958003997802734,0.7006774544715881,-0.43537822365760803
1772788595053858300,12.2818583984375,9.944230079650879,0.6863046288490295,-0.4449601471424103
1772788595073956400,12.301956298828125,9.953213691711426,0.6910955309867859,-0.43537822365760803
1772788595094054400,12.322054443359375,9.958003997802734,0.7150503396987915,-0.4257963001728058
1772788595114152400,12.34215234375,9.949021339416504,0.695886492729187,-0.4347793459892273
1772788595134250500,12.36225048828125,9.967586517333984,0.695886492729187,-0.42519745230674744
1772788595154348500,12.3823486328125,9.958003997802734,0.7102593779563904,-0.42998838424682617
1772788595174447000,12.402447021484376,9.958003997802734,0.695886492729187,-0.4347793459892273
1772788595214646000,12.44264599609375,9.958602905273438,0.7150503396987915,-0.42998838424682617
1772788595234745600,12.46274560546875,9.949021339416504,0.7102593779563904,-0.4293895363807678
1772788595254845000,12.482844970703125,9.958602905273438,0.7006774544715881,-0.43418049812316895
1772788595274944500,12.502944580078125,9.958602905273438,0.6910955309867859,-0.4293895363807678
1772788595295044000,12.523044189453126,9.949021339416504,0.7006774544715881,-0.4293895363807678
1772788595335243000,12.563242919921874,9.958003997802734,0.7006774544715881,-0.43537822365760803
1772788595355342300,12.58334228515625,9.93943977355957,0.691694438457489,-0.4257963001728058
1772788595375442000,12.60344189453125,9.96279525756836,0.7012763619422913,-0.4257963001728058
1772788595395541500,12.62354150390625,9.943631172180176,0.7108582854270935,-0.4449601471424103
1772788595415640800,12.643640869140626,9.96279525756836,0.7156491875648499,-0.44016918540000916
1772788595435740400,12.663740478515624,9.958003997802734,0.7012763619422913,-0.44016918540000916
1772788595455840000,12.683840087890625,9.92985725402832,0.7060673236846924,-0.4305872619152069
1772788595475939300,12.703939208984375,9.943631172180176,0.691694438457489,-0.43537822365760803
1772788595496039000,12.724038818359375,9.953812599182129,0.7102593779563904,-0.4347793459892273
1772788595516138200,12.74413818359375,9.977168083190918,0.7150503396987915,-0.42519745230674744
1772788595536237800,12.76423779296875,9.93943977355957,0.7198413014411926,-0.4245985746383667
1772788595576436700,12.804436767578125,9.92985725402832,0.7006774544715881,-0.4389714300632477
1772788595616635600,12.8446357421875,9.944230079650879,0.7102593779563904,-0.43418049812316895
1772788595636735200,12.8647353515625,9.949021339416504,0.6863046288490295,-0.4437623918056488
1772788595656834800,12.884834716796876,9.944230079650879,0.6863046288490295,-0.4485533535480499
1772788595676934100,12.90493408203125,9.944230079650879,0.6904966831207275,-0.4293895363807678
1772788595717132800,12.9451328125,9.958003997802734,0.7054684162139893,-0.4305872619152069
1772788595737232100,12.965232177734375,9.953213691711426,0.7150503396987915,-0.43537822365760803
1772788595757331500,12.98533154296875,9.943631172180176,0.7102593779563904,-0.4305872619152069
1772788595777430800,13.0054306640625,9.92985725402832,0.7006774544715881,-0.43537822365760803
1772788595817629700,13.045629638671874,9.93943977355957,0.691694438457489,-0.4305872619152069
1772788595837729000,13.06572900390625,9.943631172180176,0.7108582854270935,-0.44016918540000916
1772788595857828400,13.085828369140625,9.958003997802734,0.7060673236846924,-0.43537822365760803
1772788595877927700,13.105927734375,9.938840866088867,0.7156491875648499,-0.44016918540000916
1772788595898027000,13.126027099609376,9.944230079650879,0.7150503396987915,-0.4293895363807678
1772788595918126300,13.146126220703126,9.934648513793945,0.7102593779563904,-0.43418049812316895
1772788595938225700,13.1662255859375,9.953812599182129,0.7102593779563904,-0.4198076128959656
1772788595958325000,13.186324951171875,9.949021339416504,0.6910955309867859,-0.4437623918056488
1772788595978424300,13.20642431640625,9.93943977355957,0.6815136671066284,-0.4389714300632477
1772788595998524000,13.22652392578125,9.949021339416504,0.6952876448631287,-0.4198076128959656
1772788596018623200,13.246623291015625,9.949021339416504,0.6952876448631287,-0.4198076128959656
1772788596038722600,13.26672265625,9.944230079650879,0.6857057213783264,-0.4287906587123871
1772788596058822000,13.28682177734375,9.953812599182129,0.7048695683479309,-0.42399969696998596
1772788596078921200,13.306921142578124,9.958602905273438,0.709660530090332,-0.43837258219718933
1772788596119120000,13.347119873046875,9.944230079650879,0.6910955309867859,-0.4293895363807678
1772788596139219200,13.36721923828125,9.934648513793945,0.7198413014411926,-0.4389714300632477
1772788596159318500,13.387318603515626,9.96279525756836,0.7102593779563904,-0.42519745230674744
1772788596179418000,13.407418212890626,9.953812599182129,0.6863046288490295,-0.4395703077316284
1772788596199517700,13.427517578125,9.93943977355957,0.7006774544715881,-0.42998838424682617
1772788596219617300,13.4476171875,9.949021339416504,0.7102593779563904,-0.4347793459892273
1772788596239716900,13.467716796875,9.958003997802734,0.6910955309867859,-0.4347793459892273
1772788596259816400,13.48781640625,9.958003997802734,0.7006774544715881,-0.42519745230674744
1772788596279916000,13.507916015625,9.925066947937012,0.6815136671066284,-0.4156155288219452
1772788596300015600,13.528015625,9.934648513793945,0.7288243174552917,-0.41501665115356445
1772788596320115200,13.548115234375,9.944230079650879,0.7006774544715881,-0.4293895363807678
1772788596340214500,13.568214599609375,9.944230079650879,0.695886492729187,-0.4245985746383667
1772788596360314000,13.588314208984375,9.958602905273438,0.695886492729187,-0.4293895363807678
1772788596380413700,13.60841357421875,9.949021339416504,0.7048695683479309,-0.4245985746383667
1772788596400513300,13.62851318359375,9.934648513793945,0.7144514918327332,-0.4198076128959656
1772788596420612900,13.64861279296875,9.963394165039062,0.7000786066055298,-0.4054347574710846
1772788596440712400,13.66871240234375,9.949021339416504,0.6904966831207275,-0.4389714300632477
1772788596460812000,13.68881201171875,9.949021339416504,0.6952876448631287,-0.4293895363807678
1772788596480911600,13.70891162109375,9.963394165039062,0.7000786066055298,-0.4198076128959656
1772788596501011200,13.72901123046875,9.930456161499023,0.6904966831207275,-0.4287906587123871
1772788596521110800,13.74911083984375,9.953812599182129,0.6952876448631287,-0.42399969696998596
1772788596541210400,13.76921044921875,9.968185424804688,0.6809147596359253,-0.409626841545105
1772788596561310000,13.78931005859375,9.949021339416504,0.6952876448631287,-0.3952539563179016
1772788596581409500,13.809409423828125,9.934648513793945,0.709660530090332,-0.43837258219718933
1772788596601509000,13.829509033203125,9.949021339416504,0.6761237978935242,-0.4335816204547882
1772788596621608700,13.849608642578126,9.949021339416504,0.7144514918327332,-0.4144177734851837
1772788596641708300,13.869708251953124,9.944230079650879,0.709660530090332,-0.42399969696998596
1772788596661807600,13.8898076171875,9.944230079650879,0.7000786066055298,-0.40483587980270386
1772788596681906200,13.90990625,9.958602905273438,0.709660530090332,-0.409626841545105
1772788596702004500,13.93000439453125,9.949021339416504,0.6910955309867859,-0.4156155288219452
1772788596722102800,13.950102783203125,9.949021339416504,0.695886492729187,-0.42998838424682617
1772788596742201000,13.970201171875,9.944230079650879,0.695886492729187,-0.4156155288219452
1772788596762299400,13.99029931640625,9.944230079650879,0.6863046288490295,-0.41082456707954407
1772788596782397700,14.010397705078125,9.949021339416504,0.6863046288490295,-0.4347793459892273
1772788596802496000,14.03049609375,9.944230079650879,0.695886492729187,-0.4395703077316284
1772788596822594300,14.05059423828125,9.934648513793945,0.6863046288490295,-0.42998838424682617
1772788596842692600,14.070692626953125,9.953213691711426,0.7054684162139893,-0.4204064905643463
1772788596862791000,14.090791015625,9.93943977355957,0.7102593779563904,-0.4204064905643463
1772788596882889200,14.11088916015625,9.934648513793945,0.695886492729187,-0.4204064905643463
1772788596902987500,14.130987548828125,9.949021339416504,0.7006774544715881,-0.4156155288219452
1772788596923085800,14.1510859375,9.93943977355957,0.6863046288490295,-0.4204064905643463
1772788596943184100,14.17118408203125,9.93943977355957,0.695886492729187,-0.42519745230674744
1772788596963282400,14.191282470703126,9.953213691711426,0.7102593779563904,-0.42998838424682617
1772788596983380700,14.211380615234376,9.9484224319458,0.7150503396987915,-0.42998838424682617
1772788597003479000,14.23147900390625,9.944230079650879,0.7054684162139893,-0.4257963001728058
1772788597023577300,14.251577392578126,9.9484224319458,0.7102593779563904,-0.4305872619152069
1772788597043675600,14.271675537109376,9.958003997802734,0.7150503396987915,-0.4257963001728058
1772788597063774000,14.29177392578125,9.943631172180176,0.7198413014411926,-0.4114234447479248
1772788597083872300,14.311872314453124,9.9484224319458,0.7054684162139893,-0.4257963001728058
1772788597103970600,14.331970458984374,9.944230079650879,0.6952876448631287,-0.4245985746383667
1772788597124069000,14.352069091796874,9.953812599182129,0.6952876448631287,-0.40483587980270386
1772788597144167200,14.372167236328124,9.934648513793945,0.6952876448631287,-0.4144177734851837
1772788597164265700,14.392265625,9.958602905273438,0.6952876448631287,-0.4287906587123871
1772788597184364300,14.4123642578125,9.935247421264648,0.7000786066055298,-0.4144177734851837
1772788597204463000,14.432463134765625,9.949021339416504,0.7000786066055298,-0.41920873522758484
1772788597224562200,14.452562255859375,9.949021339416504,0.7000786066055298,-0.41920873522758484
1772788597244661000,14.472660888671875,9.972975730895996,0.7048695683479309,-0.4186098873615265
1772788597264759800,14.492759765625,9.940038681030273,0.709660530090332,-0.4234008193016052
1772788597284858600,14.512858642578125,9.944828987121582,0.6952876448631287,-0.4234008193016052
1772788597304957700,14.532957763671876,9.944230079650879,0.6719317436218262,-0.4245985746383667
1772788597325056500,14.553056396484376,9.958602905273438,0.6910955309867859,-0.4245985746383667
1772788597365254100,14.593254150390624,9.949021339416504,0.7054684162139893,-0.4198076128959656
1772788597385353000,14.61335302734375,9.953812599182129,0.7102593779563904,-0.4245985746383667
1772788597405452000,14.6334521484375,9.92985725402832,0.6863046288490295,-0.4293895363807678
1772788597425550800,14.65355078125,9.963394165039062,0.695886492729187,-0.43418049812316895
1772788597445649700,14.673649658203125,9.953812599182129,0.7102593779563904,-0.4293895363807678
1772788597465748500,14.69374853515625,9.953812599182129,0.695886492729187,-0.4198076128959656
1772788597485847300,14.713847412109375,9.92985725402832,0.7054684162139893,-0.4293895363807678
1772788597505946000,14.733946044921876,9.934648513793945,0.6815136671066284,-0.43418049812316895
1772788597526045200,14.754045166015626,9.944230079650879,0.6767227053642273,-0.4245985746383667
1772788597546144000,14.77414404296875,9.934648513793945,0.6863046288490295,-0.4198076128959656
1772788597566242800,14.794242919921874,9.93943977355957,0.7006774544715881,-0.41501665115356445
1772788597586341600,14.814341552734374,9.944230079650879,0.6910955309867859,-0.4245985746383667
1772788597606440700,14.834440673828125,9.949021339416504,0.7006774544715881,-0.4156155288219452
1772788597626539500,14.85453955078125,9.953812599182129,0.695886492729187,-0.41082456707954407
1772788597646638300,14.874638427734375,9.925066947937012,0.7054684162139893,-0.42998838424682617
1772788597666737200,14.894737060546875,9.953812599182129,0.7006774544715881,-0.4347793459892273
1772788597686835500,14.91483544921875,9.934648513793945,0.7150503396987915,-0.42998838424682617
1772788597706933500,14.93493359375,9.925664901733398,0.709660530090332,-0.41022568941116333
1772788597727031800,14.95503173828125,9.958602905273438,0.6809147596359253,-0.41022568941116333
1772788597767228200,14.995228271484375,9.92985725402832,0.7000786066055298,-0.4293895363807678
1772788597787326200,15.015326171875,9.93943977355957,0.709660530090332,-0.4198076128959656
1772788597807424500,15.035424560546875,9.958602905273438,0.709660530090332,-0.42399969696998596
1772788597827522800,15.055522705078126,9.93943977355957,0.709660530090332,-0.41920873522758484
1772788597847620900,15.075620849609376,9.930456161499023,0.6952876448631287,-0.43837258219718933
1772788597867719200,15.09571923828125,9.930456161499023,0.6904966831207275,-0.4287906587123871
1772788597887817200,15.115817138671876,9.949021339416504,0.7144514918327332,-0.42399969696998596
1772788597907915500,15.13591552734375,9.93943977355957,0.6910955309867859,-0.4204064905643463
1772788597928013600,15.156013671875,9.915484428405762,0.6863046288490295,-0.4347793459892273
1772788597948112000,15.17611181640625,9.944230079650879,0.7006774544715881,-0.4204064905643463
1772788597968210000,15.1962099609375,9.972376823425293,0.7054684162139893,-0.4156155288219452
1772788597988308200,15.21630810546875,9.93943977355957,0.7150503396987915,-0.4305872619152069
1772788598008406500,15.236406494140626,9.953213691711426,0.7150503396987915,-0.4305872619152069
1772788598028504600,15.256504638671874,9.93943977355957,0.7150503396987915,-0.43537822365760803
1772788598048603000,15.276602783203124,9.93943977355957,0.6964854001998901,-0.42100536823272705
1772788598068701000,15.296700927734374,9.938840866088867,0.6869034767150879,-0.4305872619152069
1772788598088799200,15.31679931640625,9.938840866088867,0.691694438457489,-0.42100536823272705
1772788598108897300,15.336897216796874,9.944230079650879,0.695886492729187,-0.4012426435947418
1772788598128995600,15.35699560546875,9.934648513793945,0.7150503396987915,-0.4156155288219452
1772788598149094000,15.377093994140624,9.93943977355957,0.695886492729187,-0.41082456707954407
1772788598169192200,15.397192138671874,9.92985725402832,0.695886492729187,-0.4156155288219452
1772788598189290800,15.417290771484375,9.934648513793945,0.695886492729187,-0.42998838424682617
1772788598209389600,15.4373896484375,9.925066947937012,0.6910955309867859,-0.4257963001728058
1772788598229488400,15.45748828125,9.944230079650879,0.6863046288490295,-0.4162144064903259
1772788598249587000,15.4775869140625,9.953213691711426,0.7150503396987915,-0.42100536823272705
1772788598269685800,15.497685791015625,9.9484224319458,0.7102593779563904,-0.4257963001728058
1772788598289784600,15.51778466796875,9.934648513793945,0.7006774544715881,-0.43537822365760803
1772788598309883400,15.53788330078125,9.925066947937012,0.6910955309867859,-0.4257963001728058
1772788598329982000,15.55798193359375,9.943631172180176,0.6773215532302856,-0.4162144064903259
1772788598350080800,15.578080810546876,9.943631172180176,0.6869034767150879,-0.4305872619152069
1772788598370179600,15.5981796875,9.925066947937012,0.7150503396987915,-0.4257963001728058
1772788598390278100,15.618278076171874,9.934648513793945,0.7054684162139893,-0.4114234447479248
1772788598410377000,15.638376953125,9.934648513793945,0.7060673236846924,-0.42100536823272705
1772788598430475800,15.658475830078125,9.953213691711426,0.6964854001998901,-0.43537822365760803
1772788598450574600,15.67857470703125,9.943631172180176,0.6869034767150879,-0.4257963001728058
1772788598470673200,15.698673095703125,9.92985725402832,0.6869034767150879,-0.43537822365760803
1772788598490772000,15.71877197265625,9.953213691711426,0.7012763619422913,-0.43537822365760803
1772788598510870800,15.738870849609375,9.92985725402832,0.6910955309867859,-0.40603360533714294
1772788598530969300,15.75896923828125,9.944230079650879,0.7006774544715881,-0.42519745230674744
1772788598551068200,15.779068115234375,9.93943977355957,0.695886492729187,-0.42519745230674744
1772788598571167000,15.7991669921875,9.93943977355957,0.7006774544715881,-0.42998838424682617
1772788598591265800,15.819265869140626,9.93943977355957,0.7006774544715881,-0.4347793459892273
1772788598611364400,15.8393642578125,9.944230079650879,0.6863046288490295,-0.42998838424682617
1772788598631463200,15.859463134765624,9.92985725402832,0.6910955309867859,-0.4204064905643463
1772788598651562000,15.87956201171875,9.920275688171387,0.7102593779563904,-0.4156155288219452
1772788598671660800,15.899660888671875,9.944230079650879,0.6910955309867859,-0.42519745230674744
1772788598691759600,15.919759521484375,9.953812599182129,0.695886492729187,-0.4204064905643463
1772788598711858400,15.9398583984375,9.958003997802734,0.7006774544715881,-0.42998838424682617
1772788598731957500,15.95995751953125,9.958003997802734,0.7054684162139893,-0.4204064905643463
1772788598752056300,15.980056396484375,9.96279525756836,0.7102593779563904,-0.42519745230674744
1772788598772155400,16.0001552734375,9.944230079650879,0.695886492729187,-0.42998838424682617
1772788598792254200,16.020254150390624,9.910693168640137,0.6863046288490295,-0.42519745230674744
1772788598812353000,16.04035302734375,9.925066947937012,0.6910955309867859,-0.42100536823272705
1772788598832452000,16.0604521484375,9.953213691711426,0.7054684162139893,-0.42998838424682617
1772788598852551000,16.080551025390626,9.934648513793945,0.7198413014411926,-0.4347793459892273
1772788598872650000,16.10064990234375,9.9484224319458,0.695886492729187,-0.42100536823272705
1772788598892748800,16.120748779296875,9.953213691711426,0.6910955309867859,-0.4395703077316284
1772788598912847600,16.14084765625,9.953812599182129,0.695886492729187,-0.4198076128959656
1772788598932946700,16.16094677734375,9.949021339416504,0.7006774544715881,-0.4245985746383667
1772788598953045500,16.18104541015625,9.934648513793945,0.6863046288490295,-0.43418049812316895
1772788598973144300,16.201144287109376,9.934648513793945,0.7192424535751343,-0.4389714300632477
1772788598993243400,16.221243408203126,9.92985725402832,0.7048695683479309,-0.4245985746383667
1772788599013342200,16.24134228515625,9.949021339416504,0.7048695683479309,-0.4245985746383667
1772788599033441300,16.261441162109374,9.958602905273438,0.7000786066055298,-0.4245985746383667
1772788599053540000,16.2815400390625,9.949021339416504,0.7000786066055298,-0.4293895363807678
1772788599073639000,16.301638916015627,9.934648513793945,0.7000786066055298,-0.4335816204547882
1772788599093738000,16.321738037109377,9.93943977355957,0.6952876448631287,-0.42399969696998596
1772788599113836800,16.3418369140625,9.93943977355957,0.7054684162139893,-0.4156155288219452
1772788599133935900,16.361935791015625,9.944230079650879,0.695886492729187,-0.4395703077316284
1772788599154034700,16.38203466796875,9.953213691711426,0.695886492729187,-0.42998838424682617
1772788599174134300,16.40213427734375,9.944230079650879,0.7054684162139893,-0.42998838424682617
1772788599194234600,16.422234619140625,9.934648513793945,0.7246322631835938,-0.44436126947402954
1772788599214335000,16.4423349609375,9.9484224319458,0.7150503396987915,-0.43537822365760803
1772788599234435600,16.462435546875,9.953213691711426,0.695886492729187,-0.4449601471424103
1772788599254536000,16.482535888671876,9.9484224319458,0.7102593779563904,-0.44016918540000916
1772788599274636300,16.50263623046875,9.934648513793945,0.7054684162139893,-0.42100536823272705
1772788599294737000,16.52273681640625,9.943631172180176,0.7054684162139893,-0.4305872619152069
1772788599314837200,16.542837158203124,9.93943977355957,0.7102593779563904,-0.4162144064903259
1772788599334937600,16.5629375,9.943631172180176,0.6821125149726868,-0.43537822365760803
1772788599355038200,16.5830380859375,9.972376823425293,0.6869034767150879,-0.43537822365760803
1772788599375138600,16.603138671875,9.9484224319458,0.7054684162139893,-0.43537822365760803
1772788599395239000,16.623239013671874,9.92985725402832,0.7102593779563904,-0.4305872619152069
1772788599415339500,16.643339599609376,9.958003997802734,0.6964854001998901,-0.4305872619152069
1772788599435439900,16.66343994140625,9.953213691711426,0.7012763619422913,-0.43537822365760803
1772788599455540200,16.683540283203126,9.92985725402832,0.7108582854270935,-0.43537822365760803
1772788599475640800,16.703640869140624,9.943631172180176,0.7156491875648499,-0.4305872619152069
1772788599495741200,16.7237412109375,9.934648513793945,0.7108582854270935,-0.4305872619152069
1772788599515841500,16.743841552734374,9.944230079650879,0.7294232249259949,-0.4395703077316284
1772788599535942100,16.763942138671876,9.96279525756836,0.7006774544715881,-0.44436126947402954
1772788599556042500,16.78404248046875,9.953213691711426,0.695886492729187,-0.42998838424682617
1772788599576142800,16.804142822265625,9.934648513793945,0.7054684162139893,-0.42519745230674744
1772788599596243200,16.8242431640625,9.944230079650879,0.7054684162139893,-0.4347793459892273
1772788599616343800,16.84434375,9.949021339416504,0.6863046288490295,-0.44436126947402954
1772788599636444200,16.864444091796877,9.93943977355957,0.695886492729187,-0.42998838424682617
1772788599656544500,16.88454443359375,9.944230079650879,0.7150503396987915,-0.42998838424682617
1772788599676644400,16.904644287109374,9.953812599182129,0.6910955309867859,-0.42998838424682617
1772788599696743400,16.924743408203124,9.943631172180176,0.7054684162139893,-0.43537822365760803
1772788599716842800,16.9448427734375,9.915484428405762,0.7102593779563904,-0.4162144064903259
1772788599736941800,16.96494189453125,9.943631172180176,0.6964854001998901,-0.42100536823272705
1772788599757041200,16.985041259765627,9.953213691711426,0.6964854001998901,-0.4305872619152069
1772788599777140200,17.00514013671875,9.953213691711426,0.7060673236846924,-0.44016918540000916
1772788599797239600,17.025239501953124,9.934648513793945,0.691694438457489,-0.4305872619152069
1772788599817338600,17.045338623046874,9.943631172180176,0.691694438457489,-0.4305872619152069
1772788599837438000,17.06543798828125,9.967586517333984,0.7060673236846924,-0.4305872619152069
1772788599857537000,17.085537109375,9.953213691711426,0.7060673236846924,-0.43537822365760803
1772788599877636400,17.10563623046875,9.92985725402832,0.7012763619422913,-0.4305872619152069
1772788599897735400,17.1257353515625,9.944230079650879,0.7150503396987915,-0.4245985746383667
1772788599917834500,17.14583447265625,9.963394165039062,0.6863046288490295,-0.4293895363807678
1772788599937933800,17.165933837890623,9.958602905273438,0.7144514918327332,-0.4389714300632477
1772788599958033000,17.186032958984374,9.93943977355957,0.7048695683479309,-0.43418049812316895
1772788599978132200,17.20613232421875,9.93943977355957,0.7000786066055298,-0.4245985746383667
1772788599998231300,17.226231201171874,9.93943977355957,0.7048695683479309,-0.43418049812316895
1772788600018330600,17.24633056640625,9.949021339416504,0.7000786066055298,-0.44316354393959045
1772788600038429700,17.2664296875,9.949021339416504,0.7048695683479309,-0.42399969696998596
1772788600058529000,17.286529052734377,9.953812599182129,0.6952876448631287,-0.4144177734851837
1772788600078628000,17.306628173828123,9.944230079650879,0.7048695683479309,-0.4335816204547882
1772788600098727400,17.3267275390625,9.944230079650879,0.695886492729187,-0.4395703077316284
1772788600138925800,17.36692578125,9.92985725402832,0.7006774544715881,-0.4305872619152069
1772788600159025000,17.38702490234375,9.93943977355957,0.7060673236846924,-0.4257963001728058
1772788600179124200,17.407124267578126,9.958003997802734,0.7060673236846924,-0.42100536823272705
1772788600199223600,17.4272236328125,9.967586517333984,0.7156491875648499,-0.4305872619152069
1772788600219323000,17.447322998046875,9.934648513793945,0.7012763619422913,-0.43537822365760803
1772788600239422200,17.467422119140625,9.9484224319458,0.7108582854270935,-0.4257963001728058
1772788600259521500,17.487521484375,9.96279525756836,0.7012763619422913,-0.4305872619152069
1772788600279620900,17.507620849609374,9.938840866088867,0.6964854001998901,-0.44555899500846863
1772788600299720200,17.52772021484375,9.92985725402832,0.691694438457489,-0.4305872619152069
1772788600319819500,17.547819580078126,9.934648513793945,0.691694438457489,-0.4257963001728058
1772788600339918800,17.5679189453125,9.938840866088867,0.7012763619422913,-0.4305872619152069
1772788600360018200,17.58801806640625,9.938840866088867,0.7060673236846924,-0.4162144064903259
1772788600380117500,17.608117431640625,9.943631172180176,0.6964854001998901,-0.42100536823272705
1772788600400216800,17.628216796875,9.934648513793945,0.7060673236846924,-0.43537822365760803
1772788600420316400,17.64831640625,9.943631172180176,0.7012763619422913,-0.4162144064903259
1772788600440415500,17.66841552734375,9.958003997802734,0.6773215532302856,-0.4305872619152069
1772788600460515000,17.68851513671875,9.9484224319458,0.7012763619422913,-0.44016918540000916
1772788600480614400,17.708614501953125,9.9484224319458,0.7156491875648499,-0.4305872619152069
1772788600500713700,17.728713623046875,9.944230079650879,0.7006774544715881,-0.4395703077316284
1772788600520813000,17.74881298828125,9.9484224319458,0.695886492729187,-0.4395703077316284
1772788600540912400,17.768912353515624,9.93943977355957,0.7006774544715881,-0.4395703077316284
1772788600561011700,17.78901171875,9.934648513793945,0.7054684162139893,-0.4395703077316284
1772788600581111000,17.809111083984376,9.949021339416504,0.6910955309867859,-0.4156155288219452
1772788600601210400,17.82921044921875,9.949021339416504,0.7006774544715881,-0.4156155288219452
1772788600621309700,17.849309814453125,9.944230079650879,0.6719317436218262,-0.42998838424682617
1772788600641409000,17.869408935546875,9.967586517333984,0.7054684162139893,-0.4347793459892273
1772788600661508400,17.88950830078125,9.967586517333984,0.7054684162139893,-0.4395703077316284
1772788600681607200,17.909607177734376,9.958003997802734,0.6910955309867859,-0.42998838424682617
1772788600701705500,17.92970556640625,9.953812599182129,0.695886492729187,-0.4245985746383667
1772788600721804000,17.949803955078124,9.949021339416504,0.7102593779563904,-0.4245985746383667
1772788600741902600,17.969902587890626,9.953812599182129,0.7054684162139893,-0.4198076128959656
1772788600762001000,17.9900009765625,9.968185424804688,0.6910955309867859,-0.4245985746383667
1772788600782099500,18.010099365234375,9.953812599182129,0.7048695683479309,-0.4293895363807678
1772788600802198000,18.030197998046877,9.953812599182129,0.7048695683479309,-0.4293895363807678
1772788600822296300,18.05029638671875,9.963394165039062,0.7048695683479309,-0.4198076128959656
1772788600842395000,18.070394775390625,9.949021339416504,0.7048695683479309,-0.42399969696998596
1772788600862493400,18.090493408203123,9.949021339416504,0.7048695683479309,-0.4287906587123871
1772788600882591700,18.110591796875,9.968185424804688,0.6904966831207275,-0.4287906587123871
1772788600922788900,18.150788818359374,9.92985725402832,0.6910955309867859,-0.42519745230674744
1772788600942887200,18.17088720703125,9.953213691711426,0.7054684162139893,-0.42998838424682617
1772788600962985700,18.19098583984375,9.958003997802734,0.7054684162139893,-0.42519745230674744
1772788600983084300,18.211084228515624,9.944230079650879,0.6815136671066284,-0.4204064905643463
1772788601003182800,18.231182861328126,9.958003997802734,0.7054684162139893,-0.42998838424682617
1772788601023281200,18.25128125,9.944230079650879,0.6910955309867859,-0.4539431929588318
1772788601043379700,18.271379638671874,9.944230079650879,0.6910955309867859,-0.4305872619152069
1772788601063478300,18.291478271484376,9.944230079650879,0.6863046288490295,-0.4114234447479248
1772788601103675100,18.331675048828124,9.953812599182129,0.7006774544715881,-0.4293895363807678
1772788601123773700,18.351773681640626,9.949021339416504,0.7006774544715881,-0.4245985746383667
1772788601143872000,18.3718720703125,9.963394165039062,0.695886492729187,-0.4198076128959656
1772788601163970600,18.391970458984375,9.958602905273438,0.6910955309867859,-0.4293895363807678
1772788601204166100,18.432166259765626,9.963394165039062,0.7150503396987915,-0.4245985746383667
1772788601224264000,18.452263916015625,9.949021339416504,0.7054684162139893,-0.41501665115356445
1772788601244361500,18.472361572265626,9.934648513793945,0.6910955309867859,-0.4198076128959656
1772788601264459300,18.492459228515624,9.953812599182129,0.695886492729187,-0.4245985746383667
1772788601284557000,18.51255712890625,9.953812599182129,0.6910955309867859,-0.43418049812316895
1772788601304654800,18.53265478515625,9.963394165039062,0.7054684162139893,-0.4245985746383667
1772788601324752400,18.55275244140625,9.967586517333984,0.6863046288490295,-0.4245985746383667
1772788601344850200,18.57285009765625,9.949021339416504,0.7102593779563904,-0.4389714300632477
1772788601364948000,18.592947998046874,9.944230079650879,0.7144514918327332,-0.4198076128959656
1772788601385045800,18.613045654296876,9.953812599182129,0.709660530090332,-0.4245985746383667
1772788601405143600,18.6331435546875,9.949021339416504,0.6863046288490295,-0.4245985746383667
1772788601425241000,18.653240966796876,9.953812599182129,0.6863046288490295,-0.4198076128959656
1772788601445339000,18.6733388671875,9.963394165039062,0.7240334153175354,-0.4245985746383667
1772788601465436700,18.693436767578124,9.963394165039062,0.709660530090332,-0.43418049812316895
1772788601485534500,18.713534423828126,9.934648513793945,0.6910955309867859,-0.43418049812316895
1772788601505632000,18.733632080078124,9.944230079650879,0.709660530090332,-0.4245985746383667
1772788601525729800,18.753729736328125,9.93943977355957,0.7006774544715881,-0.41501665115356445
1772788601545827600,18.77382763671875,9.944230079650879,0.6910955309867859,-0.4389714300632477
1772788601565925400,18.79392529296875,9.944230079650879,0.7048695683479309,-0.4198076128959656
1772788601606120700,18.83412060546875,9.949021339416504,0.6910955309867859,-0.4245985746383667
1772788601626218500,18.854218505859375,9.944230079650879,0.7000786066055298,-0.4293895363807678
1772788601646316300,18.87431640625,9.953812599182129,0.6952876448631287,-0.4198076128959656
1772788601666414000,18.8944140625,9.972376823425293,0.6904966831207275,-0.4245985746383667
1772788601686513700,18.914513671875,9.963394165039062,0.7000786066055298,-0.4245985746383667
1772788601706613200,18.93461328125,9.944230079650879,0.7102593779563904,-0.4293895363807678
1772788601726712800,18.954712890625,9.953812599182129,0.6863046288490295,-0.45334431529045105
1772788601746812700,18.974812744140625,9.944230079650879,0.6910955309867859,-0.4395703077316284
1772788601766912300,18.994912353515623,9.949021339416504,0.695886492729187,-0.42519745230674744
1772788601787011800,19.01501171875,9.953812599182129,0.695886492729187,-0.42519745230674744
1772788601807111400,19.035111328125,9.949021339416504,0.6815136671066284,-0.42519745230674744
1772788601827211000,19.0552109375,9.972376823425293,0.695886492729187,-0.42519745230674744
1772788601847310600,19.075310546875,9.972376823425293,0.6910955309867859,-0.42519745230674744
1772788601867410200,19.09541015625,9.958003997802734,0.7198413014411926,-0.42519745230674744
1772788601907609300,19.135609375,9.949021339416504,0.7006774544715881,-0.43418049812316895
1772788601927709000,19.155708984375,9.958602905273438,0.7150503396987915,-0.4245985746383667
1772788601947808800,19.175808837890624,9.963394165039062,0.7006774544715881,-0.4437623918056488
1772788601988008000,19.216008056640625,9.949021339416504,0.6910955309867859,-0.43418049812316895
1772788602028207000,19.25620703125,9.963394165039062,0.695886492729187,-0.4198076128959656
1772788602048306700,19.276306640625,9.958602905273438,0.7006774544715881,-0.4293895363807678
1772788602088505900,19.316505859375,9.963394165039062,0.7054684162139893,-0.4245985746383667
1772788602108605400,19.33660546875,9.944230079650879,0.7144514918327332,-0.43837258219718933
1772788602128705300,19.356705322265626,9.92087459564209,0.7144514918327332,-0.42399969696998596
1772788602148804900,19.376804931640624,9.963394165039062,0.7144514918327332,-0.4335816204547882
1772788602168904400,19.396904541015626,9.972975730895996,0.6952876448631287,-0.4335816204547882
1772788602189004000,19.417004150390625,9.958602905273438,0.7048695683479309,-0.42399969696998596
1772788602209103600,19.437103515625,9.940038681030273,0.7144514918327332,-0.4144177734851837
1772788602229203000,19.457202880859374,9.958602905273438,0.7000786066055298,-0.42399969696998596
1772788602249302500,19.477302490234376,9.968185424804688,0.6952876448631287,-0.41920873522758484
1772788602269402000,19.497402099609374,9.958602905273438,0.7048695683479309,-0.42819178104400635
1772788602289501700,19.517501708984376,9.949021339416504,0.7000786066055298,-0.4377737045288086
1772788602309601300,19.537601318359375,9.93943977355957,0.6952876448631287,-0.43837258219718933
1772788602349800400,19.577800537109376,9.949021339416504,0.709660530090332,-0.4245985746383667
1772788602389999600,19.61799951171875,9.953812599182129,0.6719317436218262,-0.4198076128959656
1772788602410099200,19.63809912109375,9.949021339416504,0.6719317436218262,-0.4198076128959656
1772788602430198800,19.65819873046875,9.93943977355957,0.7048695683479309,-0.43418049812316895
1772788602450298400,19.67829833984375,9.93943977355957,0.7048695683479309,-0.4293895363807678
1772788602470398000,19.69839794921875,9.934648513793945,0.7048695683479309,-0.43418049812316895
1772788602490497500,19.71849755859375,9.92985725402832,0.6815136671066284,-0.4293895363807678
1772788602510596900,19.738596923828126,9.949021339416504,0.709660530090332,-0.42399969696998596
1772788602530696400,19.758696533203125,9.949021339416504,0.6952876448631287,-0.409626841545105
1772788602550796000,19.778796142578123,9.93943977355957,0.7000786066055298,-0.42399969696998596
1772788602570895600,19.7988955078125,9.93943977355957,0.7000786066055298,-0.4287906587123871
1772788602590995200,19.8189951171875,9.949021339416504,0.6952876448631287,-0.4287906587123871
1772788602631194400,19.8591943359375,9.935247421264648,0.7000786066055298,-0.42399969696998596
1772788602651294000,19.8792939453125,9.925664901733398,0.6952876448631287,-0.43837258219718933
1772788602671393500,19.8993935546875,9.935247421264648,0.7048695683479309,-0.41920873522758484
1772788602691492600,19.91949267578125,9.944230079650879,0.7000786066055298,-0.409626841545105
1772788602711592000,19.939592041015626,9.977766990661621,0.709660530090332,-0.409626841545105
1772788602731691000,19.95969091796875,9.958602905273438,0.7000786066055298,-0.42399969696998596
1772788602751790300,19.979790283203126,9.940038681030273,0.7048695683479309,-0.44316354393959045
1772788602771889400,19.999889404296876,9.949021339416504,0.7000786066055298,-0.4335816204547882
1772788602791988700,20.01998876953125,9.972975730895996,0.7000786066055298,-0.4287906587123871
1772788602812088000,20.040088134765625,9.968185424804688,0.7048695683479309,-0.43837258219718933
1772788602852286500,20.080286376953126,9.935247421264648,0.7000786066055298,-0.4287906587123871
1772788602872385500,20.100385498046876,9.944230079650879,0.7000786066055298,-0.41920873522758484
1772788602892484900,20.12048486328125,9.940038681030273,0.7000786066055298,-0.4287906587123871
1772788602912584000,20.140583984375,9.93943977355957,0.6904966831207275,-0.42399969696998596
1772788602932683300,20.160683349609375,9.934648513793945,0.6904966831207275,-0.41920873522758484
1772788602952782600,20.180782470703125,9.934648513793945,0.6857057213783264,-0.4287906587123871
1772788602972881700,20.200881591796875,9.949021339416504,0.6857057213783264,-0.4335816204547882
1772788602992981000,20.22098095703125,9.934648513793945,0.6952876448631287,-0.4287906587123871
1772788603013080300,20.241080322265624,9.958602905273438,0.6857057213783264,-0.42399969696998596
1772788603053278700,20.28127880859375,9.93943977355957,0.6904966831207275,-0.4527454376220703
1772788603093477000,20.32147705078125,9.93943977355957,0.7048695683479309,-0.4198076128959656
1772788603113576200,20.341576171875,9.963394165039062,0.6994797587394714,-0.42819178104400635
1772788603133675500,20.361675537109374,9.940038681030273,0.6898978352546692,-0.4377737045288086
1772788603153774800,20.38177490234375,9.958602905273438,0.7090616226196289,-0.4234008193016052
1772788603173873700,20.401873779296874,9.954411506652832,0.7042707204818726,-0.427592933177948
1772788603193972700,20.42197265625,9.95920181274414,0.6898978352546692,-0.4228019714355469
1772788603214071600,20.442071533203126,9.930456161499023,0.7042707204818726,-0.427592933177948
1772788603234170600,20.462170654296877,9.944828987121582,0.6994797587394714,-0.427592933177948
1772788603254269400,20.48226953125,9.949620246887207,0.6946887969970703,-0.427592933177948
1772788603274368500,20.502368408203125,9.95920181274414,0.7186435461044312,-0.4515477120876312
1772788603294467300,20.52246728515625,9.954411506652832,0.7186435461044312,-0.4515477120876312
1772788603314566400,20.54256640625,9.953812599182129,0.6904966831207275,-0.42819178104400635
1772788603334665200,20.562665283203124,9.944230079650879,0.6952876448631287,-0.43837258219718933
1772788603374863000,20.602863037109376,9.949021339416504,0.6952876448631287,-0.4287906587123871
1772788603394962000,20.6229619140625,9.935247421264648,0.6904966831207275,-0.4335816204547882
1772788603415061000,20.64306103515625,9.949021339416504,0.709660530090332,-0.42399969696998596
1772788603435159800,20.663159912109375,9.953812599182129,0.6809147596359253,-0.4287906587123871
1772788603455259000,20.6832587890625,9.935247421264648,0.7000786066055298,-0.4335816204547882
1772788603475357700,20.703357666015624,9.93943977355957,0.6809147596359253,-0.4287906587123871
1772788603495456800,20.723456787109374,9.953812599182129,0.709660530090332,-0.40483587980270386
1772788603515555600,20.7435556640625,9.930456161499023,0.7000786066055298,-0.409626841545105
1772788603535654700,20.763654541015626,9.925664901733398,0.7000786066055298,-0.42399969696998596
1772788603575852500,20.8038525390625,9.949021339416504,0.7000786066055298,-0.4335816204547882
1772788603595951400,20.823951416015625,9.930456161499023,0.7048695683479309,-0.4335816204547882
1772788603616050200,20.84405029296875,9.953812599182129,0.7048695683479309,-0.41920873522758484
1772788603636149200,20.864149169921873,9.963394165039062,0.709660530090332,-0.4245985746383667
1772788603656248000,20.884248046875,9.934648513793945,0.6952876448631287,-0.4245985746383667
1772788603676347000,20.904346923828125,9.944230079650879,0.6904966831207275,-0.4293895363807678
1772788603696445700,20.92444580078125,9.949021339416504,0.6904966831207275,-0.4335816204547882
1772788603716544500,20.94454443359375,9.93943977355957,0.7000786066055298,-0.4287906587123871
1772788603736643000,20.96464306640625,9.93943977355957,0.7000786066055298,-0.4335816204547882
1772788603756742000,20.984741943359374,9.944230079650879,0.7048695683479309,-0.4293895363807678
1772788603776840700,21.0048408203125,9.953812599182129,0.6952876448631287,-0.4245985746383667
1772788603796939300,21.024939208984375,9.944230079650879,0.7000786066055298,-0.4245985746383667
1772788603817038000,21.0450380859375,9.93943977355957,0.7144514918327332,-0.43418049812316895
1772788603857235700,21.085235595703125,9.958602905273438,0.709660530090332,-0.43418049812316895
1772788603877334300,21.105334228515623,9.958602905273438,0.7048695683479309,-0.43418049812316895
1772788603897433000,21.12543310546875,9.953812599182129,0.6761237978935242,-0.4287906587123871
1772788603917532000,21.145531982421875,9.958602905273438,0.6952876448631287,-0.4234008193016052
1772788603957729300,21.185729248046876,9.940038681030273,0.7000786066055298,-0.41381892561912537
1772788603977828000,21.205828125,9.953812599182129,0.6952876448631287,-0.4377737045288086
1772788603997926700,21.2259267578125,9.949620246887207,0.6952876448631287,-0.42819178104400635
1772788604018025500,21.246025390625,9.953812599182129,0.7090616226196289,-0.4234008193016052
1772788604058223000,21.28622314453125,9.958602905273438,0.6946887969970703,-0.40902796387672424
1772788604078321700,21.30632177734375,9.944828987121582,0.7042707204818726,-0.4377737045288086
1772788604098420500,21.32642041015625,9.958602905273438,0.7042707204818726,-0.4425646662712097
1772788604118519300,21.346519287109373,9.958602905273438,0.6946887969970703,-0.41381892561912537
1772788604158716700,21.386716552734374,9.92087459564209,0.6946887969970703,-0.44735562801361084
1772788604178815000,21.40681494140625,9.954411506652832,0.6898978352546692,-0.43298274278640747
1772788604198913000,21.4269130859375,9.954411506652832,0.7042707204818726,-0.4234008193016052
1772788604219011000,21.447010986328124,9.944828987121582,0.71385258436203,-0.4234008193016052
1772788604239109000,21.467109130859374,9.944828987121582,0.6946887969970703,-0.43717482686042786
1772788604259207200,21.487207275390624,9.954411506652832,0.7090616226196289,-0.41322004795074463
1772788604279305200,21.50730517578125,9.963394165039062,0.6994797587394714,-0.427592933177948
1772788604299403300,21.5274033203125,9.949021339416504,0.7000786066055298,-0.4287906587123871
1772788604339599400,21.567599365234376,9.949021339416504,0.7000786066055298,-0.4287906587123871
1772788604359697700,21.58769775390625,9.944230079650879,0.7000786066055298,-0.44316354393959045
1772788604379795700,21.607795654296876,9.949021339416504,0.6952876448631287,-0.42399969696998596
1772788604399893800,21.627893798828126,9.934648513793945,0.6904966831207275,-0.4335816204547882
1772788604419991800,21.64799169921875,9.958602905273438,0.6952876448631287,-0.4335816204547882
1772788604440089900,21.66808984375,9.944230079650879,0.6857057213783264,-0.42399969696998596
1772788604460188000,21.68818798828125,9.953812599182129,0.6904966831207275,-0.41501665115356445
1772788604480286000,21.708285888671874,9.944230079650879,0.6952876448631287,-0.4198076128959656
1772788604500384000,21.728384033203124,9.958602905273438,0.7186435461044312,-0.4234008193016052
1772788604520482000,21.74848193359375,9.930456161499023,0.7000786066055298,-0.42819178104400635
1772788604540580000,21.768580078125,9.935247421264648,0.6952876448631287,-0.4186098873615265
1772788604560678100,21.78867822265625,9.949620246887207,0.6809147596359253,-0.4186098873615265
1772788604580776200,21.808776123046876,9.968185424804688,0.6946887969970703,-0.4377737045288086
1772788604600874200,21.828874267578126,9.949620246887207,0.6946887969970703,-0.4234008193016052
1772788604620972500,21.84897265625,9.940038681030273,0.6851068735122681,-0.41381892561912537
1772788604661168600,21.889168701171876,9.958602905273438,0.6946887969970703,-0.427592933177948
1772788604681267700,21.909267822265626,9.95920181274414,0.7042707204818726,-0.41322004795074463
1772788604701367000,21.929366943359376,9.949620246887207,0.7186435461044312,-0.4234008193016052
1772788604721466600,21.949466552734375,9.949620246887207,0.6946887969970703,-0.42819178104400635
1772788604741566000,21.96956591796875,9.949620246887207,0.6851068735122681,-0.42819178104400635
1772788604761665300,21.989665283203124,9.963394165039062,0.7042707204818726,-0.441965788602829
1772788604781764900,22.009764892578126,9.954411506652832,0.6994797587394714,-0.43238386511802673
1772788604801864200,22.0298642578125,9.944828987121582,0.6946887969970703,-0.41801100969314575
1772788604821963500,22.049963623046875,9.95920181274414,0.7042707204818726,-0.43238386511802673
1772788604862162400,22.090162353515623,9.968185424804688,0.71385258436203,-0.4228019714355469
1772788604882262000,22.110261962890625,9.95920181274414,0.6994797587394714,-0.41801100969314575
1772788604902361300,22.130361328125,9.949620246887207,0.6898978352546692,-0.4228019714355469
1772788604922460700,22.150460693359374,9.954411506652832,0.6994797587394714,-0.4228019714355469
1772788604962659600,22.19065966796875,9.954411506652832,0.7186435461044312,-0.427592933177948
1772788604982759000,22.210759033203125,9.944828987121582,0.7090616226196289,-0.41322004795074463
1772788605002858500,22.2308583984375,9.944828987121582,0.7090616226196289,-0.43238386511802673
1772788605022957800,22.250957763671874,9.968185424804688,0.7042707204818726,-0.441965788602829
1772788605043057200,22.27105712890625,9.963993072509766,0.6898978352546692,-0.441965788602829
1772788605063156700,22.29115673828125,9.95920181274414,0.6994797587394714,-0.427592933177948
1772788605083256000,22.311256103515625,9.944828987121582,0.7090616226196289,-0.43238386511802673
1772788605103355600,22.331355712890623,9.949620246887207,0.7042707204818726,-0.4186098873615265
1772788605123455000,22.351455078125,9.958602905273438,0.6994797587394714,-0.43298274278640747
1772788605143554300,22.37155419921875,9.949620246887207,0.6898978352546692,-0.4234008193016052
1772788605163654000,22.39165380859375,9.963394165039062,0.6994797587394714,-0.4234008193016052
1772788605183752400,22.41175244140625,9.958602905273438,0.6994797587394714,-0.41381892561912537
1772788605203851300,22.431851318359374,9.949620246887207,0.6946887969970703,-0.42819178104400635
1772788605223949800,22.45194970703125,9.954411506652832,0.7042707204818726,-0.4377737045288086
1772788605244048400,22.47204833984375,9.958602905273438,0.6851068735122681,-0.42819178104400635
1772788605264147200,22.492147216796877,9.958602905273438,0.6898978352546692,-0.42819178104400635
1772788605284245800,22.512245849609375,9.963394165039062,0.6904966831207275,-0.42819178104400635
1772788605304344300,22.53234423828125,9.949620246887207,0.6952876448631287,-0.43298274278640747
1772788605324443100,22.552443115234375,9.944828987121582,0.7000786066055298,-0.43298274278640747
1772788605344541700,22.572541748046874,9.940038681030273,0.7090616226196289,-0.42819178104400635
1772788605364640300,22.59264013671875,9.940038681030273,0.6904966831207275,-0.43298274278640747
1772788605384739000,22.612739013671874,9.958602905273438,0.6904966831207275,-0.4234008193016052
1772788605404837600,22.632837646484376,9.949620246887207,0.7000786066055298,-0.4234008193016052
1772788605424936400,22.6529365234375,9.944828987121582,0.6904966831207275,-0.4186098873615265
1772788605445035000,22.673034912109376,9.972975730895996,0.709660530090332,-0.42819178104400635
1772788605465133600,22.693133544921874,9.963394165039062,0.6857057213783264,-0.4377737045288086
1772788605485232400,22.713232421875,9.972975730895996,0.6952876448631287,-0.4425646662712097
1772788605505331000,22.7333310546875,9.944828987121582,0.6946887969970703,-0.43238386511802673
1772788605545528300,22.7735283203125,9.954411506652832,0.6755249500274658,-0.41801100969314575
1772788605565627000,22.793626953125,9.944828987121582,0.6898978352546692,-0.427592933177948
1772788605585725400,22.813725341796875,9.963993072509766,0.7042707204818726,-0.4228019714355469
1772788605605824300,22.83382421875,9.949620246887207,0.7042707204818726,-0.41322004795074463
1772788605646021400,22.874021484375,9.944828987121582,0.6898978352546692,-0.427592933177948
1772788605666120200,22.8941201171875,9.954411506652832,0.6994797587394714,-0.4317850172519684
1772788605686219800,22.9142197265625,9.944828987121582,0.6994797587394714,-0.42220309376716614
1772788605706319400,22.9343193359375,9.95920181274414,0.6898978352546692,-0.41801100969314575
1772788605726419000,22.9544189453125,9.963394165039062,0.6994797587394714,-0.4228019714355469
1772788605746518500,22.9745185546875,9.963394165039062,0.6994797587394714,-0.4228019714355469
1772788605766618000,22.9946181640625,9.949620246887207,0.6898978352546692,-0.43717482686042786
1772788605786717700,23.0147177734375,9.949620246887207,0.6946887969970703,-0.43298274278640747
1772788605806817300,23.0348173828125,9.944828987121582,0.6994797587394714,-0.41381892561912537
1772788605826916600,23.05491650390625,9.958602905273438,0.7042707204818726,-0.41381892561912537
1772788605847016200,23.07501611328125,9.949620246887207,0.6898978352546692,-0.4186098873615265
1772788605867115800,23.09511572265625,9.954411506652832,0.7090616226196289,-0.43298274278640747
1772788605887215400,23.11521533203125,9.958602905273438,0.6851068735122681,-0.42819178104400635
1772788605907315000,23.13531494140625,9.954411506652832,0.6898978352546692,-0.4228019714355469
1772788605927414500,23.15541455078125,9.954411506652832,0.6659430265426636,-0.4228019714355469
1772788605947514000,23.17551416015625,9.944828987121582,0.6803159117698669,-0.4084290862083435
1772788605967613700,23.19561376953125,9.940038681030273,0.6707339882850647,-0.39884716272354126
1772788605987713300,23.21571337890625,9.954411506652832,0.6611520648002625,-0.43717482686042786
1772788606027912400,23.255912353515626,9.907100677490234,0.613242506980896,-0.3269828259944916
1772788606048012000,23.276011962890625,9.99213981628418,0.6324063539505005,-0.4892764985561371
1772788606068111600,23.296111572265627,9.96878433227539,0.756372332572937,-0.5228132009506226
1772788606108310800,23.336310791015624,9.977766990661621,0.7330164313316345,-0.4084290862083435
1772788606128410400,23.356410400390626,9.935247421264648,0.7282254695892334,-0.47550249099731445
1772788606148510000,23.376510009765624,9.930456161499023,0.8090728521347046,-0.45633867383003235
1772788606168609500,23.396609619140627,9.954411506652832,0.8665643334388733,-0.4611296057701111
1772788606208807400,23.436807373046875,9.944828987121582,0.71385258436203,-0.4515477120876312
1772788606228906500,23.456906494140625,9.907100677490234,0.7761350274085999,-0.3940562307834625
1772788606249005600,23.477005615234376,9.850207328796387,0.7042707204818726,-0.3940562307834625
1772788606289203700,23.51720361328125,9.892727851867676,0.81925368309021,-0.3461466431617737
1772788606329401900,23.55740185546875,9.874162673950195,0.7378073930740356,-0.3365647494792938
1772788606349501000,23.5775009765625,9.840625762939453,0.752180278301239,-0.3461466431617737
1772788606369600000,23.59760009765625,9.90230941772461,0.7755361795425415,-0.4749036133289337
1772788606389698800,23.61769873046875,9.977766990661621,0.7899090647697449,-0.541977047920227
1772788606409798000,23.6377978515625,9.90230941772461,0.823445737361908,-0.5132312774658203
1772788606429897000,23.65789697265625,9.87895393371582,0.7707452178001404,-0.4749036133289337
1772788606449996000,23.67799609375,9.836433410644531,0.6994797587394714,-0.4509488344192505
1772788606470095000,23.69809521484375,9.926263809204102,0.6946887969970703,-0.4701126515865326
1772788606490194200,23.718194091796875,9.826851844787598,0.6946887969970703,-0.3653104901313782
1772788606510293200,23.738293212890625,9.836433410644531,0.6898978352546692,-0.39884716272354126
1772788606530392300,23.758392333984375,10.034659385681152,0.6803159117698669,-0.63779616355896
1772788606550491100,23.7784912109375,10.044241905212402,0.7042707204818726,-0.6707339882850647
1772788606570590200,23.798590087890624,9.704083442687988,0.7282254695892334,-0.42699405550956726
1772788606590689300,23.818689208984374,9.642399787902832,0.8330276608467102,-0.6138413548469543
1772788606610788400,23.838788330078124,10.228693008422852,0.7419995069503784,-1.0390387773513794
1772788606630887400,23.858887451171874,10.29456901550293,0.7090616226196289,-1.2923606634140015
1772788606650986500,23.878986572265624,11.022794723510742,0.6611520648002625,-1.7319309711456299
1772788606671085600,23.89908544921875,10.29456901550293,0.6084515452384949,-1.3354792594909668
1772788606691184400,23.919184326171877,10.029869079589844,0.32219186425209045,-1.0055021047592163
1772788606711283000,23.939282958984375,10.663473129272461,0.016768349334597588,-0.9965190887451172
1772788606731382000,23.959382080078125,9.972975730895996,0.4036381244659424,-0.7144514918327332
1772788606751480800,23.979480712890624,9.982558250427246,0.36051952838897705,-0.47071152925491333
1772788606771579400,23.999579345703125,10.029869079589844,0.08324287831783295,-0.2652992606163025
1772788606791678500,24.019678466796876,9.90230941772461,0.14073435962200165,-0.05030504986643791
1772788606811777300,24.03977734375,9.949620246887207,0.3701014220714569,-0.13594341278076172
1772788606831876000,24.0598759765625,9.883145332336426,0.3557285666465759,-0.23176254332065582
1772788606851975000,24.079974853515626,10.01070499420166,0.246135413646698,-0.20301680266857147
1772788606872073700,24.10007373046875,9.83104419708252,0.3892652690410614,0.021559307351708412
1772788606892172500,24.120172607421875,9.750795364379883,0.37968334555625916,0.021559307351708412
1772788606912271400,24.140271240234377,9.968185424804688,0.274282306432724,-0.002395478542894125
1772788606932370200,24.1603701171875,9.755586624145508,0.2982370853424072,0.11258748918771744
1772788606952469000,24.180468994140625,9.850207328796387,0.28386420011520386,0.2269715964794159
1772788606972567800,24.20056787109375,9.916083335876465,0.26050829887390137,0.27967211604118347
1772788606992666600,24.22066650390625,9.949620246887207,0.2269715964794159,0.246135413646698
1772788607012765400,24.240765380859376,9.940038681030273,0.27967211604118347,0.23176254332065582
1772788607032864300,24.2608642578125,9.845417022705078,0.30302804708480835,0.29404500126838684
1772788607052963000,24.280963134765624,9.935247421264648,0.2844630777835846,0.23176254332065582
1772788607093160700,24.32116064453125,9.987348556518555,0.3461466431617737,0.1311524510383606
1772788607113259500,24.341259521484375,9.930456161499023,0.34135568141937256,0.15091514587402344
1772788607133358300,24.3613583984375,9.972975730895996,0.2982370853424072,0.15091514587402344
1772788607153457200,24.38145703125,9.982558250427246,0.2934461236000061,0.2036156803369522
1772788607173555700,24.4015556640625,9.944828987121582,0.27907323837280273,0.23655350506305695
1772788607193654300,24.421654296875,10.025077819824219,0.2551184594631195,0.27488115429878235
1772788607213752800,24.4417529296875,10.053224563598633,0.23655350506305695,0.2700901925563812
1772788607233851400,24.461851318359376,9.864581108093262,0.30302804708480835,0.2652992606163025
1772788607253950000,24.481949951171874,10.039450645446777,0.288655161857605,0.2036156803369522
1772788607274048300,24.50204833984375,10.072388648986816,0.288655161857605,0.15570610761642456
1772788607294146800,24.522146728515626,9.972975730895996,0.3269828259944916,0.14612418413162231
1772788607314245400,24.542245361328124,10.096343040466309,0.3215929865837097,0.15151402354240417
1772788607334344000,24.562343994140626,9.90230941772461,0.2976382076740265,0.22337837517261505
1772788607354442500,24.5824423828125,10.016094207763672,0.2694913446903229,0.23775124549865723
1772788607374540800,24.602540771484374,10.068196296691895,0.2551184594631195,0.22816933691501617
1772788607394639400,24.622639404296876,10.091551780700684,0.25451958179473877,0.2521241307258606
1772788607414738000,24.642738037109375,9.85080623626709,0.2832653522491455,0.3048246502876282
1772788607434836500,24.66283642578125,10.124489784240723,0.264101505279541,0.2239772379398346
1772788607454935000,24.68293505859375,9.987947463989258,0.2976382076740265,0.23835010826587677
1772788607495132000,24.7231318359375,10.006512641906738,0.2832653522491455,0.2048134207725525
1772788607515230500,24.74323046875,10.134072303771973,0.24553655087947845,0.16049706935882568
1772788607535329000,24.7633291015625,9.968185424804688,0.31740090250968933,0.24134446680545807
1772788607575526000,24.80352587890625,10.067597389221191,0.2551184594631195,0.23655350506305695
1772788607615723000,24.843722900390624,10.001721382141113,0.27907323837280273,0.2509263753890991
1772788607635821600,24.863821533203126,10.029869079589844,0.27967211604118347,0.22218063473701477
1772788607655920000,24.883920166015624,10.025077819824219,0.2700901925563812,0.24134446680545807
1772788607676018700,24.904018798828126,10.062806129455566,0.2844630777835846,0.22218063473701477
1772788607696117800,24.92411767578125,10.351461410522461,0.2167908102273941,0.14193210005760193
1772788607716216800,24.944216796875,9.505258560180664,0.3551296889781952,0.3521353602409363
1772788607736315600,24.964315673828125,10.219111442565918,0.26470038294792175,0.2036156803369522
1772788607776513800,25.004513671875,10.077178955078125,0.25990942120552063,0.26589810848236084
1772788607796612900,25.02461279296875,9.99213981628418,0.26470038294792175,0.2754800319671631
1772788607816711700,25.044711669921874,10.044241905212402,0.25990942120552063,0.26589810848236084
1772788607836810800,25.064810791015624,10.238275527954102,0.2167908102273941,0.1754688024520874
1772788607856909800,25.084909912109374,9.727439880371094,0.35033872723579407,0.3138076961040497
1772788607877008600,25.105008544921876,10.06340503692627,0.25990942120552063,0.24733315408229828
1772788607897107700,25.125107666015627,9.982558250427246,0.28386420011520386,0.26589810848236084
1772788607917206800,25.145206787109377,10.08197021484375,0.2694913446903229,0.2419433295726776
1772788607937305600,25.1653056640625,9.987348556518555,0.2694913446903229,0.27068907022476196
1772788607957404700,25.18540478515625,10.049032211303711,0.274282306432724,0.2700901925563812
1772788607977503700,25.205503662109376,9.996931076049805,0.2694913446903229,0.27967211604118347
1772788607997602800,25.225602783203126,10.029869079589844,0.2503274977207184,0.2892540395259857
1772788608017701600,25.24570166015625,10.034659385681152,0.24074558913707733,0.27488115429878235
1772788608057899800,25.285899658203125,9.642399787902832,0.30302804708480835,0.3659093379974365
1772788608098097700,25.32609765625,9.982558250427246,0.2694913446903229,0.28506195545196533
1772788608118196700,25.34619677734375,10.044241905212402,0.2503274977207184,0.27068907022476196
1772788608138295600,25.366295654296874,10.016094207763672,0.26470038294792175,0.28985291719436646
1772788608158394600,25.38639453125,10.006512641906738,0.2694913446903229,0.2904517650604248
1772788608178493700,25.40649365234375,10.016094207763672,0.2503274977207184,0.2760789096355438
1772788608198592500,25.426592529296876,10.020885467529297,0.27907323837280273,0.2664969861507416
1772788608218691600,25.446691650390626,10.029869079589844,0.26470038294792175,0.28086987137794495
1772788608238790700,25.466790771484376,10.006512641906738,0.24553655087947845,0.2904517650604248
1772788608258889500,25.486889404296875,10.016094207763672,0.2551184594631195,0.28086987137794495
1772788608278988500,25.506988525390625,10.020885467529297,0.26889246702194214,0.2904517650604248
1772788608299087600,25.527087646484375,10.034659385681152,0.2503274977207184,0.28086987137794495
1772788608319186400,25.5471865234375,10.101134300231934,0.19283601641654968,0.2521241307258606
1772788608339285500,25.567285400390624,10.101134300231934,0.2784743905067444,0.2856608033180237
1772788608359384600,25.587384521484374,9.78912353515625,0.2976382076740265,0.3623161315917969
1772788608379483400,25.6074833984375,10.129281044006348,0.24972863495349884,0.2760789096355438
1772788608399582500,25.62758251953125,10.006512641906738,0.2449376881122589,0.31440654397010803
1772788608419681500,25.647681640625,9.987947463989258,0.2401467263698578,0.3048246502876282
1772788608459879400,25.68787939453125,9.992738723754883,0.25451958179473877,0.3006325662136078
1772788608500077300,25.728077392578125,10.020286560058594,0.24074558913707733,0.2994348108768463
1772788608520176400,25.74817626953125,10.029869079589844,0.2551184594631195,0.2994348108768463
1772788608540275500,25.768275390625,10.025077819824219,0.24553655087947845,0.30901673436164856
1772788608580473300,25.808473388671874,10.029869079589844,0.24553655087947845,0.30422577261924744
1772788608600572400,25.828572509765625,10.025077819824219,0.2503274977207184,0.30901673436164856
1772788608620671500,25.84867138671875,10.011303901672363,0.25990942120552063,0.28985291719436646
1772788608640770300,25.868770263671873,10.001721382141113,0.24074558913707733,0.3036268949508667
1772788608660869400,25.888869384765623,10.020286560058594,0.24074558913707733,0.29883596301078796
1772788608680968400,25.908968505859374,10.034659385681152,0.2503274977207184,0.29883596301078796
1772788608701067500,25.929067626953124,10.001721382141113,0.24553655087947845,0.30003368854522705
1772788608721166300,25.949166259765626,10.029869079589844,0.24074558913707733,0.30003368854522705
1772788608741265400,25.969265380859376,10.346671104431152,0.19283601641654968,0.22337837517261505
1772788608761364500,25.989364501953126,9.59988021850586,0.38866639137268066,0.381479948759079
1772788608781463600,26.009463623046877,10.186173439025879,0.22637271881103516,0.28086987137794495
1772788608801562600,26.029562744140627,9.949620246887207,0.2593105435371399,0.3239884674549103
1772788608821661400,26.049661376953125,10.091551780700684,0.264101505279541,0.30003368854522705
1772788608841760500,26.069760498046875,9.99213981628418,0.24972863495349884,0.31440654397010803
1772788608861859600,26.089859619140626,10.049032211303711,0.2359546422958374,0.31440654397010803
1772788608881958700,26.109958740234376,10.016094207763672,0.2449376881122589,0.31919750571250916
1772788608902057500,26.130057373046874,10.006512641906738,0.2551184594631195,0.3048246502876282
1772788608922156500,26.150156494140624,10.06340503692627,0.2503274977207184,0.30003368854522705
1772788608942255600,26.170255615234375,10.034659385681152,0.26470038294792175,0.30901673436164856
1772788608962354700,26.190354736328125,10.006512641906738,0.2359546422958374,0.30422577261924744
1772788608982453800,26.210453857421875,10.011303901672363,0.2359546422958374,0.3138076961040497
1772788609002552600,26.230552490234373,10.006512641906738,0.24553655087947845,0.30422577261924744
1772788609022651600,26.250651611328124,10.011303901672363,0.2503274977207184,0.30901673436164856
1772788609042750700,26.270750732421874,10.020885467529297,0.2551184594631195,0.30901673436164856
1772788609062849800,26.290849853515624,10.020885467529297,0.24074558913707733,0.3138076961040497
1772788609082948900,26.310948974609374,10.016094207763672,0.23116368055343628,0.30901673436164856
1772788609103047700,26.331047607421876,10.016094207763672,0.23535576462745667,0.3239884674549103
1772788609123146800,26.351146728515626,10.016094207763672,0.2401467263698578,0.31919750571250916
1772788609143245800,26.371245849609377,10.016094207763672,0.23535576462745667,0.3054235279560089
1772788609163345000,26.391344970703123,10.020885467529297,0.2401467263698578,0.3197963833808899
1772788609183442700,26.411442626953125,10.006512641906738,0.23535576462745667,0.32937830686569214
1772788609203540500,26.43154052734375,10.020885467529297,0.23535576462745667,0.32937830686569214
1772788609223638000,26.451637939453125,10.035258293151855,0.2401467263698578,0.3054235279560089
1772788609243735800,26.47173583984375,10.172399520874023,0.18744619190692902,0.25751394033432007
1772788609263833600,26.49183349609375,9.978365898132324,0.30722013115882874,0.3581240475177765
1772788609283931400,26.511931396484375,9.902908325195312,0.2401467263698578,0.37249690294265747
1772788609304029000,26.53202880859375,10.030467987060547,0.23056480288505554,0.30003368854522705
1772788609324126700,26.552126708984375,10.091551780700684,0.22637271881103516,0.3048246502876282
1772788609364322000,26.592322021484375,10.039450645446777,0.24972863495349884,0.31440654397010803
1772788609384419800,26.612419921875,9.987947463989258,0.22637271881103516,0.3287794291973114
1772788609404517600,26.632517578125,10.035258293151855,0.2401467263698578,0.3287794291973114
1772788609424615400,26.652615478515624,10.025676727294922,0.2359546422958374,0.3239884674549103
1772788609444713000,26.672712890625,10.020885467529297,0.22637271881103516,0.3239884674549103
1772788609464810800,26.692810791015624,10.006512641906738,0.22637271881103516,0.3048246502876282
1772788609484908500,26.712908447265626,10.030467987060547,0.22637271881103516,0.31919750571250916
1772788609505006300,26.73300634765625,10.030467987060547,0.22637271881103516,0.3239884674549103
1772788609525103900,26.753103759765626,10.025676727294922,0.23116368055343628,0.3335703909397125
1772788609545201700,26.77320166015625,10.034659385681152,0.2167908102273941,0.31440654397010803
1772788609565299500,26.793299560546874,10.044241905212402,0.2359546422958374,0.3287794291973114
1772788609585397200,26.813397216796876,10.020885467529297,0.22158177196979523,0.3239884674549103
1772788609605494800,26.833494873046874,10.001721382141113,0.23116368055343628,0.3287794291973114
1772788609645690400,26.8736904296875,10.016094207763672,0.25451958179473877,0.31919750571250916
1772788609665788000,26.893787841796875,10.011303901672363,0.24553655087947845,0.3239884674549103
1772788609685885700,26.9138857421875,10.006512641906738,0.2167908102273941,0.3239884674549103
1772788609705983500,26.9339833984375,10.020885467529297,0.23535576462745667,0.324587345123291
1772788609746178800,26.9741787109375,10.016094207763672,0.2449376881122589,0.32937830686569214
1772788609766276600,26.994276611328125,10.016094207763672,0.23056480288505554,0.31500542163848877
1772788609786374400,27.01437451171875,10.006512641906738,0.23056480288505554,0.32937830686569214
1772788609806472200,27.03447216796875,10.020885467529297,0.2257738560438156,0.324587345123291
1772788609826569700,27.05456982421875,10.025676727294922,0.2209828943014145,0.3006325662136078
1772788609846667500,27.07466748046875,10.27600383758545,0.20661002397537231,0.29105064272880554
1772788609866765300,27.094765380859375,9.652581214904785,0.29284724593162537,0.39166074991226196
1772788609886863000,27.114863037109377,10.172399520874023,0.21619193255901337,0.29584160447120667
1772788609906961000,27.1349609375,9.987947463989258,0.23535576462745667,0.35273420810699463
1772788609927058400,27.155058349609376,10.044241905212402,0.24972863495349884,0.33836135268211365
1772788609947156200,27.17515625,10.04004955291748,0.2401467263698578,0.3239884674549103
1772788609967254000,27.19525390625,10.020885467529297,0.23056480288505554,0.3287794291973114
1772788609987351800,27.215351806640626,10.053823471069336,0.2401467263698578,0.3287794291973114
1772788610007449300,27.235449462890625,10.011303901672363,0.24972863495349884,0.3287794291973114
1772788610027547100,27.255547119140626,10.020885467529297,0.2449376881122589,0.3239884674549103
1772788610047645000,27.27564501953125,10.020885467529297,0.23535576462745667,0.31919750571250916
1772788610067742700,27.29574267578125,10.016094207763672,0.2449376881122589,0.3287794291973114
1772788610087840300,27.31584033203125,10.006512641906738,0.2257738560438156,0.3335703909397125
1772788610107938000,27.33593798828125,10.04004955291748,0.23535576462745667,0.34315231442451477
1772788610128035800,27.356035888671876,10.020885467529297,0.23535576462745667,0.3239884674549103
1772788610148133600,27.376133544921874,10.020885467529297,0.23535576462745667,0.3335703909397125
1772788610168231700,27.396231689453124,10.04004955291748,0.2257738560438156,0.33836135268211365
1772788610188331500,27.41633154296875,10.025676727294922,0.23056480288505554,0.3239884674549103
1772788610228531200,27.45653125,10.011303901672363,0.2209828943014145,0.34315231442451477
1772788610248631300,27.47663134765625,10.001721382141113,0.2209828943014145,0.35273420810699463
1772788610268731100,27.496731201171876,10.025676727294922,0.23056480288505554,0.3335703909397125
