time,seconds_elapsed,z,y,x
1772788676070444800,0.07644482421875,-0.40600448846817017,-0.17844824492931366,-0.09958445280790329
1772788676090476800,0.096476806640625,-0.4260112941265106,-0.276714563369751,-0.13472285866737366
1772788676110508800,0.1165087890625,-0.43936601281166077,-0.30414533615112305,-0.12493862211704254
1772788676130539800,0.136539794921875,-0.4337154030799866,-0.27184414863586426,-0.06473436951637268
1772788676150571800,0.15657177734375,-0.45060575008392334,-0.15436702966690063,-0.012815464287996292
1772788676170603800,0.176603759765625,-0.49315735697746277,-0.07929650694131851,0.009753143414855003
1772788676190635800,0.1966357421875,-0.5161371231079102,-0.034322336316108704,0.01830175146460533
1772788676210667800,0.216667724609375,-0.511411726474762,-0.06172633916139603,0.05159007012844086
1772788676230699800,0.23669970703125,-0.47771167755126953,-0.04880411550402641,-0.0014847794082015753
1772788676250730800,0.256730712890625,-0.425523042678833,-0.08004782348871231,-0.04319244995713234
1772788676270762800,0.2767626953125,-0.385253369808197,-0.18218731880187988,-0.0976719856262207
1772788676290794800,0.296794677734375,-0.357602596282959,-0.21507515013217926,-0.1680544912815094
1772788676310826800,0.31682666015625,-0.33328282833099365,-0.10059788078069687,-0.06342622637748718
1772788676330858800,0.336858642578125,-0.2886863052845001,-0.010403158143162727,0.05504263937473297
1772788676350890800,0.356890869140625,-0.2559616267681122,-0.002781723625957966,0.12405818700790405
1772788676370921700,0.376921630859375,-0.23823696374893188,0.07227916270494461,0.14889563620090485
1772788676390953700,0.39695361328125,-0.17186462879180908,0.0695689469575882,0.16467517614364624
1772788676410985700,0.41698583984375,-0.11885764449834824,0.03240114450454712,0.1856801062822342
1772788676431017700,0.437017822265625,-0.1015574187040329,0.08884456008672714,0.17368434369564056
1772788676451049700,0.4570498046875,-0.054191675037145615,0.16763995587825775,0.1489996761083603
1772788676471081700,0.477081787109375,-0.011921228840947151,0.08259274810552597,0.15502485632896423
1772788676491112700,0.49711279296875,0.005774634890258312,-0.0355670265853405,0.20529226958751678
1772788676511144700,0.517144775390625,0.02151673473417759,-0.07676220685243607,0.31587645411491394
1772788676531176700,0.5371767578125,0.056854408234357834,-0.0074043250642716885,0.39202696084976196
1772788676551208700,0.557208740234375,0.12093412131071091,-0.03210369870066643,0.360851913690567
1772788676571240700,0.57724072265625,0.13216812908649445,-0.08331053704023361,0.2719377875328064
1772788676591272700,0.597272705078125,0.08941075205802917,-0.1448507457971573,0.21428701281547546
1772788676611303700,0.6173037109375,0.04673934355378151,-0.16531521081924438,0.13939857482910156
1772788676631335700,0.637335693359375,0.00429517962038517,-0.187801793217659,0.10978852957487106
1772788676651367700,0.65736767578125,-0.03347510099411011,-0.006424814462661743,0.11113902181386948
1772788676671400000,0.67739990234375,-0.02487514354288578,0.150777205824852,0.08223937451839447
1772788676691431700,0.697431640625,0.0035423317458480597,0.09731071442365646,0.028636693954467773
1772788676711463700,0.717463623046875,0.03495952486991882,0.004368368536233902,0.011769594624638557
1772788676731494700,0.73749462890625,0.07272280007600784,0.029837507754564285,0.10910720378160477
1772788676751527000,0.75752685546875,0.09051045030355453,0.12113941460847855,0.23357944190502167
1772788676771558400,0.777558349609375,0.09285631775856018,0.0555102676153183,0.3101329207420349
1772788676791590700,0.797590576171875,0.11678479611873627,-0.05183311924338341,0.2721270024776459
1772788676811622700,0.81762255859375,0.12716443836688995,-0.1461024433374405,0.1247175857424736
1772788676831654700,0.837654541015625,0.1356160044670105,-0.18047448992729187,0.062179647386074066
1772788676851685600,0.857685546875,0.1297837495803833,-0.06334570050239563,0.15060214698314667
1772788676871717600,0.877717529296875,0.16499362885951996,-0.06667369604110718,0.18136830627918243
1772788676891749600,0.89774951171875,0.16764454543590546,-0.18398457765579224,0.16847887635231018
1772788676911781600,0.91778173828125,0.12954109907150269,-0.26963984966278076,0.07663203775882721
1772788676931813600,0.937813720703125,0.1123291626572609,-0.24845358729362488,-0.07172417640686035
1772788676951845600,0.957845703125,0.10350096970796585,-0.17646250128746033,-0.05597580224275589
1772788676971876600,0.977876708984375,0.035582222044467926,-0.14334441721439362,0.009949013590812683
1772788676991908600,0.99790869140625,-0.0442921407520771,-0.09013732522726059,0.0013363971374928951
1772788677011940600,1.017940673828125,-0.04508722946047783,-0.03144034370779991,-0.031829677522182465
1772788677031972600,1.03797265625,-0.05670963227748871,-0.04350876063108444,-0.012430809438228607
1772788677052004600,1.058004638671875,-0.10050557553768158,0.0066360123455524445,-0.04586178809404373
1772788677072036600,1.07803662109375,-0.09543868154287338,0.0018264194950461388,-0.08091959357261658
1772788677092067800,1.09806787109375,-0.08526614308357239,-0.02667035534977913,-0.08074631541967392
1772788677112099600,1.118099609375,-0.08468791842460632,0.016218218952417374,-0.04793914407491684
1772788677132131600,1.138131591796875,-0.053413763642311096,-0.0002751583233475685,-0.036212313920259476
1772788677152163600,1.15816357421875,-0.05912217125296593,-0.03582406044006348,-0.06828746944665909
1772788677172195600,1.178195556640625,-0.041802629828453064,-0.08282884955406189,-0.05416068434715271
1772788677192227600,1.1982275390625,0.0016178288497030735,-0.13328932225704193,-0.061541102826595306
1772788677212258600,1.218258544921875,-0.007653877604752779,-0.10988405346870422,-0.002302051056176424
1772788677232290600,1.23829052734375,-0.03641558811068535,-0.013710234314203262,0.06330601871013641
1772788677252322600,1.258322509765625,-0.02755562774837017,-0.026243679225444794,0.048536267131567
1772788677272354600,1.2783544921875,-0.04530669376254082,-0.1166648417711258,0.06521010398864746
1772788677292386600,1.298386474609375,-0.10867719352245331,-0.09833148866891861,0.1062408834695816
1772788677312418800,1.318418701171875,-0.10455113649368286,0.042023371905088425,0.0651509240269661
1772788677332449800,1.33844970703125,-0.12087258696556091,0.19687823951244354,0.01927727460861206
1772788677352481500,1.3584814453125,-0.1865379512310028,0.2027890831232071,0.03738148510456085
1772788677372513500,1.378513427734375,-0.19989179074764252,0.1096331924200058,0.0497734472155571
1772788677392545800,1.3985458984375,-0.16083340346813202,-0.0090574249625206,-0.022071458399295807
1772788677412577500,1.41857763671875,-0.1191602572798729,-0.009362053126096725,-0.11152037978172302
1772788677432609500,1.438609619140625,-0.11026918888092041,0.11255369335412979,-0.05126138776540756
1772788677452640500,1.458640625,-0.08361469954252243,0.15701498091220856,0.06641868501901627
1772788677472672800,1.4786728515625,-0.06776353716850281,0.042786333709955215,0.08325035125017166
1772788677492704500,1.49870458984375,-0.05260227993130684,-0.02235725149512291,0.013943534344434738
1772788677512736500,1.518736572265625,-0.05417516082525253,0.01021716371178627,-0.05337505415081978
1772788677532768800,1.538768798828125,-0.0438743531703949,0.11415205150842667,-0.08557310700416565
1772788677552800800,1.55880078125,-0.02666737139225006,0.23555828630924225,-0.09797123819589615
1772788677572831700,1.578831787109375,-0.01707329973578453,0.1847914457321167,-0.08634418249130249
1772788677592863500,1.598863525390625,-0.021366676315665245,0.08325371146202087,-0.15698018670082092
1772788677612895700,1.618895751953125,-0.05948293209075928,0.0207551009953022,-0.23611441254615784
1772788677632927700,1.638927734375,-0.0912800133228302,0.07958219945430756,-0.16719207167625427
1772788677652959500,1.65895947265625,-0.05525469407439232,0.25836408138275146,-0.14256387948989868
1772788677672991500,1.678991455078125,-0.024053258821368217,0.23383474349975586,-0.10565334558486938
1772788677693022700,1.699022705078125,-0.02507699280977249,-0.0005431845784187317,-0.08092216402292252
1772788677713054700,1.7190546875,-0.04656693711876869,-0.08002100884914398,-0.03558224439620972
1772788677733086500,1.73908642578125,-0.03054535761475563,-0.04026986286044121,0.004943342879414558
1772788677753118500,1.759118408203125,-0.021838808432221413,0.028101736679673195,-0.010466156527400017
1772788677773151200,1.779151123046875,-0.005926644429564476,0.06648626178503036,-0.009938044473528862
1772788677793183000,1.799182861328125,0.0010642078705132008,0.012873019091784954,-0.00474555604159832
1772788677813214000,1.8192138671875,-0.009697331115603447,-0.06324563920497894,-0.021603897213935852
1772788677833246200,1.83924609375,0.0015882961452007294,-0.13176937401294708,-0.011268340051174164
1772788677853278200,1.8592783203125,-0.013231704942882061,-0.15221938490867615,0.03712688386440277
1772788677873310200,1.879310302734375,-0.023638950660824776,-0.03394998982548714,0.05508475750684738
1772788677893342000,1.899342041015625,-0.04216273874044418,0.03105407953262329,0.06117101386189461
1772788677913374200,1.919374267578125,-0.07771632820367813,-0.09615683555603027,0.10563959181308746
1772788677933405200,1.9394052734375,-0.07777432352304459,-0.1409771889448166,0.10229244083166122
1772788677953437200,1.959437255859375,-0.008404823951423168,-0.053110674023628235,0.08155201375484467
1772788677973469000,1.979468994140625,0.01769038289785385,0.02647564932703972,0.15550824999809265
1772788677993501200,1.999501220703125,0.01776351034641266,-0.041375380009412766,0.16705825924873352
1772788678013533200,2.019533203125,0.02574089542031288,-0.09778653085231781,0.10438781976699829
1772788678033565000,2.03956494140625,0.05932510644197464,-0.013721533119678497,0.06719904392957687
1772788678053596000,2.059595947265625,0.08580722659826279,-0.011679231189191341,0.06503152847290039
1772788678073628200,2.079628173828125,0.07747156172990799,-0.047483377158641815,0.032877542078495026
1772788678093660200,2.09966015625,0.06021672114729881,-0.06042755767703056,0.003296488430351019
1772788678113692200,2.119692138671875,0.05352553725242615,-0.08414449542760849,-0.03033609129488468
1772788678133724200,2.13972412109375,0.03307047858834267,-0.09358973801136017,-0.020577333867549896
1772788678153756200,2.159756103515625,0.021556241437792778,-0.03797893598675728,0.0011839303188025951
1772788678173787100,2.179787109375,0.013860850594937801,0.0000045513734221458435,0.015588346868753433
1772788678193819100,2.199819091796875,0.01407360564917326,-0.050138432532548904,0.010916674509644508
1772788678213851100,2.21985107421875,0.008787684142589569,-0.11698180437088013,0.05123702064156532
1772788678233883100,2.239883056640625,0.008377006277441978,-0.0017174109816551208,0.06030966341495514
1772788678253915100,2.2599150390625,0.022975236177444458,0.09469415247440338,0.019140250980854034
1772788678273947000,2.27994677734375,0.03610648214817047,-0.007293727248907089,-0.04919033497571945
1772788678293978000,2.29997802734375,0.024049948900938034,-0.15832415223121643,-0.07175436615943909
1772788678314010000,2.320010009765625,0.0070279184728860855,-0.12359115481376648,-0.04039977863430977
1772788678334042000,2.3400419921875,0.015832871198654175,0.02527547813951969,-0.01748509146273136
1772788678354074000,2.36007421875,0.02572833187878132,0.10291704535484314,-0.022620687261223793
1772788678374106000,2.380106201171875,0.0124218063428998,0.01384724397212267,-0.06593940407037735
1772788678394138000,2.40013818359375,0.013455439358949661,-0.04579691216349602,-0.09140698611736298
1772788678414169000,2.420169189453125,0.024023190140724182,-0.044344689697027206,-0.08377628028392792
1772788678434201000,2.440201171875,0.022601375356316566,0.012335063889622688,-0.014063818380236626
1772788678454233000,2.460233154296875,0.04204878211021423,0.05649639666080475,0.0013918792828917503
1772788678474265000,2.48026513671875,0.045831941068172455,-0.019985973834991455,-0.014058848842978477
1772788678494297000,2.500297119140625,0.027284953743219376,-0.04584755003452301,-0.015266950242221355
1772788678514329000,2.5203291015625,0.027718335390090942,-0.0009871721267700195,-0.0041237385012209415
1772788678534360000,2.540360107421875,0.03187510371208191,-0.023663723841309547,-0.024877190589904785
1772788678554392000,2.56039208984375,0.03142129257321358,-0.054588574916124344,-0.02238091267645359
1772788678574424000,2.580424072265625,0.022128617390990257,0.011123362928628922,0.03832966089248657
1772788678594456300,2.600456298828125,0.01861598715186119,0.10230189561843872,0.06198029965162277
1772788678614488000,2.620488037109375,0.002896038116887212,0.11027117073535919,0.031070943921804428
1772788678634520000,2.64052001953125,0.007377917878329754,0.02046402171254158,-0.06216130778193474
1772788678654551000,2.660551025390625,0.011157804168760777,-0.06383461505174637,-0.06274458765983582
1772788678674583300,2.680583251953125,-0.0017598727717995644,-0.04445403069257736,0.025064628571271896
1772788678694615000,2.700614990234375,0.0020626052282750607,0.06959675252437592,0.06499553471803665
1772788678714647000,2.72064697265625,0.011805485002696514,0.0969042032957077,0.021405713632702827
1772788678734679300,2.74067919921875,0.005137573927640915,0.03913312032818794,-0.03378177806735039
1772788678754711000,2.7607109375,-0.003508602036163211,-0.03412526473402977,-0.03438018262386322
1772788678774741200,2.7807412109375,-0.0012140832841396332,-0.010109944269061089,-0.025163739919662476
1772788678794773000,2.80077294921875,0.01152902003377676,0.028487781062722206,-0.037409137934446335
1772788678814805000,2.820804931640625,0.011884735897183418,0.04313596338033676,-0.03209279477596283
1772788678834837000,2.8408369140625,0.036848284304142,0.038165174424648285,-0.010896346531808376
1772788678854869200,2.860869140625,0.0417909249663353,-0.024037592113018036,-0.0039988490752875805
1772788678874901000,2.88090087890625,0.025018902495503426,-0.02606832981109619,0.0107350442558527
1772788678894932000,2.900931884765625,0.027342207729816437,0.014964555390179157,0.023452000692486763
1772788678914964000,2.9209638671875,0.03479450196027756,-0.02632916532456875,0.008576909080147743
1772788678934996200,2.940996337890625,0.01950024999678135,-0.037477120757102966,-0.01180852111428976
1772788678955028000,2.961028076171875,0.01855853758752346,-0.015833761543035507,0.006556951440870762
1772788678975060000,2.98106005859375,0.023878298699855804,-0.05064816400408745,0.02764345519244671
1772788678995091000,3.001091064453125,0.016558848321437836,-0.012625299394130707,0.03469821810722351
1772788679015123200,3.021123291015625,0.021252533420920372,0.06114555522799492,0.01925675943493843
1772788679035155000,3.041155029296875,0.02928498201072216,-0.029000772163271904,-0.005081906449049711
1772788679055187000,3.06118701171875,0.016919739544391632,-0.10864138603210449,-0.003799418918788433
1772788679075219200,3.08121923828125,0.013984311372041702,-0.007809505332261324,0.0483861081302166
1772788679095251200,3.101251220703125,0.017438724637031555,0.049366243183612823,0.07320038229227066
1772788679115283000,3.121282958984375,0.002814901527017355,-0.001393226906657219,0.02900775521993637
1772788679135314000,3.14131396484375,-0.005739574786275625,-0.04023946449160576,-0.009801877662539482
1772788679155346200,3.16134619140625,0.008705752901732922,-0.05707140266895294,0.004692069720476866
1772788679175378200,3.181378173828125,0.007892909459769726,-0.052008695900440216,0.05820567160844803
1772788679195410000,3.201409912109375,-0.0025628809817135334,-0.002829470671713352,0.04172705486416817
1772788679215442200,3.221442138671875,0.014324555173516273,0.02691948227584362,-0.0025915007572621107
1772788679235473200,3.24147314453125,0.022421251982450485,-0.010294805280864239,-0.007438052445650101
1772788679255505200,3.261505126953125,0.009848985821008682,-0.05523328855633736,-0.013826710171997547
1772788679275537000,3.281536865234375,0.00020445650443434715,-0.02159600518643856,0.03157983347773552
1772788679295569200,3.301569091796875,0.00792758073657751,-0.0034346943721175194,0.04075255244970322
1772788679315601200,3.32160107421875,0.0037653406616300344,-0.030235109850764275,0.017055481672286987
1772788679335633200,3.341633056640625,-0.008313160389661789,-0.01213014218956232,0.019746873527765274
1772788679355664100,3.3616640625,-0.012202570214867592,0.011988813057541847,-0.0005670040845870972
1772788679375696100,3.381696044921875,-0.01335336547344923,-0.009114453569054604,-0.010873975232243538
1772788679395728100,3.40172802734375,-0.021319333463907242,-0.016992200165987015,-0.0014459430240094662
1772788679415760100,3.421760009765625,-0.03617524728178978,0.009936354123055935,0.008250893093645573
1772788679435792000,3.4417919921875,-0.03754965960979462,0.029806045815348625,-0.011269273236393929
1772788679455824100,3.46182421875,-0.02264566719532013,-0.0020703934133052826,-0.01888449862599373
1772788679475855000,3.481855224609375,-0.016705503687262535,-0.03791802376508713,0.021051248535513878
1772788679495887000,3.50188720703125,-0.016187140718102455,-0.027675699442625046,0.02511136792600155
1772788679515918800,3.5219189453125,-0.01944287121295929,0.02095518261194229,0.04609973728656769
1772788679535951000,3.541951171875,-0.012473910115659237,0.05161029472947121,0.017742399126291275
1772788679555983000,3.561983154296875,-0.004606306552886963,0.009565298445522785,-0.02335319295525551
1772788679576015000,3.58201513671875,0.019565526396036148,-0.015382926911115646,-0.05860505253076553
1772788679596046000,3.602046142578125,0.0364433154463768,0.007920644246041775,-0.02507643587887287
1772788679616078000,3.622078125,0.03436991572380066,0.016025330871343613,-0.004251979757100344
1772788679636110000,3.642110107421875,0.023926645517349243,-0.00001801084727048874,0.008633365854620934
1772788679656142000,3.66214208984375,0.03834332525730133,-0.015410435386002064,-0.01787618175148964
1772788679676174000,3.682174072265625,0.026659980416297913,-0.015686793252825737,0.0006137564778327942
1772788679696206000,3.7022060546875,0.02782869152724743,0.0017693527042865753,0.017175501212477684
1772788679716237000,3.722237060546875,0.017902620136737823,-0.005722652189433575,0.04617222398519516
1772788679736269000,3.74226904296875,-0.005564763210713863,0.006933601573109627,0.015978500247001648
1772788679756301000,3.762301025390625,-0.014004774391651154,0.044781267642974854,-0.021374020725488663
1772788679776333600,3.78233349609375,-0.005570407025516033,0.028531759977340698,0.01003042422235012
1772788679796365600,3.802365478515625,-0.01891510933637619,0.019927052780985832,0.013223903253674507
1772788679816397600,3.8223974609375,-0.02812770940363407,0.030864160507917404,0.004351009614765644
1772788679836428500,3.842428466796875,-0.017159350216388702,0.0006508231163024902,-0.020736683160066605
1772788679856460500,3.86246044921875,-0.017241552472114563,-0.06601414084434509,-0.03759106993675232
1772788679876492500,3.882492431640625,-0.01155883353203535,-0.05291340872645378,-0.02169102430343628
1772788679896524500,3.902524658203125,-0.007042800076305866,0.021664762869477272,0.022345539182424545
1772788679916556500,3.922556640625,-0.009625817649066448,0.0372781902551651,0.02151334658265114
1772788679936588500,3.942588623046875,-0.004020282067358494,-0.03248126059770584,-0.04059042036533356
1772788679956619500,3.96261962890625,-0.00796034187078476,-0.06162000447511673,-0.047888003289699554
1772788679976651800,3.98265185546875,-0.005659867078065872,-0.01784266158938408,-0.01078920066356659
1772788679996682800,4.002682861328125,0.0011186299379915,0.02195112779736519,0.005832964088767767
1772788680016714500,4.022714599609375,-0.0022979574277997017,-0.039889488369226456,0.018355993553996086
1772788680036746500,4.04274658203125,-0.012016178108751774,-0.030701467767357826,0.020477022975683212
1772788680056778800,4.06277880859375,-0.0004908621776849031,0.022707998752593994,0.03289671987295151
1772788680076810500,4.082810546875,0.007407587021589279,0.03937162458896637,0.01481274701654911
1772788680096841500,4.102841552734375,0.006169282831251621,0.003933588974177837,-0.0055847615003585815
1772788680116873500,4.12287353515625,0.007368003949522972,-0.03201250731945038,0.002082700375467539
1772788680136905700,4.14290576171875,-0.00963125191628933,-0.01811045967042446,0.027921797707676888
1772788680156937500,4.1629375,-0.018128618597984314,0.05581820383667946,0.03850231692194939
1772788680176969500,4.182969482421875,-0.01852666214108467,0.07329071313142776,0.0331987626850605
1772788680197000400,4.20300048828125,-0.02325952611863613,0.020916679874062538,0.033908143639564514
1772788680217032700,4.22303271484375,-0.017657659947872162,-0.038126587867736816,0.043098267167806625
1772788680237064700,4.243064697265625,-0.014430394396185875,-0.005094641819596291,0.0653286874294281
1772788680257096400,4.263096435546875,-0.015832561999559402,0.03996653854846954,0.040212418884038925
1772788680277128400,4.28312841796875,-0.02468983083963394,0.02588176354765892,0.023461803793907166
1772788680297160700,4.30316064453125,-0.016832003369927406,-0.04201902449131012,-0.0126316137611866
1772788680317192400,4.3231923828125,-0.017063040286302567,-0.0734330266714096,0.009694062173366547
1772788680337223400,4.343223388671875,-0.024219142273068428,-0.008759873919188976,0.02579224854707718
1772788680357255400,4.36325537109375,-0.016540996730327606,0.00460196565836668,0.014503374695777893
1772788680377290500,4.38329052734375,-0.007852117531001568,0.011352887377142906,0.004278074949979782
1772788680397322800,4.40332275390625,-0.0038663367740809917,0.009541329927742481,0.02144791930913925
1772788680417354500,4.4233544921875,-0.012630503624677658,-0.008227469399571419,0.03297115117311478
1772788680437386500,4.443386474609375,0.008365059271454811,-0.006805608049035072,0.018342409282922745
1772788680457417500,4.46341748046875,0.022429553791880608,-0.0029447851702570915,0.005004192236810923
1772788680477449700,4.48344970703125,0.011666608974337578,0.016467034816741943,-0.007001560181379318
1772788680497481500,4.5034814453125,0.006046089809387922,0.05037732422351837,0.009569022804498672
1772788680517513500,4.523513427734375,0.012917965650558472,0.09610806405544281,0.04416206479072571
1772788680537545700,4.543545654296875,0.010021433234214783,0.07379142940044403,0.05048183724284172
1772788680557577700,4.56357763671875,-0.006123275030404329,0.05742637813091278,0.047718364745378494
1772788680577608700,4.583608642578125,-0.015652144327759743,0.05914982035756111,0.057623282074928284
1772788680597640400,4.603640380859375,-0.023463008925318718,0.06984678655862808,0.09984007477760315
1772788680617672700,4.623672607421875,-0.030355190858244896,0.04428805038332939,0.09011704474687576
1772788680637704700,4.64370458984375,-0.04513435438275337,0.026374906301498413,0.05386733636260033
1772788680657736400,4.663736328125,-0.04034033790230751,0.008013741113245487,0.050734881311655045
1772788680677768400,4.6837685546875,-0.048605140298604965,-0.01733202114701271,0.06103003770112991
1772788680697799700,4.703799560546875,-0.055365074425935745,-0.025853639468550682,0.043169111013412476
1772788680717831700,4.723831787109375,-0.04636990278959274,0.014381816610693932,0.04192771762609482
1772788680737863400,4.743863525390625,-0.030596986413002014,0.017984692007303238,0.0731625109910965
1772788680757895400,4.7638955078125,-0.030732762068510056,0.010987198911607265,0.05805862322449684
1772788680777927400,4.783927490234375,-0.009299879893660545,-0.004645479843020439,0.008747531101107597
1772788680797959400,4.80395947265625,0.0010691380593925714,-0.03313784301280975,-0.00795741192996502
1772788680817990400,4.823990478515625,0.005844592582434416,-0.049855150282382965,0.021166251972317696
1772788680838022100,4.844022216796875,0.011179829016327858,-0.027475163340568542,0.04066445305943489
1772788680858054400,4.864054443359375,0.0009553746785968542,-0.014104990288615227,0.025138799101114273
1772788680878086400,4.88408642578125,0.0003702344838529825,0.021899767220020294,-0.006892108824104071
1772788680898118100,4.9041181640625,0.009416017681360245,0.018861176446080208,-0.021600520238280296
1772788680918150400,4.924150390625,0.0066827405244112015,-0.050813812762498856,-0.010053278878331184
1772788680938181400,4.944181396484375,0.0017282378394156694,-0.009493688121438026,-0.0028768538031727076
1772788680958213400,4.96421337890625,0.0063445186242461205,0.07252597063779831,0.02107428014278412
1772788680978245400,4.984245361328125,0.00891598779708147,0.06418612599372864,0.014689972624182701
1772788680998277400,5.00427734375,0.011360395699739456,-0.026586884632706642,-0.025641916319727898
1772788681018309400,5.024309326171875,0.010043855756521225,-0.049687717109918594,-0.03880610316991806
1772788681038341400,5.04434130859375,0.015577822923660278,0.014796735718846321,-0.020629093050956726
1772788681058372400,5.064372314453125,0.018002159893512726,0.0331437885761261,-0.00610771682113409
1772788681078404400,5.084404296875,0.012383677996695042,-0.009510127827525139,-0.030536942183971405
1772788681098436400,5.104436279296875,0.007937571033835411,-0.023502638563513756,-0.015957413241267204
1772788681118468400,5.12446826171875,0.008041923865675926,-0.006804468110203743,-0.01004813052713871
1772788681138500000,5.1445,0.004935781471431255,-0.008456995710730553,0.006649227347224951
1772788681158532400,5.164532470703125,0.002819713205099106,-0.007560956757515669,0.0017965915612876415
1772788681178563300,5.184563232421875,0.011029803194105625,-0.019983502104878426,0.0056132967583835125
1772788681198595300,5.20459521484375,0.00515303760766983,-0.015240488573908806,-0.007013593800365925
1772788681218627300,5.22462744140625,-0.005732650402933359,-0.02256220020353794,-0.010370195843279362
1772788681238659300,5.244659423828125,-0.0015729188453406096,-0.034420039504766464,0.004979333840310574
1772788681258691300,5.26469140625,-0.013207797892391682,-0.014943811111152172,0.006774879526346922
1772788681278723300,5.284723388671875,-0.010876154527068138,0.006031474098563194,0.003424045629799366
1772788681298755300,5.30475537109375,-0.014737769961357117,0.012521940283477306,0.0092534851282835
1772788681318786300,5.324786376953125,-0.01055118441581726,0.014451969414949417,-0.02641916275024414
1772788681338818300,5.344818359375,-0.0013260908890515566,-0.042039837688207626,-0.04506727680563927
1772788681358850300,5.364850341796875,0.0005629928782582283,-0.04946621507406235,-0.038360677659511566
1772788681378882300,5.38488232421875,0.007425811141729355,-0.018453137949109077,-0.014745062217116356
1772788681398914300,5.404914306640625,0.0069349417462944984,-0.000695250928401947,0.006750468164682388
1772788681418946300,5.4249462890625,0.0024354192428290844,-0.0039387913420796394,-0.003923878539353609
1772788681438977300,5.444977294921875,-0.0037608318962156773,-0.03953928127884865,-0.035340793430805206
1772788681459009500,5.465009521484375,0.009682351723313332,-0.05120297521352768,-0.02281283773481846
1772788681479041300,5.485041259765625,0.005019955337047577,-0.04512351378798485,-0.00193525361828506
1772788681499073300,5.5050732421875,0.0013756861444562674,-0.0173864234238863,-0.016601813957095146
1772788681519105500,5.52510546875,0.004348356276750565,0.015353487804532051,-0.018027763813734055
1772788681539137300,5.54513720703125,0.018955668434500694,-0.024914953857660294,0.002574851270765066
1772788681559168300,5.565168212890625,0.0013804796617478132,-0.050509754568338394,0.018648318946361542
1772788681579200300,5.5852001953125,-0.01173422858119011,-0.016729610040783882,0.007300592493265867
1772788681599232500,5.605232421875,0.0042035384103655815,-0.03747228905558586,0.0041965884156525135
1772788681619264300,5.62526416015625,0.0036952525842934847,-0.041999321430921555,-0.0021927370689809322
1772788681639296300,5.645296142578125,0.00004678661935031414,-0.0024784300476312637,0.0295880027115345
1772788681659328300,5.665328369140625,-0.0012088972143828869,0.013172589242458344,0.05118256062269211
1772788681679359500,5.685359375,0.004275850020349026,-0.037113942205905914,0.007166945841163397
1772788681699391500,5.7053916015625,0.008861659094691277,-0.07428200542926788,-0.022710129618644714
1772788681719423200,5.72542333984375,0.010415893979370594,-0.04625832289457321,0.010761812329292297
1772788681739455200,5.745455322265625,0.013659094460308552,-0.001012435182929039,0.045339714735746384
1772788681759487500,5.765487548828125,0.005969466641545296,-0.007843060418963432,0.021869055926799774
1772788681779519200,5.785519287109375,0.02185022458434105,-0.06509490311145782,-0.01615986041724682
1772788681799550200,5.80555029296875,0.010442591272294521,-0.04687659442424774,0.003839632496237755
1772788681819582500,5.82558251953125,0.009500294923782349,0.024743033573031425,0.03240084648132324
1772788681839614500,5.845614501953125,0.016978440806269646,0.05449434369802475,0.037465061992406845
1772788681859646200,5.865646240234375,0.012656081467866898,-0.006843652576208115,0.005835323128849268
1772788681879678200,5.88567822265625,0.013585308566689491,-0.07661546766757965,-0.0034224512055516243
1772788681899710500,5.90571044921875,0.009555757977068424,-0.020176541060209274,0.020919816568493843
1772788681919741400,5.925741455078125,0.021047033369541168,0.047506097704172134,0.03223638981580734
1772788681939773400,5.9457734375,0.011293063871562481,0.02550104446709156,0.045327287167310715
1772788681959805200,5.96580517578125,0.005927921272814274,-0.030537188053131104,0.030227120965719223
1772788681979837400,5.98583740234375,0.016948804259300232,-0.040334731340408325,0.014105717651546001
1772788681999869400,6.005869384765625,0.01878000795841217,0.007584363222122192,0.03568398207426071
1772788682019901200,6.025901123046875,0.016621315851807594,0.0470072478055954,0.01757705956697464
1772788682039932200,6.04593212890625,0.028368832543492317,0.03599930182099342,0.003990631550550461
1772788682059964400,6.06596435546875,0.0347357913851738,-0.029551327228546143,-0.008288271725177765
1772788682079996400,6.085996337890625,0.03757106512784958,-0.030951309949159622,0.0012436732649803162
1772788682100028200,6.106028076171875,0.042616862803697586,0.0019718287512660027,0.00900368019938469
1772788682120060400,6.126060302734375,0.03862931206822395,0.027960285544395447,-0.012364724650979042
1772788682140092400,6.146092529296875,0.03958811238408089,-0.007372139021754265,-0.00992637686431408
1772788682160123400,6.166123291015625,0.03220156952738762,-0.01581728830933571,-0.003494843142107129
1772788682180155400,6.1861552734375,0.02385934442281723,0.03456903249025345,0.02854258380830288
1772788682200187400,6.2061875,0.025945525616407394,0.05248115211725235,0.02923269383609295
1772788682220219400,6.226219482421875,0.01961357519030571,-0.010525777004659176,-0.017488110810518265
1772788682240251400,6.24625146484375,0.013656227849423885,-0.01528085209429264,-0.03728170692920685
1772788682260283400,6.266283447265625,0.02419944852590561,0.01803947612643242,0.0007095746695995331
1772788682280315400,6.2863154296875,0.027527520433068275,0.02127160131931305,0.02509702928364277
1772788682300346400,6.306346435546875,0.010575874708592892,0.014778094366192818,0.006307450123131275
1772788682320378400,6.32637841796875,0.021014682948589325,0.008444981649518013,-0.0000881776213645935
1772788682340410400,6.346410400390625,0.016957171261310577,-0.009526677429676056,-0.024440212175250053
1772788682360442400,6.3664423828125,0.000279734143987298,-0.002099080942571163,-0.01107810903340578
1772788682380474400,6.386474365234375,0.012961563654243946,0.03672235086560249,0.013808246701955795
1772788682400506400,6.40650634765625,0.009816059842705727,-0.0009316662326455116,0.0006935056298971176
1772788682420537300,6.426537353515625,-0.0034296747762709856,-0.04468759149312973,-0.006644831970334053
1772788682440569300,6.4465693359375,-0.007849111221730709,-0.010530267842113972,0.009792640805244446
1772788682460601300,6.466601318359375,-0.0004212786443531513,0.03789684176445007,0.014500628225505352
1772788682480633300,6.48663330078125,-0.008352827280759811,-0.008640298619866371,0.011250323615968227
1772788682500665300,6.506665283203125,-0.006220354698598385,-0.053760215640068054,0.013978643342852592
1772788682520697300,6.526697265625,0.0008721002377569675,-0.03008635714650154,0.012434584088623524
1772788682540728300,6.546728271484375,0.006791789084672928,-0.007940001785755157,0.006620105355978012
1772788682560760300,6.56676025390625,-0.00037830090150237083,-0.0036752158775925636,0.030990470200777054
1772788682580792300,6.586792236328125,0.00125960074365139,0.025065241381525993,0.03965853154659271
1772788682600824300,6.60682421875,0.010825100354850292,0.04467344656586647,0.0017159385606646538
1772788682620856300,6.626856201171875,0.009075824171304703,-0.004561818204820156,-0.019992683082818985
1772788682640888600,6.646888671875,-0.004798539448529482,-0.012372794561088085,-0.021822985261678696
1772788682660919600,6.66691943359375,0.015280723571777344,0.02378726378083229,-0.024936042726039886
1772788682680951300,6.686951416015625,0.02391429804265499,0.009267862886190414,-0.03954574465751648
1772788682700983300,6.7069833984375,0.008219337090849876,-0.014545782469213009,-0.06457080692052841
1772788682721015600,6.727015625,-0.0022558323107659817,-0.019288642331957817,-0.029773764312267303
1772788682741047300,6.74704736328125,-0.005347464233636856,-0.007604366634041071,0.029735855758190155
1772788682761079300,6.767079345703125,-0.011661066673696041,-0.03241140767931938,0.12499849498271942
1772788682781112000,6.787112060546875,-0.023998113349080086,-0.02070978283882141,0.12619954347610474
1772788682801143000,6.80714306640625,-0.034828659147024155,0.021878425031900406,0.08509445190429688
1772788682821174800,6.8271748046875,-0.028118930757045746,0.03322539106011391,0.05917585641145706
1772788682841207000,6.84720703125,-0.02444496378302574,0.0052462611347436905,0.08777093142271042
1772788682861239000,6.867239013671875,-0.014171376824378967,0.020781468600034714,0.11691474169492722
1772788682881270800,6.887270751953125,-0.005377774126827717,0.029274096712470055,0.11709117144346237
1772788682901303000,6.907302978515625,0.003224509535357356,0.02281014993786812,0.02196555957198143
1772788682921334000,6.927333984375,0.005390887148678303,0.014303899370133877,-0.059756431728601456
1772788682941366000,6.947365966796875,0.01784907467663288,0.00612251739948988,-0.027871910482645035
1772788682961397800,6.967397705078125,0.008948291651904583,-0.016336528584361076,0.049755193293094635
1772788682981430000,6.987429931640625,0.003971843980252743,-0.0020988518372178078,0.034634653478860855
1772788683001462000,7.0074619140625,-0.001744721899740398,0.024332677945494652,-0.016760852187871933
1772788683021494000,7.027493896484375,0.001151904696598649,0.02119874581694603,-0.0412682369351387
1772788683041525000,7.04752490234375,0.013035476207733154,-0.01483458373695612,0.01110788807272911
1772788683061557000,7.067556884765625,0.0060276491567492485,-0.012000941671431065,0.0331101268529892
1772788683081589000,7.087589111328125,0.00815645419061184,0.020792311057448387,0.00969787873327732
1772788683101621000,7.10762109375,0.013502689078450203,0.00492253340780735,-0.02551945485174656
1772788683121652700,7.12765283203125,0.021361317485570908,-0.02329251542687416,-0.015752755105495453
1772788683141685000,7.14768505859375,0.017577121034264565,-0.012931030243635178,0.01552966795861721
1772788683161716000,7.167716064453125,0.019737010821700096,0.003821541555225849,0.013963591307401657
1772788683181748000,7.187748046875,0.023099640384316444,-0.0075850416906178,-0.02137824147939682
1772788683201780000,7.207780029296875,0.02470819093286991,-0.012130524963140488,-0.04724925383925438
1772788683221812000,7.22781201171875,0.01041267067193985,-0.029067695140838623,-0.02040782757103443
1772788683241844000,7.247843994140625,-0.019435036927461624,-0.04447488486766815,-0.01819389872252941
1772788683261876000,7.2678759765625,-0.002612631767988205,-0.02732621692121029,-0.03742245212197304
1772788683281907000,7.287906982421875,0.023792892694473267,-0.02052142284810543,-0.0293083805590868
1772788683301939000,7.30793896484375,0.001163481967523694,-0.011356953531503677,0.013759193941950798
1772788683321971000,7.327970947265625,-0.01753249019384384,0.07197381556034088,0.017991317436099052
1772788683342003000,7.3480029296875,0.010784415528178215,0.052452802658081055,0.01720297709107399
1772788683362035000,7.368034912109375,0.010801305994391441,-0.0659032091498375,0.03147067874670029
1772788683382067000,7.38806689453125,-0.0180519949644804,0.005376829765737057,0.03700033575296402
1772788683402099000,7.408098876953125,-0.053373754024505615,0.07860367745161057,0.041443292051553726
1772788683422130000,7.4281298828125,-0.08912953734397888,0.2085811197757721,0.06320091336965561
1772788683442162000,7.448161865234375,-0.06569772958755493,0.40125322341918945,0.04025916010141373
1772788683462194000,7.46819384765625,-0.06485575437545776,0.33674153685569763,0.05329786241054535
1772788683482226000,7.488225830078125,-0.05549856275320053,0.03565952181816101,-0.0033802404068410397
1772788683502258200,7.508258056640625,-0.05909205600619316,-0.08974120020866394,-0.0632738471031189
1772788683522290000,7.5282900390625,-0.013830194249749184,-0.08175137639045715,-0.05809759348630905
1772788683542321000,7.54832080078125,-0.006545073352754116,-0.06045156717300415,0.014377142302691936
1772788683562353000,7.568352783203125,-0.015491929836571217,-0.15994493663311005,0.029395192861557007
1772788683582385200,7.58838525390625,-0.004926432389765978,-0.15020549297332764,-0.012688035145401955
1772788683602417000,7.6084169921875,0.00852224975824356,-0.0873996764421463,-0.044409748166799545
1772788683622449000,7.628448974609375,-0.01058395765721798,-0.06623290479183197,-0.020919952541589737
1772788683642481000,7.64848095703125,-0.02462119609117508,-0.09868124127388,-0.02026592753827572
1772788683662512000,7.66851220703125,-0.023888031020760536,-0.09599209576845169,-0.008941852487623692
1772788683682543900,7.6885439453125,-0.020346980541944504,-0.1549224555492401,-0.021709181368350983
1772788683702575900,7.708575927734375,-0.00897410698235035,-0.17749106884002686,-0.0586705282330513
1772788683722607900,7.72860791015625,0.007116428576409817,-0.12785150110721588,-0.03581523522734642
1772788683742640000,7.74864013671875,0.005851491820067167,-0.0730789452791214,0.004431695677340031
1772788683762671900,7.768671875,0.03130665421485901,-0.045987896621227264,-0.014435820281505585
1772788683782703600,7.78870361328125,0.025483764708042145,-0.07259573042392731,-0.021944206207990646
1772788683802734600,7.808734619140625,0.0006219504866749048,-0.043960776180028915,-0.009802721440792084
1772788683822766600,7.8287666015625,0.0033487286418676376,-0.006365387700498104,-0.0045250896364450455
1772788683842798600,7.848798583984375,-0.014959204941987991,0.005954737775027752,-0.004072040319442749
1772788683862830600,7.86883056640625,-0.017625197768211365,0.002300119027495384,-0.01897123083472252
1772788683882862600,7.888862548828125,-0.008139587007462978,0.010065327398478985,-0.01405254565179348
1772788683902894600,7.90889453125,0.007220417261123657,-0.020752623677253723,0.009000305086374283
1772788683922925800,7.92892578125,0.0059989518485963345,-0.08094101399183273,0.017953451722860336
1772788683942957600,7.94895751953125,0.00191370933316648,-0.03804817795753479,0.011771944351494312
1772788683962989600,7.968989501953125,0.002744705881923437,0.05222320184111595,0.01223529689013958
1772788683983021600,7.989021484375,0.0009509297087788582,0.03912760317325592,-0.001507064327597618
1772788684003050500,8.009050537109376,0.00447103101760149,-0.05501019209623337,-0.029061902314424515
1772788684023082500,8.02908251953125,0.002644779160618782,-0.034599196165800095,-0.01984221860766411
1772788684043113700,8.04911376953125,0.0028460670728236437,0.048705317080020905,0.0026641995646059513
1772788684063145700,8.069145751953124,-0.00016091088764369488,0.011237192898988724,-0.01828790456056595
1772788684083177500,8.089177490234375,-0.005729563068598509,-0.029254687950015068,-0.01673533022403717
1772788684103209500,8.10920947265625,-0.006425148341804743,-0.014165293425321579,0.012783101759850979
1772788684123241700,8.12924169921875,-0.006322385743260384,0.04405216872692108,0.025362370535731316
1772788684143273500,8.1492734375,-0.011721596121788025,0.005567892454564571,0.017085395753383636
1772788684163305500,8.169305419921875,-0.021895907819271088,-0.049671050161123276,-0.0027170695830136538
1772788684183336400,8.18933642578125,-0.01052600983530283,0.004348356276750565,0.01134672574698925
1772788684203368700,8.20936865234375,0.013450256548821926,0.034367166459560394,0.029978379607200623
1772788684223400700,8.229400634765625,0.007944358512759209,-0.027642294764518738,-0.006189389154314995
1772788684243432400,8.249432373046876,0.011498818174004555,-0.03839028254151344,-0.018639888614416122
1772788684263464700,8.269464599609375,0.011865046806633472,-0.012899186462163925,0.015243778005242348
1772788684283496700,8.28949658203125,0.02081812545657158,0.00606476329267025,0.023914672434329987
1772788684303527700,8.309527587890624,0.007836231030523777,0.01502622477710247,0.024640211835503578
1772788684323559400,8.329559326171875,0.010080177336931229,-0.0054989466443657875,-0.0020233108662068844
1772788684343591700,8.349591796875,0.011559459380805492,-0.01967054232954979,-0.0008352366276085377
1772788684363623700,8.369623779296875,0.003350531216710806,-0.00008805282413959503,0.017977599054574966
1772788684383655400,8.389655517578126,0.008052011951804161,0.00080852210521698,0.010579429566860199
1772788684403687700,8.409687744140625,-0.005463042296469212,0.01026342436671257,0.0012016361579298973
1772788684423718700,8.42971875,0.0055894507095217705,0.03489736095070839,-0.020701618865132332
1772788684443750700,8.449750732421874,0.022104714065790176,0.023652849718928337,-0.060442548245191574
1772788684463782700,8.46978271484375,0.013341471552848816,-0.030228033661842346,-0.06354020535945892
1772788684483814700,8.489814697265626,0.0030824739951640368,-0.007668738719075918,-0.021120887249708176
1772788684503846700,8.5098466796875,0.0019356552511453629,0.04315662384033203,0.015583906322717667
1772788684523878700,8.529878662109375,0.003386153606697917,0.016537418588995934,-0.030485715717077255
1772788684543910400,8.549910400390624,0.007057119160890579,-0.024231206625699997,-0.04657875373959541
1772788684563941600,8.569941650390625,0.005158080719411373,-0.02243889681994915,-0.0028387762140482664
1772788684583973600,8.5899736328125,-0.00004310556687414646,-0.0039817821234464645,0.028557538986206055
1772788684604005600,8.610005615234375,-0.004662027582526207,-0.013109387829899788,0.020295260474085808
1772788684624037600,8.63003759765625,-0.010231276974081993,-0.0020660199224948883,-0.0021130661480128765
1772788684644069600,8.650069580078124,-0.0012762867845594883,0.032316796481609344,0.0014237435534596443
1772788684664101600,8.6701015625,0.005008144304156303,-0.01702042855322361,-0.003896583802998066
1772788684684133600,8.690133544921874,-0.008999248966574669,-0.062455520033836365,0.0017412356100976467
1772788684704164600,8.71016455078125,-0.01292020920664072,-0.007768912706524134,0.038159482181072235
1772788684724196600,8.730196533203125,-0.008972007781267166,0.044946879148483276,0.033887676894664764
1772788684744228600,8.750228515625,-0.019140977412462234,0.020714471116662025,-0.010707797482609749
1772788684764260600,8.770260498046875,-0.00738568976521492,-0.006996330805122852,-0.048265911638736725
1772788684784292900,8.79029296875,0.001195469405502081,-0.011658345349133015,-0.03177100419998169
1772788684804324900,8.810324951171875,-0.00895734690129757,-0.02781703695654869,-0.025562066584825516
1772788684824355800,8.83035595703125,-0.012614758685231209,-0.0006077103316783905,0.003637720365077257
1772788684844387800,8.850387939453125,-0.009662332013249397,0.02439827099442482,0.007406048011034727
1772788684864419800,8.870419921875,-0.01294679194688797,-0.008728375658392906,-0.015122209675610065
1772788684884451800,8.890451904296874,-0.007397656328976154,0.008758015930652618,-0.012935400009155273
1772788684904483800,8.91048388671875,0.006734753958880901,0.01703287474811077,-0.005930842831730843
1772788684924515800,8.930515869140624,0.0066697197034955025,-0.04352919012308121,-0.026348892599344254
1772788684944547800,8.9505478515625,0.007529955357313156,-0.036923449486494064,-0.0331653468310833
1772788684964578800,8.970578857421875,0.0129054831340909,0.021420437842607498,-0.01659506931900978
1772788684984610800,8.99061083984375,0.009346811100840569,0.02697320096194744,-0.00940600037574768
1772788685004642800,9.010642822265625,0.00936673954129219,-0.017392249777913094,-0.01463724859058857
1772788685024674800,9.0306748046875,0.004322913009673357,-0.0458398275077343,-0.01833730936050415
1772788685044706800,9.050706787109375,0.006263968534767628,-0.016222281381487846,-0.0268473532050848
1772788685064738800,9.07073876953125,0.013398434035480022,-0.05852499604225159,-0.03430349379777908
1772788685084769800,9.090769775390624,-0.015530308708548546,-0.06197824329137802,-0.04371523857116699
1772788685104801800,9.1108017578125,-0.02621353417634964,-0.01440463587641716,-0.05146161839365959
1772788685124833800,9.130833740234374,-0.0036706863902509212,0.028541836887598038,-0.028864745050668716
1772788685144865800,9.15086572265625,-0.002822848502546549,0.007943699136376381,-0.044161226600408554
1772788685164897800,9.170897705078126,-0.0058464910835027695,-0.034197285771369934,-0.035432055592536926
1772788685184929800,9.1909296875,0.003003770485520363,0.0037776418030261993,-0.015213863924145699
1772788685204961800,9.2109619140625,-0.0031478158198297024,-0.0018018726259469986,0.005252170376479626
1772788685224992800,9.23099267578125,-0.010702249594032764,-0.01096215657889843,0.0022727609612047672
1772788685245025000,9.25102490234375,-0.005994907580316067,0.012698164209723473,-0.01608622819185257
1772788685265056800,9.271056884765626,-0.004302015528082848,-0.0070863449946045876,-0.021370384842157364
1772788685285088800,9.2910888671875,-0.00648600934073329,-0.017214767634868622,-0.015901407226920128
1772788685305120800,9.311120849609376,0.0020595714449882507,0.014364010654389858,0.013506019487977028
1772788685325152800,9.33115283203125,0.006982346065342426,0.00490963738411665,0.006596803665161133
1772788685345184800,9.351184814453125,0.003907886333763599,-0.024076327681541443,0.009968938305974007
1772788685365215700,9.3712158203125,0.008893433026969433,0.003816520795226097,0.01346558053046465
1772788685385247700,9.391247802734375,0.008258500136435032,-0.0009835949167609215,0.023385681211948395
1772788685405280000,9.411280029296876,0.0057142917066812515,-0.014361797831952572,0.0017968076281249523
1772788685425311700,9.431311767578125,0.00794215127825737,-0.004654461517930031,-0.018614057451486588
1772788685445343700,9.45134375,0.013243451714515686,-0.002498174086213112,-0.032928235828876495
1772788685465376000,9.4713759765625,0.015556474216282368,-0.0014736978337168694,-0.03558407723903656
1772788685485407000,9.491406982421875,0.017662780359387398,0.003013390116393566,-0.024165190756320953
1772788685505438700,9.511438720703126,0.014965469017624855,0.008375132456421852,-0.011651488021016121
1772788685525470700,9.531470703125,0.008204519748687744,0.01841140352189541,0.003588138148188591
1772788685545503000,9.5515029296875,0.017894243821501732,0.005114926025271416,-0.00969846174120903
1772788685565534700,9.57153466796875,0.0015774010680615902,-0.026237253099679947,-0.005401806905865669
1772788685585566700,9.591566650390625,-0.0021127068903297186,0.007512531243264675,0.000006319954991340637
1772788685605599000,9.611598876953124,0.000773219857364893,0.03517649695277214,0.006027327384799719
1772788685625630000,9.6316298828125,0.0041936589404940605,-0.021096743643283844,-0.017537254840135574
1772788685645662000,9.651661865234376,0.007737243548035622,-0.04664593189954758,-0.015739839524030685
1772788685665693700,9.671693603515624,0.00372606934979558,0.004880265332758427,0.0007194704376161098
1772788685685726000,9.691725830078125,0.0006360823754221201,0.045585498213768005,-0.0027549786027520895
1772788685705758000,9.711758056640624,-0.003945587668567896,0.017784686759114265,-0.0005435342900454998
1772788685725789700,9.731789794921875,-0.0019087876426056027,-0.050539202988147736,-0.008181745186448097
1772788685745820700,9.751820556640626,0.0016547671984881163,-0.03725588694214821,-0.016598837450146675
1772788685765853000,9.77185302734375,0.003436849918216467,-0.002237832173705101,-0.032026756554841995
1772788685785884200,9.79188427734375,-0.01117755938321352,-0.0013035573065280914,-0.03502676263451576
1772788685805916400,9.81191650390625,-0.013025368563830853,0.004777539521455765,-0.021585967391729355
1772788685825948200,9.8319482421875,-0.010273762047290802,-0.004959431476891041,-0.014835120178759098
1772788685845980200,9.851980224609376,-0.020160557702183723,-0.06676904112100601,-0.04642016813158989
1772788685866012200,9.87201220703125,-0.028824228793382645,-0.05402437224984169,-0.058892153203487396
1772788685886043400,9.89204345703125,-0.02326607145369053,-0.0023888330906629562,-0.024557165801525116
1772788685906075100,9.9120751953125,-0.01088201254606247,0.018297726288437843,-0.017611997202038765
1772788685926107100,9.932107177734375,-0.009561536833643913,-0.036346614360809326,-0.04878576844930649
1772788685946139100,9.95213916015625,-0.012547975406050682,-0.034331053495407104,-0.070172019302845
1772788685966171400,9.97217138671875,-0.015831824392080307,-0.021267790347337723,-0.06341592967510223
1772788685986203100,9.992203125,-0.012304483912885189,0.008275944739580154,-0.038338806480169296
1772788686006235100,10.012235107421875,-0.020827429369091988,0.03390521928668022,-0.0001208004541695118
1772788686026266000,10.03226611328125,-0.022926609963178635,0.014017757028341293,-0.008587213233113289
1772788686046298400,10.05229833984375,-0.03786415606737137,-0.0255256537348032,-0.032855886965990067
1772788686066330000,10.072330078125,-0.03404761478304863,-0.00008413288742303848,-0.041879430413246155
1772788686086362000,10.092362060546876,-0.009765064343810081,-0.019013430923223495,-0.0420609712600708
1772788686106394400,10.112394287109375,0.00022689532488584518,0.018281327560544014,-0.003960191272199154
1772788686126426000,10.132426025390625,0.008210990577936172,0.034060023725032806,-0.0005566286854445934
1772788686146457000,10.15245703125,0.001280488446354866,0.015166192315518856,-0.044250134378671646
1772788686166489000,10.172489013671875,0.004356220364570618,-0.023002803325653076,-0.046407606452703476
1772788686186521300,10.192521240234376,0.010840642265975475,-0.017840761691331863,-0.0019753382075577974
1772788686206553300,10.21255322265625,0.007909520529210567,0.006828935816884041,0.012870497070252895
1772788686226585000,10.232585205078125,0.002227692399173975,0.033960651606321335,0.0086981737986207
1772788686246617000,10.2526171875,0.0021674148738384247,0.011507464572787285,-0.010983878746628761
1772788686266649300,10.2726494140625,-0.004993324633687735,0.008775139227509499,-0.01031458005309105
1772788686286680300,10.292680419921876,0.004289532080292702,0.01659763604402542,0.005442896857857704
1772788686306712000,10.312712158203125,0.0014667841605842113,0.008566763252019882,-0.008562044240534306
1772788686326744000,10.332744140625,0.0004109663423150778,-0.024364173412322998,-0.03007279708981514
1772788686346776300,10.3527763671875,-0.0072882818058133125,-0.005057394504547119,-0.01828262396156788
1772788686366808000,10.37280810546875,0.008844023570418358,0.038398049771785736,-0.010546145960688591
1772788686386840000,10.392840087890624,0.01086551882326603,0.04486306384205818,-0.013286403380334377
1772788686406872300,10.412872314453125,0.006970944814383984,0.06693963706493378,-0.03201624006032944
1772788686426903300,10.4329033203125,0.016531705856323242,0.09740026295185089,-0.03421596437692642
1772788686446935300,10.452935302734375,0.018674205988645554,0.1319045126438141,-0.011394585482776165
1772788686466967000,10.472967041015625,0.011126457713544369,0.13769865036010742,0.00001484667882323265
1772788686486999300,10.492999267578124,0.006746000610291958,0.08101505786180496,-0.018939362838864326
1772788686507031300,10.51303125,0.005077875219285488,0.03276591747999191,-0.02579576149582863
1772788686527063000,10.53306298828125,-0.0014735802542418242,0.0344315767288208,-0.018084755167365074
1772788686547095300,10.55309521484375,-0.0010862306226044893,0.0603431761264801,-0.021721966564655304
1772788686567126300,10.573126220703125,-0.008278662338852882,0.038841959089040756,-0.03635120019316673
1772788686587158300,10.593158203125,0.002002942143008113,-0.05608642101287842,-0.02827005833387375
1772788686607190000,10.61318994140625,-0.006995863746851683,-0.059693098068237305,0.002477467991411686
1772788686627222300,10.63322216796875,-0.021793045103549957,0.012109072878956795,0.01741740293800831
1772788686647254300,10.653254150390625,-0.020254237577319145,0.06305457651615143,0.013416711241006851
1772788686667286300,10.673286376953126,-0.010102804750204086,0.04109979048371315,0.0023500388488173485
1772788686687317200,10.693317138671874,-0.01631266623735428,-0.034007176756858826,0.009292230941355228
1772788686707349200,10.713349365234375,-0.02599017135798931,-0.06101346015930176,-0.0008183727040886879
1772788686727381200,10.73338134765625,-0.020207475870847702,-0.031931132078170776,-0.006722778547555208
1772788686747413200,10.753413330078125,-0.015811961144208908,0.019843194633722305,-0.015204635448753834
1772788686767445000,10.773445068359376,-0.0012327984441071749,0.0018807435408234596,-0.023564253002405167
1772788686787477200,10.793477294921875,0.00743552390486002,-0.03798171505331993,0.007815773598849773
1772788686807509500,10.813509521484375,0.002059697173535824,-0.048105113208293915,0.03420504182577133
1772788686827540500,10.83354052734375,0.00438388716429472,-0.030481571331620216,0.024859381839632988
1772788686847572200,10.853572265625,0.0027083498425781727,-0.050866201519966125,0.0029239030554890633
1772788686867604200,10.873604248046876,-0.0035672958474606276,-0.019045764580368996,0.012243546545505524
1772788686887636500,10.893636474609375,-0.0017651172820478678,0.040726639330387115,0.042519114911556244
1772788686907668500,10.91366845703125,-0.00952896662056446,0.013850660063326359,0.0342714823782444
1772788686927700200,10.9337001953125,-0.018433060497045517,-0.04932883754372597,-0.009158413857221603
1772788686947732200,10.953732177734375,-0.010336659848690033,-0.027118224650621414,-0.0015661423094570637
1772788686967763500,10.973763427734376,-0.00363896694034338,0.019896917045116425,0.014252413995563984
1772788686987795500,10.99379541015625,-0.006683865562081337,0.0011316323652863503,0.01207292452454567
1772788687007827200,11.0138271484375,-0.0066061969846487045,-0.00023673288524150848,0.010929764248430729
1772788687027859200,11.033859130859375,-0.008165822364389896,0.013077322393655777,0.025042209774255753
1772788687047891500,11.053891357421875,-0.008467026054859161,0.024261267855763435,0.02345789596438408
1772788687067923200,11.073923095703124,0.0016504183877259493,-0.0329015851020813,-0.023530254140496254
1772788687087955200,11.093955078125,0.004686358850449324,-0.04457592964172363,-0.04345566779375076
1772788687107986200,11.113986083984376,0.021060772240161896,0.004367564804852009,-0.0020749412942677736
1772788687128018400,11.134018310546875,0.029039179906249046,-0.02323213964700699,0.01401206199079752
1772788687148050400,11.154050537109375,0.007027528248727322,-0.05659135431051254,-0.021339181810617447
1772788687168082200,11.174082275390624,0.00968448631465435,-0.05308001860976219,-0.04322899505496025
1772788687188114400,11.194114501953125,0.0211758054792881,-0.025797944515943527,-0.03988698869943619
1772788687208146400,11.214146484375,0.01401644479483366,-0.055184558033943176,-0.021084539592266083
1772788687228178200,11.23417822265625,-0.009599040262401104,-0.06494713574647903,-0.01730804517865181
1772788687248209200,11.254209228515625,0.006015904247760773,0.05264519527554512,-0.03421809896826744
1772788687268241400,11.274241455078124,0.02153303101658821,0.11201029270887375,-0.05407404899597168
1772788687288273400,11.2942734375,-0.021150363609194756,0.010257111862301826,-0.08397211134433746
1772788687308305200,11.31430517578125,-0.02612953633069992,0.017055515199899673,-0.058378465473651886
1772788687328337400,11.33433740234375,-0.02302226796746254,0.052458278834819794,0.044676098972558975
1772788687348369400,11.354369384765626,-0.034676603972911835,0.04125698655843735,0.04187449812889099
1772788687368401400,11.3744013671875,-0.030047887936234474,-0.02039503864943981,0.003315519541501999
1772788687388432400,11.394432373046875,-0.031245777383446693,-0.046236224472522736,-0.01869923621416092
1772788687408464400,11.41446435546875,-0.02107391320168972,0.000749245285987854,0.012116290628910065
1772788687428496400,11.434496337890625,-0.028343748301267624,0.032696790993213654,0.03201964870095253
1772788687448528400,11.4545283203125,-0.04278331249952316,0.07156006991863251,0.0014621363952755928
1772788687468560100,11.47456005859375,-0.04949914664030075,0.11335411667823792,-0.03470687195658684
1772788687488592400,11.49459228515625,-0.027582034468650818,0.1416957825422287,-0.0796491801738739
1772788687508624400,11.514624267578125,-0.0071504982188344,0.17987506091594696,-0.09966661781072617
1772788687528655400,11.5346552734375,-0.026161741465330124,0.2290337085723877,-0.10309112071990967
1772788687548687000,11.55468701171875,-0.042183175683021545,0.22322389483451843,-0.10172345489263535
1772788687568719400,11.57471923828125,-0.06912805140018463,0.23234997689723969,-0.09435231983661652
1772788687588751400,11.59475146484375,-0.06367706507444382,0.3417295515537262,-0.07015589624643326
1772788687608783400,11.614783447265625,-0.07601205259561539,0.6398224234580994,0.0025683692656457424
1772788687628815400,11.6348154296875,-0.025243185460567474,0.6550565958023071,0.06415294855833054
1772788687648847400,11.654847412109374,-0.026020219549536705,0.3368224501609802,0.02754642441868782
1772788687668878300,11.67487841796875,0.02252179943025112,0.24539195001125336,-0.12904593348503113
1772788687688910300,11.694910400390626,0.1153591200709343,0.5745062828063965,-0.21015100181102753
1772788687708942300,11.7149423828125,0.19310449063777924,1.0590852499008179,-0.26757243275642395
1772788687728974300,11.734974365234375,0.3030255138874054,1.5009968280792236,-0.28116023540496826
1772788687749006300,11.75500634765625,0.3897222876548767,1.701309084892273,-0.3478420674800873
1772788687769038300,11.775038330078125,0.26680973172187805,1.984405279159546,-0.3626801669597626
1772788687789071000,11.795071044921874,-0.04542209953069687,2.2595043182373047,-0.3515258729457855
1772788687809102000,11.81510205078125,-0.28095361590385437,2.532416820526123,-0.25536131858825684
1772788687829134000,11.835134033203126,-0.19108113646507263,2.073528528213501,-0.5293567180633545
1772788687849166000,11.855166015625,-0.0028333112131804228,1.9086816310882568,-0.9292662143707275
1772788687869198000,11.875197998046875,-0.09395397454500198,2.7271173000335693,-0.9761196374893188
1772788687889230000,11.89522998046875,-0.6142838001251221,4.003749847412109,-0.9823918342590332
1772788687909262000,11.915261962890625,-0.9154515266418457,4.321858882904053,-1.2864131927490234
1772788687929294000,11.935294189453124,-0.5730027556419373,3.788839340209961,-1.4204074144363403
1772788687949325000,11.955324951171875,-0.43814605474472046,3.395949602127075,-1.176676630973816
1772788687969357000,11.975357177734375,-0.8461851477622986,2.8313205242156982,-1.0538102388381958
1772788687989389000,11.99538916015625,-1.6487847566604614,2.769556999206543,-1.330588459968567
1772788688009421000,12.015421142578125,-2.020591974258423,2.9661834239959717,-1.4962939023971558
1772788688029453000,12.035453125,-1.4504315853118896,2.970200300216675,-1.2381380796432495
1772788688049485000,12.055485107421875,-0.9782776832580566,2.4698548316955566,-1.0688426494598389
1772788688069517000,12.07551708984375,-1.2831450700759888,2.0898659229278564,-0.9217425584793091
1772788688089548000,12.095548095703125,-2.0183656215667725,2.1225740909576416,-0.989737868309021
1772788688109580000,12.115580078125,-2.605164051055908,2.507166862487793,-1.1506801843643188
1772788688129612000,12.135612060546874,-2.359898328781128,3.2148289680480957,-1.075982928276062
1772788688149644000,12.15564404296875,-1.7606443166732788,3.4282360076904297,-0.9003032445907593
1772788688169676000,12.175676025390626,-1.7943354845046997,2.801342010498047,-0.9209249019622803
1772788688189708000,12.1957080078125,-2.2209713459014893,2.232731342315674,-0.8010411858558655
1772788688209740300,12.215740234375,-2.6295032501220703,2.1622767448425293,-0.516771674156189
1772788688229771300,12.235771240234374,-2.673802614212036,1.9187418222427368,-0.4019913375377655
1772788688249803000,12.255802978515625,-2.1359140872955322,1.717142939567566,-0.2894339859485626
1772788688269835000,12.2758349609375,-1.9311035871505737,1.7611030340194702,0.04768506810069084
1772788688289867300,12.2958671875,-1.9432233572006226,1.218056321144104,0.2834289073944092
1772788688309899000,12.31589892578125,-2.1628456115722656,0.5741723775863647,0.40073078870773315
1772788688329931000,12.335930908203125,-2.199597120285034,0.3808721601963043,0.46790117025375366
1772788688349963300,12.35596337890625,-2.199014186859131,0.8706929683685303,0.6185081601142883
1772788688369994200,12.375994140625,-1.651555061340332,0.7221201658248901,0.38621023297309875
1772788688390026000,12.39602587890625,-1.455092430114746,0.3033764660358429,-0.15286575257778168
1772788688410060300,12.416060302734374,-1.4796128273010254,0.32709255814552307,0.020070752128958702
1772788688430092000,12.436092041015625,-1.4022749662399292,0.48426204919815063,0.36990609765052795
1772788688450124000,12.4561240234375,-1.2526286840438843,0.36055490374565125,0.41828206181526184
1772788688470156000,12.476156005859375,-1.05596923828125,-0.10245973616838455,0.1138557493686676
1772788688490188000,12.49618798828125,-0.9178394675254822,-0.3840619623661041,-0.1030338704586029
1772788688510219000,12.516218994140624,-0.7470400929450989,-0.2850022315979004,-0.05023452639579773
1772788688530251000,12.5362509765625,-0.46474698185920715,0.23291388154029846,0.07548083364963531
1772788688550283000,12.556282958984376,-0.3952757716178894,0.47431480884552,0.027499506250023842
1772788688570315000,12.57631494140625,-0.4904951751232147,0.5043097734451294,-0.09592074155807495
1772788688590347000,12.596346923828126,-0.6378068923950195,0.5755622386932373,-0.07885249704122543
1772788688610379000,12.61637890625,-0.6835188865661621,0.9009393453598022,0.09311912953853607
1772788688630411300,12.636411376953125,-0.6324338912963867,1.0518375635147095,0.1824067085981369
1772788688650442200,12.656442138671874,-0.6325975656509399,1.092557668685913,0.2288329303264618
1772788688670474000,12.676473876953125,-0.7314020991325378,0.9433686137199402,0.31542477011680603
1772788688690506000,12.696506103515626,-0.8102165460586548,0.8430346250534058,0.35352030396461487
1772788688710538200,12.716538330078125,-0.736916184425354,0.8444181680679321,0.3278455436229706
1772788688730570000,12.736570068359375,-0.6774283051490784,0.7810158729553223,0.2876838743686676
1772788688750602000,12.75660205078125,-0.6031284928321838,0.5971028804779053,0.21738818287849426
1772788688770634200,12.77663427734375,-0.5733733773231506,0.5267021059989929,0.20512701570987701
1772788688790664700,12.796664794921876,-0.5374202132225037,0.5357307195663452,0.2517726421356201
1772788688810696700,12.81669677734375,-0.46044403314590454,0.3390255570411682,0.2576162815093994
1772788688830728400,12.836728515625,-0.38299959897994995,0.31963181495666504,0.3014593720436096
1772788688850760400,12.856760498046874,-0.4101868271827698,0.33899110555648804,0.3358567953109741
1772788688870792700,12.876792724609375,-0.4307054281234741,0.2517862617969513,0.269720196723938
1772788688890824400,12.896824462890624,-0.3497227728366852,0.22917617857456207,0.18585386872291565
1772788688910856400,12.9168564453125,-0.3186488449573517,0.28396910429000854,0.10105331242084503
1772788688930887400,12.936887451171875,-0.3455542325973511,0.28540462255477905,-0.009826869703829288
1772788688950919700,12.956919677734374,-0.3090394139289856,0.40588754415512085,0.029558883979916573
1772788688970951700,12.97695166015625,-0.258425235748291,0.6034623384475708,0.1539381891489029
1772788688990983400,12.9969833984375,-0.22306087613105774,0.4805568754673004,0.14027191698551178
1772788689011015700,13.017015625,-0.18472127616405487,0.18564686179161072,0.0923907607793808
1772788689031047700,13.037047607421876,-0.046818800270557404,-0.02668394148349762,0.09278113394975662
1772788689051079400,13.057079345703125,0.038772519677877426,-0.23303890228271484,0.07876300811767578
1772788689071110400,13.0771103515625,0.13287532329559326,-0.17573226988315582,0.07818780839443207
1772788689091142700,13.097142578125,0.07889804989099503,-0.08299605548381805,0.035366930067539215
1772788689111174700,13.117174560546875,0.004244729410856962,-0.010612945072352886,-0.0798618346452713
1772788689131206400,13.137206298828126,0.022558268159627914,0.12716777622699738,-0.031157460063695908
1772788689151238700,13.15723876953125,0.05996343120932579,0.221611887216568,0.078348308801651
1772788689171270700,13.177270751953126,0.035547226667404175,0.13361328840255737,0.10035458207130432
1772788689191302700,13.197302734375,-0.008461041375994682,-0.07653073966503143,-0.007155007682740688
1772788689211333600,13.217333740234375,0.04639304429292679,-0.1196771115064621,-0.06426747143268585
1772788689231365600,13.23736572265625,0.1027277484536171,-0.03191598877310753,-0.034549351781606674
1772788689251397600,13.257397705078125,0.09855985641479492,-0.02948182262480259,-0.038346175104379654
1772788689271429600,13.2774296875,0.09453386068344116,-0.008531725034117699,-0.05235671252012253
1772788689291461400,13.29746142578125,0.10997325927019119,0.058626122772693634,0.017691127955913544
1772788689311493600,13.31749365234375,0.03321298211812973,0.047389063984155655,0.04440498352050781
1772788689331525600,13.337525634765624,-0.05280334874987602,0.06843242049217224,0.030534977093338966
1772788689351556600,13.357556640625,-0.05958256125450134,0.16614550352096558,-0.03240950033068657
1772788689371588400,13.37758837890625,-0.008821145631372929,0.10981903970241547,-0.05477845296263695
1772788689391620600,13.39762060546875,0.07856160402297974,0.0002779746428132057,-0.03604409471154213
1772788689411652600,13.417652587890625,0.11652283370494843,-0.051768556237220764,0.002985909581184387
1772788689431684600,13.4376845703125,0.07961529493331909,-0.12585344910621643,-0.009819813072681427
1772788689451716600,13.457716552734375,0.07189784944057465,-0.19517335295677185,-0.03519370034337044
1772788689471748600,13.47774853515625,0.08903887122869492,-0.13369420170783997,-0.04912323132157326
1772788689491780600,13.497780517578125,0.0348600372672081,-0.031979065388441086,-0.024855975061655045
1772788689511811600,13.5178115234375,-0.10531860589981079,-0.03978700190782547,0.008085150271654129
1772788689531843600,13.537843505859374,-0.12035857886075974,-0.004471920430660248,-0.04121013358235359
1772788689551875600,13.55787548828125,-0.05034510791301727,0.11209414899349213,-0.07741377502679825
1772788689571907600,13.577907470703124,0.02695561945438385,0.232134148478508,-0.009766640141606331
1772788689591939600,13.597939697265625,0.06666094064712524,0.18671554327011108,0.03544167801737785
1772788689611971600,13.6179716796875,0.07306637614965439,-0.03327370434999466,0.06143834441900253
1772788689632003600,13.638003662109375,0.07999972254037857,-0.17565718293190002,0.1016581580042839
1772788689652034600,13.65803466796875,0.08892862498760223,-0.19757449626922607,0.12769703567028046
1772788689672066800,13.67806689453125,0.107884980738163,-0.056766439229249954,0.07622643560171127
1772788689692098600,13.6980986328125,0.09955210983753204,-0.034149885177612305,-0.07228940725326538
1772788689712130600,13.718130615234376,0.0792299211025238,0.046207427978515625,-0.14881040155887604
1772788689732162600,13.73816259765625,0.09451321512460709,0.05103413760662079,-0.05895557999610901
1772788689752194600,13.758194580078126,0.02832864783704281,0.0057403892278671265,0.017092272639274597
1772788689772226600,13.7782265625,0.0002560813445597887,0.0049338676035404205,0.030349668115377426
1772788689792258000,13.798258056640625,0.026843499392271042,0.1185857504606247,0.017407190054655075
1772788689812290000,13.8182900390625,0.008777836337685585,0.19816811382770538,0.025189880281686783
1772788689832321800,13.83832177734375,-0.024572020396590233,0.1887160986661911,0.008380405604839325
1772788689852354000,13.85835400390625,-0.02424628660082817,0.19179107248783112,-0.004103159997612238
1772788689872386000,13.878385986328125,0.005812673829495907,0.2038029432296753,0.02765059657394886
1772788689892417800,13.898417724609375,0.03819500282406807,0.10125039517879486,0.04289306700229645
1772788689912449800,13.91844970703125,-0.018594367429614067,-0.003753366880118847,0.02270563878118992
1772788689932481000,13.93848095703125,-0.0485866516828537,0.047033991664648056,0.01746990904211998
1772788689952513000,13.958512939453126,-0.029246948659420013,0.20221562683582306,0.007781994063407183
1772788689972545000,13.978544921875,-0.011171212419867516,0.25227224826812744,-0.004343999549746513
1772788689992576800,13.99857666015625,-0.040091924369335175,0.2131723314523697,0.02349366806447506
1772788690012609000,14.018609130859375,-0.08196554332971573,0.2205890715122223,0.03904670476913452
1772788690032641000,14.03864111328125,-0.08530815690755844,0.20210115611553192,0.05242789536714554
1772788690052672800,14.0586728515625,-0.03950502723455429,0.06398513168096542,0.030012380331754684
1772788690072703700,14.078703857421875,-0.011886663734912872,-0.07552901655435562,0.028472181409597397
1772788690092736000,14.098736083984376,0.004892363213002682,-0.1824769675731659,0.03544717654585838
1772788690112768000,14.11876806640625,0.006168957334011793,-0.21598348021507263,0.04880630224943161
1772788690132799700,14.1387998046875,-0.05300991237163544,-0.12778009474277496,0.027441270649433136
1772788690152832000,14.15883203125,-0.07105066627264023,0.05094142258167267,0.012465297244489193
1772788690172864000,14.178864013671875,-0.07082033902406693,0.10623058676719666,0.011276773177087307
1772788690192896000,14.19889599609375,-0.07694851607084274,0.030351154506206512,0.01133478432893753
1772788690212928000,14.218927978515625,-0.06663300096988678,-0.1364395022392273,-0.02056194096803665
1772788690232959000,14.238958984375,-0.05630072206258774,-0.2435130476951599,-0.04257984086871147
1772788690252991000,14.258990966796874,-0.05924617499113083,-0.22933520376682281,-0.035727355629205704
1772788690273023000,14.27902294921875,-0.06697507947683334,-0.16923432052135468,-0.013102824799716473
1772788690293055000,14.299054931640624,-0.03826143220067024,-0.12802889943122864,0.035778164863586426
1772788690313087000,14.3190869140625,-0.04937704652547836,-0.10493697226047516,0.050066955387592316
1772788690333119000,14.339118896484376,-0.07299762219190598,-0.05535237491130829,0.07666230201721191
1772788690353150700,14.359150634765625,-0.04962950199842453,0.008895090781152248,0.0524454265832901
1772788690373182000,14.379181884765625,0.002055062912404537,0.033859942108392715,-0.03918764740228653
1772788690393214000,14.3992138671875,0.003698405809700489,0.015198181383311749,-0.0941392257809639
1772788690413246000,14.419245849609375,0.012248390354216099,-0.016273383051156998,-0.10815934836864471
1772788690433278000,14.43927783203125,0.03822442144155502,0.03879634290933609,-0.06280548870563507
1772788690453310000,14.45931005859375,0.03909986838698387,0.10130484402179718,-0.020804598927497864
1772788690473342000,14.479342041015625,0.02684645913541317,0.10853984951972961,0.03922327607870102
1772788690493374000,14.4993740234375,0.01558601576834917,0.02034984901547432,0.07150891423225403
1772788690513406000,14.519406005859375,0.0055094496347010136,-0.019154008477926254,0.03330599516630173
1772788690533437000,14.53943701171875,0.024986883625388145,-0.07159213721752167,0.01612985134124756
1772788690553469000,14.559468994140625,0.03633878007531166,-0.03204694390296936,0.0709899440407753
1772788690573501000,14.5795009765625,0.01997317001223564,-0.05198899656534195,0.08069711923599243
1772788690593533000,14.599532958984375,0.018504280596971512,-0.06556609272956848,0.08043578267097473
1772788690613565000,14.61956494140625,0.006345447618514299,-0.02485591359436512,0.094294473528862
1772788690633597000,14.639596923828124,-0.029294148087501526,0.04787904769182205,0.08186345547437668
1772788690653629200,14.659629150390625,-0.04578565061092377,0.06168796122074127,0.035338252782821655
1772788690673660200,14.67966015625,-0.011294065043330193,0.028105616569519043,-0.028403082862496376
1772788690693692000,14.69969189453125,0.0209382064640522,0.0261751227080822,-0.06461551040410995
1772788690713724000,14.719723876953125,0.001323680393397808,0.006648407317698002,-0.05511006340384483
1772788690733756200,14.739756103515624,-0.012382999062538147,0.0031435731798410416,-0.07083745300769806
1772788690753788000,14.759787841796875,0.01005458738654852,0.039614614099264145,-0.04045069217681885
1772788690773820000,14.77981982421875,0.024120714515447617,0.07192708551883698,0.012511191889643669
1772788690793851600,14.7998515625,0.011803156696259975,0.02273896150290966,0.009062575176358223
1772788690813882600,14.819882568359375,-0.008057023398578167,-0.042780354619026184,-0.00896333996206522
1772788690833915000,14.839914794921874,0.002813139697536826,-0.001628125086426735,-0.011773730628192425
1772788690853946600,14.859946533203125,-0.002507323632016778,0.052287839353084564,0.001887753140181303
1772788690873978600,14.879978515625,-0.031059056520462036,0.028058547526597977,-0.058841951191425323
1772788690894011000,14.900010986328125,-0.0667133629322052,0.010221041738986969,-0.07222171127796173
1772788690914042600,14.920042724609376,-0.04315964877605438,0.039054401218891144,-0.036833275109529495
1772788690934074600,14.94007470703125,-0.010499078780412674,0.09361674636602402,0.019532127305865288
1772788690954107000,14.96010693359375,-0.017902666702866554,0.020535878837108612,0.03734920546412468
1772788690974137900,14.980137939453124,-0.011385895311832428,-0.05525019019842148,0.023355893790721893
1772788690994169600,15.000169677734375,0.011674259789288044,-0.02072249725461006,0.011510553769767284
1772788691014201600,15.02020166015625,0.004937684163451195,0.0002239905297756195,-0.030251940712332726
1772788691034233900,15.04023388671875,-0.020258106291294098,-0.015320541337132454,-0.07249061018228531
1772788691054265900,15.060265869140625,-0.021211331710219383,-0.01410895399749279,-0.08314555883407593
1772788691074297600,15.080297607421874,0.010634295642375946,-0.0071161407977342606,-0.0462704561650753
1772788691094329600,15.10032958984375,0.03861769288778305,-0.007043784484267235,0.0014137104153633118
1772788691114361900,15.12036181640625,0.023311050608754158,-0.035942234098911285,0.01785757578909397
1772788691134392800,15.140392822265625,0.01009672787040472,-0.08636808395385742,0.02201876789331436
1772788691154424600,15.160424560546875,0.028358619660139084,-0.02933158352971077,0.03693504258990288
1772788691174456600,15.18045654296875,0.02643822878599167,0.021212324500083923,0.04236602410674095
1772788691194488800,15.20048876953125,-0.0065569281578063965,-0.0010119788348674774,-0.013621118851006031
1772788691214520600,15.2205205078125,-0.021494142711162567,-0.017240682616829872,-0.07731460779905319
1772788691234552600,15.240552490234375,-0.01334239449352026,-0.005407149903476238,-0.07090256363153458
1772788691254584800,15.260584716796876,0.006334792822599411,0.06119869649410248,0.00875165220350027
1772788691274615800,15.28061572265625,0.008450942113995552,0.01617061346769333,0.014302432537078857
1772788691294647800,15.300647705078125,0.014756681397557259,-0.04098553955554962,-0.026282720267772675
1772788691314679600,15.320679443359374,0.05537020042538643,-0.03834798187017441,-0.011245759204030037
1772788691334711800,15.3407119140625,0.049717310816049576,-0.020180009305477142,0.04888877272605896
1772788691354743800,15.360743896484376,0.0002254077699035406,-0.06958293914794922,0.04865335300564766
1772788691374775600,15.380775634765625,-0.005796547047793865,-0.0762331560254097,0.015935085713863373
1772788691394807800,15.400807861328126,0.028203263878822327,-0.04268725961446762,-0.0005147736519575119
1772788691414839800,15.42083984375,0.03786793723702431,-0.053838979452848434,0.014314994215965271
1772788691434870800,15.440870849609375,-0.02229703962802887,-0.08917296677827835,0.010705744847655296
1772788691454902500,15.460902587890626,-0.04056815803050995,-0.05350959300994873,-0.024956688284873962
1772788691474934500,15.4809345703125,-0.022274494171142578,0.02715478092432022,-0.02382710948586464
1772788691494966800,15.500966796875,-0.008697230368852615,-0.013583437539637089,-0.02673013135790825
1772788691514998800,15.520998779296875,0.004999765194952488,-0.09408804774284363,-0.045154452323913574
1772788691535030500,15.541030517578125,0.03851688653230667,-0.14856335520744324,-0.03775375708937645
1772788691555062800,15.561062744140624,0.034343887120485306,-0.15977758169174194,-0.009433876723051071
1772788691575093800,15.58109375,0.027107983827590942,-0.18397872149944305,0.01161370612680912
1772788691595125800,15.601125732421876,0.03879918158054352,-0.13009673357009888,0.025760507211089134
1772788691615157500,15.621157470703125,0.05443934351205826,-0.11198784410953522,0.0172339528799057
1772788691635189800,15.641189697265625,0.04345070570707321,-0.13401374220848083,0.053203269839286804
1772788691655221800,15.6612216796875,0.02324160560965538,-0.14791259169578552,0.059855006635189056
1772788691675253500,15.68125341796875,0.02719149738550186,-0.16993167996406555,0.025676662102341652
1772788691695285800,15.70128564453125,0.0296711977571249,-0.1519920825958252,-0.0014085748698562384
1772788691715317800,15.72131787109375,0.020401157438755035,-0.05212664231657982,0.017233729362487793
1772788691735348700,15.7413486328125,0.012295747175812721,0.03773529455065727,0.04005200415849686
1772788691755380700,15.761380615234375,-0.0035647861659526825,0.04360022395849228,0.030832497403025627
1772788691775412700,15.781412841796875,-0.022539731115102768,-0.011263139545917511,0.011276282370090485
1772788691795444000,15.80144384765625,-0.0132666677236557,-0.060789525508880615,0.013308098539710045
1772788691815476000,15.82147607421875,-0.005312916822731495,-0.04139848053455353,0.025582652539014816
1772788691835508000,15.841508056640626,0.004850581753998995,-0.019972242414951324,0.02881409041583538
1772788691855540000,15.8615400390625,-0.005055827088654041,-0.006304108537733555,0.02660384215414524
1772788691875572000,15.881572021484375,-0.01015070453286171,-0.040166161954402924,0.012762593105435371
1772788691895603000,15.90160302734375,-0.008967635221779346,-0.04424966126680374,0.013479427434504032
1772788691915635000,15.921635009765625,-0.01377074047923088,-0.05788417160511017,-0.018257906660437584
1772788691935667000,15.9416669921875,-0.018225565552711487,-0.09194432944059372,-0.03735024109482765
1772788691955699000,15.961698974609375,-0.014171108603477478,-0.1962418109178543,-0.02355693094432354
1772788691975731000,15.98173095703125,-0.04587369039654732,-0.26724499464035034,0.0317569263279438
1772788691995761000,16.001760986328126,-0.04584987834095955,-0.35127151012420654,0.028533613309264183
1772788692015793000,16.02179296875,-0.05109201371669769,-0.27047303318977356,0.049802593886852264
1772788692035825000,16.041824951171876,-0.07174859941005707,-0.1250661015510559,0.08991628140211105
1772788692055855900,16.06185595703125,-0.07263346016407013,-0.014494351111352444,0.06586384773254395
1772788692075887900,16.081887939453125,-0.04644908756017685,0.0023036133497953415,-0.0034243217669427395
1772788692095919900,16.101919921875,-0.013050511479377747,0.02910752408206463,-0.0348077230155468
1772788692115952000,16.1219521484375,-0.004922749008983374,-0.003871569409966469,-0.0600837804377079
1772788692135983900,16.14198388671875,-0.013881150633096695,0.00974021852016449,-0.0972447320818901
1772788692156015900,16.162015869140625,-0.022080399096012115,0.035125017166137695,-0.09526844322681427
1772788692176048000,16.182048095703124,-0.01124954130500555,0.0726812556385994,-0.08595599234104156
1772788692196079000,16.2020791015625,0.01269562914967537,0.08229678869247437,-0.05977991595864296
1772788692216110800,16.22211083984375,0.036933042109012604,0.06298579275608063,-0.018532300367951393
1772788692236142800,16.242142822265624,0.0232433769851923,0.020714309066534042,-0.012587415054440498
1772788692256175000,16.262175048828126,-0.01400226354598999,0.0031707361340522766,-0.03481628745794296
1772788692276206800,16.282206787109374,-0.016416339203715324,0.042755577713251114,-0.053868368268013
1772788692296238800,16.30223876953125,0.021159453317523003,0.07164034247398376,-0.028702469542622566
1772788692316270800,16.322270751953123,0.015234202146530151,0.05159956216812134,0.008114401251077652
1772788692336303000,16.34230322265625,0.015049612149596214,-0.02064180187880993,0.0008272379636764526
1772788692356334000,16.362333984375,-0.006300792098045349,-0.05497113615274429,-0.03952093794941902
1772788692376365800,16.38236572265625,-0.005794307682663202,0.013342496007680893,-0.03536653891205788
1772788692396397800,16.402397705078126,0.010343540459871292,0.07903365790843964,-0.002086792839691043
1772788692416430000,16.42243017578125,0.012390539981424809,0.05466912314295769,-0.004363085143268108
1772788692436461800,16.4424619140625,0.0061427028849720955,-0.004513667896389961,-0.03194704279303551
1772788692456493800,16.462493896484375,0.006796414032578468,-0.039941199123859406,-0.035278256982564926
1772788692476526000,16.482526123046874,0.017215844243764877,-0.017847197130322456,-0.0028125487733632326
1772788692496557800,16.502557861328125,0.024236861616373062,0.05117139592766762,0.05857451260089874
1772788692516588800,16.5225888671875,0.010401880368590355,0.04586067423224449,0.053267497569322586
1772788692536620800,16.542620849609374,-0.0062557547353208065,0.005888191983103752,0.004167463630437851
1772788692556653000,16.562653076171873,-0.010202417150139809,0.0005770456045866013,-0.02943727932870388
1772788692576685000,16.58268505859375,0.014860637485980988,0.013058711774647236,-0.023545347154140472
1772788692596716800,16.602716796875,0.013129159808158875,0.0029543759301304817,0.0052206991240382195
1772788692616749000,16.6227490234375,0.024442080408334732,0.023063521832227707,0.0615302175283432
1772788692636781000,16.642781005859376,0.015219036489725113,0.03625606372952461,0.07112852483987808
1772788692656812800,16.662812744140624,0.010229965671896935,-0.0018390901386737823,0.01758473366498947
1772788692676844800,16.6828447265625,-0.006772501394152641,-0.041875842958688736,-0.019038256257772446
1772788692696876000,16.7028759765625,-0.008007816039025784,-0.05375683680176735,-0.018298741430044174
1772788692716908000,16.722907958984376,0.006493816617876291,0.0001622755080461502,0.023395752534270287
1772788692736940000,16.74293994140625,-0.009815679863095284,0.04137770086526871,0.05696440860629082
1772788692756971800,16.7629716796875,-0.033245839178562164,0.04111575335264206,0.0526268295943737
1772788692777004000,16.783004150390624,-0.042054682970047,0.024136429652571678,0.04436135292053223
1772788692797036500,16.80303662109375,-0.030566170811653137,0.021882299333810806,0.05170595645904541
1772788692817068800,16.82306884765625,-0.006504414603114128,0.033630065619945526,0.06538994610309601
1772788692837100800,16.843100830078125,-0.016236968338489532,0.0627942606806755,0.08813866227865219
1772788692857131800,16.8631318359375,-0.027287080883979797,0.006492954678833485,0.09453202784061432
1772788692877163800,16.883163818359375,-0.03866930678486824,-0.04080813750624657,0.06312310695648193
1772788692897195800,16.90319580078125,-0.010372531600296497,-0.06736951321363449,0.013101346790790558
1772788692917227800,16.923227783203124,0.017717737704515457,-0.03435487672686577,0.020503025501966476
1772788692937259800,16.943259765625,-0.008073345758020878,-0.013659527525305748,0.00846895668655634
1772788692957291500,16.96329150390625,-0.02198701538145542,0.006237254478037357,-0.0449679009616375
1772788692977323800,16.98332373046875,-0.013302383944392204,0.02190234512090683,-0.029171451926231384
1772788692997354800,17.003354736328124,-0.008909812197089195,-0.01161498948931694,0.006194262765347958
1772788693017386800,17.02338671875,-0.008313124068081379,-0.03376418724656105,0.004246869124472141
1772788693037418500,17.04341845703125,0.013582885265350342,-0.044696543365716934,-0.03581777215003967
1772788693057450800,17.06345068359375,0.0009680392686277628,0.0023964419960975647,-0.033185236155986786
1772788693077482800,17.083482666015627,-0.00662941113114357,0.0454818457365036,-0.019452998414635658
1772788693097514800,17.1035146484375,-0.0039048250764608383,0.02701801434159279,-0.028750184923410416
1772788693117546800,17.123546630859376,-0.009161199443042278,-0.03257988393306732,-0.017612000927329063
1772788693137578800,17.143578857421875,-0.00554053857922554,-0.02740996703505516,0.010820882394909859
1772788693157610800,17.16361083984375,0.009680665098130703,-0.010898558422923088,0.018660252913832664
1772788693177641700,17.183641845703125,0.009433947503566742,-0.005542481318116188,-0.03328830003738403
1772788693197673700,17.203673828125,0.008651385083794594,-0.013761642388999462,-0.04076578840613365
1772788693217705700,17.223705810546875,0.03127137944102287,0.0218488909304142,-0.00008298642933368683
1772788693237737700,17.24373779296875,0.019441133365035057,-0.0005021011456847191,0.004875554703176022
1772788693257769500,17.26376953125,0.0022793631069362164,-0.035346291959285736,-0.025965359061956406
1772788693277801700,17.2838017578125,0.014291239902377129,-0.027912091463804245,-0.020250793546438217
1772788693297833700,17.303833740234374,0.013317913748323917,0.01917664334177971,-0.011480692774057388
1772788693317865700,17.32386572265625,-0.004524465650320053,0.06267990916967392,-0.00908304937183857
1772788693337896700,17.343896728515624,-0.0012162539642304182,0.12688130140304565,0.004649450536817312
1772788693357928700,17.3639287109375,0.017894446849822998,0.20889787375926971,0.025148246437311172
1772788693377960700,17.383960693359374,-0.003763222834095359,0.1700419783592224,0.010616441257297993
1772788693397992700,17.40399267578125,-0.015214769169688225,0.01166017446666956,-0.012377290986478329
1772788693418024700,17.424024658203123,-0.020386330783367157,-0.07395653426647186,-0.0002972381189465523
1772788693438056700,17.444056640625,-0.030551740899682045,-0.0062560588121414185,0.0037266211584210396
1772788693458088700,17.464088623046877,-0.018749581649899483,0.05365434288978577,0.004505240358412266
1772788693478120700,17.48412060546875,-0.027989795431494713,0.027642903849482536,-0.029367104172706604
1772788693498151700,17.504151611328126,-0.030930019915103912,-0.04818946495652199,-0.05457650125026703
1772788693518183700,17.52418359375,-0.019366120919585228,-0.037728454917669296,-0.021181436255574226
1772788693538215700,17.544215576171876,0.00035577849484980106,-0.009054351598024368,0.016872871667146683
1772788693558247700,17.56424755859375,-0.006153159774839878,-0.034380022436380386,0.0014259163290262222
1772788693578279700,17.58427978515625,-0.008851411752402782,-0.06615328788757324,-0.041990622878074646
1772788693598311700,17.604311767578125,-0.03026980720460415,-0.06857113540172577,-0.03850298747420311
1772788693618343700,17.62434375,-0.015204506926238537,-0.041837144643068314,-0.0500851646065712
1772788693638375700,17.644375732421874,0.007435964420437813,0.017756139859557152,-0.042627159506082535
1772788693658406700,17.66440673828125,0.012175388634204865,0.026729397475719452,-0.024349398910999298
1772788693678438700,17.684438720703124,0.005426264833658934,-0.014908854849636555,-0.01976805180311203
1772788693698470700,17.704470703125,0.01134416926652193,-0.06942053139209747,-0.026818638667464256
1772788693718502700,17.724502685546874,0.02779948152601719,-0.049595195800065994,-0.02061120793223381
1772788693738534700,17.74453466796875,0.03263789787888527,-0.0038887346163392067,-0.023049334064126015
1772788693758566700,17.764566650390623,0.01572207733988762,0.012671138159930706,-0.019172392785549164
1772788693778599000,17.784598876953126,0.02960883267223835,-0.0024868063628673553,-0.0053246645256876945
1772788693798630700,17.804630615234377,0.02486862614750862,0.011007202789187431,0.03634346276521683
1772788693818661600,17.82466162109375,0.01700832135975361,-0.03309859335422516,0.004346072673797607
1772788693838693600,17.844693603515626,-0.0052068596705794334,-0.04029582068324089,-0.025834821164608
1772788693858725600,17.8647255859375,-0.003168257186189294,-0.01931699551641941,-0.02552798017859459
1772788693878757600,17.884757568359376,-0.0005275604780763388,0.029888708144426346,-0.01183338649570942
1772788693898789600,17.90478955078125,-0.007120152935385704,0.05657581984996796,0.022465111687779427
1772788693918821600,17.924821533203126,-0.014240804128348827,0.029976826161146164,0.0176740400493145
1772788693938853400,17.944853271484376,-0.012164022773504257,-0.05409616976976395,-0.014989719726145267
1772788693958885600,17.9648857421875,-0.019904235377907753,-0.060761261731386185,-0.03500150889158249
1772788693978917600,17.984917724609375,-0.006201064679771662,0.030985698103904724,-0.001437869155779481
1772788693998948600,18.004948486328125,0.005977633409202099,0.0812496691942215,0.04410480335354805
1772788694018980600,18.024980712890624,-0.009512674063444138,0.0248344074934721,0.019167274236679077
1772788694039012600,18.0450126953125,-0.019775133579969406,-0.03945118188858032,-0.019047534093260765
1772788694059044600,18.065044677734374,-0.008504558354616165,-0.025718815624713898,-0.012182481586933136
1772788694079076600,18.08507666015625,-0.01149953342974186,0.01193283498287201,0.0027761831879615784
1772788694099108600,18.105108642578124,-0.01735471375286579,0.03649955242872238,0.002457669470459223
1772788694119140600,18.125140625,-0.02347191609442234,0.02822643518447876,-0.018414456397294998
1772788694139172600,18.145172607421873,-0.027900878340005875,0.0028899656608700752,-0.04247114434838295
1772788694159203600,18.16520361328125,0.000021755695343017578,0.07658492028713226,0.004427964799106121
1772788694179235600,18.185235595703126,0.0682259202003479,0.24089545011520386,0.09890112280845642
1772788694199267600,18.205267578125,0.07365566492080688,0.3653232157230377,0.18892629444599152
1772788694219299600,18.225299560546876,0.04149940609931946,0.27022624015808105,0.13789920508861542
1772788694239331800,18.245331787109375,0.021909398958086967,0.07682257890701294,0.08104214072227478
1772788694259363600,18.265363525390626,0.02865275926887989,-0.05054914206266403,0.03500198572874069
1772788694279395600,18.2853955078125,0.0383242629468441,-0.09526092559099197,-0.02728167176246643
1772788694299427600,18.305427490234376,0.03950539231300354,-0.03095177933573723,-0.041091181337833405
1772788694319459600,18.32545947265625,0.024272672832012177,0.027741020545363426,-0.03720221668481827
1772788694339490600,18.345490478515625,0.02458142675459385,0.06567900627851486,-0.02623487263917923
1772788694359522600,18.3655224609375,0.025535354390740395,0.0262339785695076,0.00584001699462533
1772788694379554600,18.385554443359375,0.030418936163187027,0.011288313195109367,0.03269302472472191
1772788694399586600,18.405586669921874,0.050292931497097015,0.004746452905237675,0.0754973441362381
1772788694419618600,18.42561865234375,0.04287223517894745,-0.007792777381837368,0.0507076233625412
1772788694439650600,18.445650634765624,0.017331471666693687,-0.02577349543571472,-0.011695344001054764
1772788694459682800,18.465682861328126,-0.00021853996440768242,-0.023489370942115784,-0.03269587829709053
1772788694479714600,18.485714599609373,-0.0017267043003812432,-0.01781538873910904,0.010215412825345993
1772788694499745500,18.50574560546875,0.009716163389384747,0.038060612976551056,0.046784479171037674
1772788694519777500,18.525777587890627,0.004003807902336121,0.029773391783237457,0.015262147411704063
1772788694539809800,18.545809814453126,-0.02836553566157818,0.004716846160590649,-0.02034600079059601
1772788694559841500,18.565841552734376,-0.03370114788413048,-0.020435141399502754,-0.04703429341316223
1772788694579873500,18.58587353515625,-0.015798721462488174,-0.05933571234345436,-0.05999980494379997
1772788694599905800,18.60590576171875,-0.007290502078831196,-0.034265317022800446,-0.020313024520874023
1772788694619937500,18.6259375,-0.0034347297623753548,0.017370518296957016,0.025487132370471954
1772788694639969500,18.645969482421876,-0.012825490906834602,0.031852297484874725,0.01783209666609764
1772788694660000500,18.66600048828125,-0.028586750850081444,0.0062506431713700294,-0.03195104002952576
1772788694680032800,18.68603271484375,-0.01238970272243023,0.0069720130413770676,-0.04407054930925369
1772788694700064800,18.706064697265624,-0.0051629189401865005,0.022041214630007744,-0.01843811199069023
1772788694720096500,18.726096435546875,-0.016348131000995636,-0.008342569693922997,-0.019145315513014793
1772788694740128500,18.74612841796875,-0.018375329673290253,-0.018938861787319183,-0.023256393149495125
1772788694760160800,18.766160888671877,-0.012388857081532478,-0.008628555573523045,-0.006555178202688694
1772788694780192500,18.786192626953124,-0.0024718092754483223,-0.018318388611078262,-0.006362054962664843
1772788694800224500,18.806224609375,0.004649029113352299,-0.0058068158105015755,0.005248218309134245
1772788694820256500,18.826256591796874,-0.002991250716149807,-0.0025104042142629623,-0.001104618888348341
1772788694840287700,18.846287841796876,-0.01529500912874937,0.01806625723838806,-0.021499594673514366
1772788694860319500,18.866319580078127,-0.014306050725281239,0.07169722020626068,-0.0026645660400390625
1772788694880351500,18.8863515625,-0.014556372538208961,0.07163797318935394,0.010160641744732857
1772788694900383500,18.906383544921876,-0.014588315039873123,0.018338844180107117,0.021394120529294014
1772788694920415700,18.926415771484375,-0.01536310650408268,0.005130477249622345,0.04591260105371475
1772788694940447500,18.946447509765626,-0.02047007903456688,0.052688486874103546,0.055122166872024536
1772788694960479500,18.9664794921875,-0.005534804426133633,0.0857822597026825,0.07659870386123657
1772788694980511700,18.98651171875,0.0065070693381130695,0.06252753734588623,0.06405831128358841
1772788695000543500,19.00654345703125,0.013661197386682034,0.02992899902164936,0.04428505524992943
1772788695020574500,19.026574462890625,0.006794815883040428,0.031061287969350815,0.038162317126989365
1772788695040606500,19.0466064453125,0.01568259857594967,0.0404784232378006,0.04609564691781998
1772788695060638700,19.066638671875,0.020182041451334953,0.05096667259931564,-0.0006926725618541241
1772788695080670700,19.086670654296874,0.018972935155034065,0.023811830207705498,-0.022084470838308334
1772788695100702500,19.106702392578125,0.02991877868771553,-0.019171738997101784,-0.030040886253118515
1772788695120734500,19.126734375,0.03156885504722595,-0.028420139104127884,-0.015189500525593758
1772788695140766700,19.1467666015625,0.026733573526144028,-0.04765094444155693,0.0024147932417690754
1772788695160798500,19.166798583984374,0.015554720535874367,-0.012211116030812263,0.02781575545668602
1772788695180829400,19.186829345703124,0.012512123212218285,-0.011870120652019978,-0.0013014706782996655
1772788695200861400,19.206861328125,0.0032139928080141544,-0.04544467106461525,-0.04916757345199585
1772788695220893700,19.226893798828126,0.010690238326787949,-0.05313248932361603,-0.06021241471171379
1772788695240925400,19.246925537109377,0.013124853372573853,0.0010974984616041183,-0.020517952740192413
1772788695260957400,19.26695751953125,0.002181657589972019,0.05019340664148331,-0.007823729887604713
1772788695280989700,19.28698974609375,-0.03247921168804169,0.019076310098171234,-0.0058899205178022385
1772788695301021700,19.307021728515625,-0.029681984335184097,0.012528094463050365,-0.035210348665714264
1772788695321053400,19.327053466796876,-0.004823615308851004,-0.01754774898290634,-0.06655699759721756
1772788695341085700,19.347085693359375,-0.014632335864007473,-0.024002639576792717,-0.026018314063549042
1772788695361116700,19.36711669921875,-0.0003314891364425421,0.0006779367104172707,0.02104511298239231
1772788695381148700,19.387148681640625,0.009268956258893013,0.03570093959569931,0.06692419201135635
1772788695401180400,19.407180419921875,-0.004669747315347195,-0.003577340394258499,0.02825983799993992
1772788695421212700,19.427212646484374,-0.02846258506178856,-0.05397716537117958,-0.0326552651822567
1772788695441244700,19.44724462890625,-0.017030056565999985,-0.05606671795248985,-0.0593990832567215
1772788695461276400,19.4672763671875,0.015237678773701191,-0.005123225040733814,-0.01379307359457016
1772788695481308400,19.487308349609375,0.013424708507955074,0.03490123152732849,0.03503425419330597
1772788695501340700,19.507340576171874,-0.0011046831496059895,0.027538692578673363,0.030127111822366714
1772788695521372700,19.52737255859375,0.003595154033973813,-0.004569513723254204,0.011268338188529015
1772788695541403600,19.547403564453123,0.0061493609100580215,-0.06498739868402481,-0.007978327572345734
1772788695561435400,19.567435302734374,0.002822696231305599,-0.05809563398361206,-0.001633788924664259
1772788695581467600,19.587467529296877,0.0084641482681036,0.01422015018761158,0.0404512993991375
1772788695601499600,19.607499755859376,0.01512344554066658,0.027247272431850433,0.04023846983909607
1772788695621531400,19.627531494140626,0.003847527550533414,-0.02000991441309452,0.007116558495908976
1772788695641563600,19.647563720703126,0.000831106211990118,-0.06696704030036926,-0.012457319535315037
1772788695661595600,19.667595703125,0.01571906916797161,-0.03385630249977112,-0.004903086461126804
1772788695681627400,19.68762744140625,0.009538373909890652,0.008835313841700554,0.026902291923761368
1772788695701659600,19.70765966796875,-0.0083969347178936,0.015283134765923023,0.04333746060729027
1772788695721690600,19.727690673828125,-0.014231858775019646,-0.02522822842001915,0.014140868559479713
1772788695741722600,19.74772265625,-0.012828826904296875,-0.05519327521324158,-0.024345315992832184
1772788695761754600,19.767754638671875,-0.0021199898328632116,-0.03785146027803421,-0.019832899793982506
1772788695781786600,19.78778662109375,-0.002211884595453739,-0.008795617148280144,-0.00818689540028572
1772788695801817900,19.80781787109375,-0.008443102240562439,0.02372276410460472,0.03836515545845032
1772788695821850000,19.82785009765625,0.000063285231590271,0.006058778613805771,0.05470604822039604
1772788695841882000,19.847882080078126,0.00032587279565632343,-0.04015548527240753,0.02010435238480568
1772788695861913900,19.867913818359376,-0.0005063179414719343,-0.021316424012184143,-0.015719957649707794
1772788695881945900,19.88794580078125,-0.008069632574915886,-0.0013230061158537865,-0.021240204572677612
1772788695901977000,19.90797705078125,-0.022959820926189423,-0.0012587830424308777,-0.020041292533278465
1772788695922009000,19.928009033203125,-0.011027276515960693,-0.01515429001301527,-0.003945191390812397
1772788695942040800,19.948040771484376,0.0011551501229405403,0.01716141402721405,0.023781955242156982
1772788695962072800,19.96807275390625,-0.011565642431378365,-0.005987684242427349,0.017107540741562843
1772788695982105000,19.98810498046875,-0.03239112347364426,-0.00935560092329979,-0.002078892197459936
1772788696002136800,20.00813671875,-0.023365044966340065,-0.017709320411086082,-0.020057937130331993
1772788696022168800,20.0281689453125,-0.014375997707247734,-0.03623198717832565,0.0014123781584203243
1772788696042201000,20.048201171875,-0.013336002826690674,-0.03327329456806183,0.027669236063957214
1772788696062233000,20.068233154296873,-0.007248266600072384,0.003752141259610653,0.03065437264740467
1772788696082264000,20.08826416015625,-0.01431910041719675,-0.011185948736965656,0.007020551711320877
1772788696102295800,20.1082958984375,-0.019149024039506912,-0.02103409171104431,-0.02088937535881996
1772788696122328000,20.128328125,0.008174224756658077,-0.023950746282935143,-0.016623791307210922
1772788696142360000,20.148360107421876,0.00236027711071074,0.004697782918810844,0.02840862050652504
1772788696162391800,20.168391845703123,-0.0009873001836240292,0.015263382345438004,0.03712035343050957
1772788696182423800,20.188423828125,0.015381850302219391,-0.027285858988761902,0.028920745477080345
1772788696202456000,20.2084560546875,0.0011908363085240126,-0.03196895122528076,0.03409136086702347
1772788696222487800,20.22848779296875,-0.007204403169453144,-0.03834768384695053,-0.027379587292671204
1772788696242519800,20.248519775390626,-0.013092041015625,-0.03543776273727417,-0.07433547079563141
1772788696262550800,20.26855078125,-0.016861621290445328,0.02011578157544136,-0.04187615215778351
1772788696282583000,20.2885830078125,-0.015223212540149689,0.06499582529067993,0.015607869252562523
1772788696302615000,20.308614990234375,-0.010687535628676414,0.019762102514505386,0.02446066215634346
1772788696322646800,20.328646728515626,-0.009331799112260342,-0.03774315118789673,-0.0032451790757477283
1772788696342679000,20.348678955078125,-0.017722871154546738,-0.04150642454624176,-0.009295081719756126
1772788696362711000,20.3687109375,0.005969142075628042,-0.003542635589838028,-0.0020310000982135534
1772788696382742800,20.38874267578125,0.014551945962011814,0.01188923604786396,0.0026686806231737137
1772788696402775000,20.408775146484373,-0.004681872669607401,0.007002444006502628,0.0030038845725357533
1772788696422808800,20.428808837890625,-0.0010907561518251896,-0.008448449894785881,-0.005034956615418196
1772788696442839800,20.44883984375,-0.0005263541825115681,0.020925035700201988,0.019889479503035545
1772788696462872000,20.4688720703125,0.002205641008913517,0.01708683744072914,0.01762082241475582
1772788696482904000,20.488904052734377,-0.0126168392598629,-0.01919548586010933,-0.007485153153538704
1772788696502935800,20.508935791015624,-0.016416793689131737,-0.040963295847177505,-0.03239356353878975
1772788696522968000,20.528968017578126,-0.004763662815093994,-0.014636565931141376,-0.03835252299904823
1772788696543000000,20.549,0.0068397303111851215,0.03882772475481033,0.015915509313344955
1772788696563031800,20.56903173828125,0.004942446481436491,0.04526723176240921,0.058186762034893036
1772788696583063800,20.589063720703123,0.003061613067984581,-0.021687213331460953,0.027544867247343063
1772788696603096000,20.609095947265626,0.0021759241353720427,-0.07740731537342072,-0.03436119854450226
1772788696623128000,20.629128173828125,-0.006400660611689091,-0.04176318645477295,-0.04037528112530708
1772788696643159000,20.649158935546875,0.004953459836542606,0.044141754508018494,0.013674149289727211
1772788696663190800,20.669190673828126,0.009683562442660332,0.05137315392494202,0.04021911695599556
1772788696683223000,20.68922314453125,-0.002105311257764697,-0.006692556664347649,0.02612948603928089
1772788696703255000,20.709255126953124,0.000015473226085305214,-0.03500215336680412,0.005369482561945915
1772788696723286800,20.729286865234375,0.009731859900057316,-0.026770463213324547,-0.011619134806096554
1772788696743319000,20.749319091796874,0.007519400212913752,0.011299082078039646,-0.002307480899617076
1772788696763351000,20.76935107421875,0.009416291490197182,0.042180150747299194,0.012953586876392365
1772788696783382800,20.7893828125,0.006395765580236912,0.051875147968530655,0.02551349811255932
1772788696803415300,20.809415283203126,0.005078158341348171,0.056052159518003464,0.013842063024640083
1772788696823447300,20.829447265625,0.013537533581256866,0.014898035675287247,-0.0033617811277508736
1772788696843478300,20.849478271484376,0.01697896420955658,-0.006504533812403679,0.012171016074717045
1772788696863510000,20.869510009765627,0.01724504679441452,-0.022553887218236923,0.03474206104874611
1772788696883542300,20.889542236328126,0.014470061287283897,-0.03628027066588402,0.015700992196798325
1772788696903574300,20.90957421875,0.011096855625510216,-0.015125946141779423,-0.006508128717541695
1772788696923606300,20.929606201171875,0.002649526344612241,0.011709647253155708,-0.014060894027352333
1772788696943638300,20.94963818359375,0.00012771738693118095,0.02119838073849678,-0.011364355683326721
1772788696963670300,20.969670166015625,-0.0028020564932376146,0.008964324370026588,0.008858976885676384
1772788696983702300,20.989702392578124,0.012317726388573647,-0.04160986468195915,0.015616260468959808
1772788697003734300,21.009734375,0.003660855581983924,-0.050652362406253815,0.0013513034209609032
1772788697023765200,21.02976513671875,-0.005002830643206835,-0.02161957323551178,-0.02508017048239708
1772788697043797200,21.04979736328125,-0.002961141290143132,0.02997221052646637,-0.007834960706532001
1772788697063829200,21.069829345703123,-0.002163054421544075,0.027391232550144196,0.015449944883584976
1772788697083861200,21.089861328125,-0.008432292379438877,-0.0216209776699543,0.01641334407031536
1772788697103893200,21.109893310546877,0.0043399459682404995,-0.04472846910357475,-0.0071566966362297535
1772788697123925200,21.12992529296875,0.019512711092829704,-0.012797277420759201,-0.012361756525933743
1772788697143957200,21.149957275390626,0.022726252675056458,0.009873861446976662,-0.020134679973125458
1772788697163989200,21.1699892578125,0.05708819255232811,0.04683941602706909,-0.045216552913188934
1772788697184021200,21.190021240234376,0.13410909473896027,0.04156266152858734,-0.049385376274585724
1772788697204052200,21.21005224609375,0.20663800835609436,-0.07439882308244705,-0.059719063341617584
1772788697224084200,21.230084228515626,0.28518936038017273,-0.22502264380455017,-0.08132906258106232
1772788697244116200,21.2501162109375,0.37520867586135864,-0.2696402072906494,-0.135089710354805
1772788697264148200,21.270148193359375,0.584399402141571,-0.4620019495487213,-0.1583947241306305
1772788697284180200,21.29018017578125,0.959054172039032,-1.2133824825286865,-0.06860332190990448
1772788697304212200,21.310212158203125,1.4420777559280396,-2.1923410892486572,0.06224825605750084
1772788697324244200,21.330244140625,1.7741578817367554,-2.9388325214385986,0.1822749376296997
1772788697344276200,21.350276123046875,1.879028081893921,-3.155075788497925,0.27016159892082214
1772788697364308500,21.37030859375,1.994837760925293,-2.9981181621551514,0.3461429178714752
1772788697384340200,21.39034033203125,2.1630866527557373,-2.7043752670288086,0.47329437732696533
1772788697404371200,21.41037109375,2.373678207397461,-2.5326764583587646,0.6097385883331299
1772788697424403200,21.4304033203125,2.514432907104492,-2.17646861076355,0.7371155619621277
1772788697444435200,21.450435302734373,2.3881914615631104,-2.0372536182403564,0.7915361523628235
1772788697464467200,21.47046728515625,2.2191905975341797,-2.0970962047576904,0.8545895218849182
1772788697484499200,21.490499267578127,2.180083751678467,-2.032736301422119,1.0450071096420288
1772788697504531200,21.51053125,2.1914334297180176,-1.7651591300964355,1.1810897588729858
1772788697524563200,21.530563232421876,1.954907774925232,-1.6774418354034424,1.0651341676712036
1772788697544595200,21.55059521484375,1.7938402891159058,-1.7475039958953857,1.0723520517349243
1772788697564627200,21.570627197265626,1.7871272563934326,-1.627650260925293,1.132582426071167
1772788697584659500,21.590659423828125,1.7947745323181152,-1.6571122407913208,1.16862154006958
1772788697604690400,21.6106904296875,1.7953546047210693,-1.841395616531372,1.194130778312683
1772788697624722200,21.63072216796875,1.7196695804595947,-1.9142451286315918,1.1192973852157593
1772788697644754200,21.650754150390625,1.6867005825042725,-1.934065341949463,1.0376384258270264
1772788697664786400,21.670786376953124,1.6553430557250977,-1.9108390808105469,0.9442311525344849
1772788697684818200,21.690818115234375,1.581136703491211,-2.017472743988037,0.8320793509483337
1772788697704850200,21.71085009765625,1.4837015867233276,-2.0100934505462646,0.8204167485237122
1772788697724882200,21.730882080078125,1.4856746196746826,-1.8486424684524536,0.9229447245597839
1772788697744914200,21.7509140625,1.517303705215454,-1.6778531074523926,1.0026776790618896
1772788697764946200,21.7709462890625,1.4677348136901855,-1.5204708576202393,1.0359241962432861
1772788697784978200,21.790978271484374,1.3686137199401855,-1.4566699266433716,1.077519416809082
1772788697805009200,21.811009033203124,1.3377586603164673,-1.4131858348846436,1.1307295560836792
1772788697825041400,21.83104150390625,1.351569414138794,-1.3839266300201416,1.205195426940918
1772788697845073200,21.8510732421875,1.2211060523986816,-1.3070002794265747,1.1877676248550415
1772788697865105200,21.871105224609376,1.0588902235031128,-1.1411988735198975,1.1858062744140625
1772788697885137400,21.891137451171875,0.9470351934432983,-1.0001401901245117,1.1748886108398438
1772788697905169200,21.911169189453126,0.8760757446289062,-1.002509593963623,1.055224061012268
1772788697925201200,21.931201171875,0.7848312258720398,-0.9107351303100586,0.9239901304244995
1772788697945233400,21.9512333984375,0.6156760454177856,-0.5726028680801392,0.7809786796569824
1772788697965265200,21.97126513671875,0.5512136220932007,-0.38118618726730347,0.6790710687637329
1772788697985297200,21.991297119140626,0.5800142884254456,-0.4486861526966095,0.6355025172233582
1772788698005328100,22.011328125,0.5425317287445068,-0.51801598072052,0.6268650889396667
1772788698025360400,22.0313603515625,0.4392068386077881,-0.44502368569374084,0.5870266556739807
1772788698045392400,22.051392333984374,0.34863197803497314,-0.3828994035720825,0.5268772840499878
1772788698065424100,22.071424072265625,0.37129804491996765,-0.4422775208950043,0.4297795295715332
1772788698085456100,22.0914560546875,0.46593326330184937,-0.4963674545288086,0.448264479637146
1772788698105488400,22.11148828125,0.5534194111824036,-0.5310989022254944,0.5258733034133911
1772788698125520100,22.13152001953125,0.5253131985664368,-0.6199133396148682,0.5437441468238831
1772788698145552100,22.15155224609375,0.48805564641952515,-0.6773892045021057,0.4738488793373108
1772788698165584400,22.17158447265625,0.45262646675109863,-0.5607781410217285,0.407834529876709
1772788698185616100,22.1916162109375,0.3669603168964386,-0.42195725440979004,0.4028533697128296
1772788698205647000,22.211647216796877,0.3168865144252777,-0.4303729236125946,0.31578317284584045
1772788698225679000,22.23167919921875,0.34686005115509033,-0.5110465884208679,0.19307777285575867
1772788698245711400,22.25171142578125,0.36307114362716675,-0.5237298011779785,0.19383002817630768
1772788698265743400,22.271743408203125,0.22516481578350067,-0.3419603705406189,0.397193044424057
1772788698285775000,22.291775146484376,0.05761855095624924,-0.1819923222064972,0.5525844097137451
1772788698305807400,22.311807373046875,0.033395785838365555,-0.39663320779800415,0.5314689874649048
1772788698325839400,22.33183935546875,-0.016940012574195862,-0.6727269291877747,0.43111783266067505
1772788698345871000,22.35187109375,-0.007577981799840927,-0.6398544311523438,0.33034729957580566
1772788698365903000,22.371903076171876,0.05898832529783249,-0.3531654477119446,0.37289392948150635
1772788698385935400,22.391935302734375,-0.04006008803844452,-0.10799680650234222,0.5372212529182434
1772788698405967400,22.41196728515625,-0.19381973147392273,-0.14957548677921295,0.6139283776283264
1772788698425998300,22.431998291015624,-0.2419520765542984,-0.2929218113422394,0.544773280620575
1772788698446030000,22.452030029296875,-0.15317124128341675,-0.36566397547721863,0.49463146924972534
1772788698466062300,22.472062255859374,-0.11150555312633514,-0.30358755588531494,0.5438889861106873
1772788698486094300,22.49209423828125,-0.21285869181156158,-0.146830216050148,0.5669630765914917
1772788698506126000,22.5121259765625,-0.26035159826278687,0.0065953610464930534,0.42535021901130676
1772788698526158300,22.532158447265626,-0.20389024913311005,-0.03787927329540253,0.2951622009277344
1772788698546190300,22.5521904296875,-0.16024409234523773,-0.2060546576976776,0.14883117377758026
1772788698566222000,22.57222216796875,-0.12070309370756149,-0.23648056387901306,0.1231527104973793
1772788698586254000,22.592254150390627,-0.08306044340133667,-0.16288138926029205,0.149821475148201
1772788698606286300,22.612286376953126,-0.07895374298095703,-0.13984806835651398,0.15590287744998932
1772788698626317300,22.6323173828125,-0.0883842408657074,-0.23970858752727509,0.14840981364250183
1772788698646349300,22.652349365234375,-0.060396160930395126,-0.35775601863861084,0.14046919345855713
1772788698666381000,22.672381103515626,-0.022638283669948578,-0.37806612253189087,0.10790477693080902
1772788698686413300,22.692413330078125,-0.031186778098344803,-0.26651883125305176,0.08471263945102692
1772788698706445300,22.7124453125,0.009494321420788765,-0.16469010710716248,-0.026278017088770866
1772788698726477000,22.73247705078125,0.054475098848342896,-0.16657885909080505,-0.03539374843239784
1772788698746509300,22.75250927734375,0.031928081065416336,-0.2810908854007721,-0.03441920503973961
1772788698766541300,22.772541259765624,0.026973070576786995,-0.3544027507305145,0.007889365777373314
1772788698786573000,22.792572998046875,0.06432962417602539,-0.2684710621833801,0.05517423152923584
1772788698806606000,22.812606201171874,0.12173356115818024,-0.11914806067943573,0.03905491903424263
1772788698826638000,22.83263818359375,0.09483076632022858,-0.0796075090765953,0.03749990090727806
1772788698846669000,22.8526689453125,0.03305394574999809,-0.1663459837436676,0.0499398335814476
1772788698866700800,22.87270068359375,0.05047588795423508,-0.22131292521953583,0.08683038502931595
1772788698886733000,22.892733154296874,0.10335785895586014,-0.22121284902095795,0.13101640343666077
1772788698906765000,22.91276513671875,0.10572272539138794,-0.2811049818992615,0.12557609379291534
1772788698926796800,22.932796875,0.054141514003276825,-0.2715281844139099,0.14121076464653015
1772788698946828800,22.952828857421874,0.009013495407998562,-0.13650934398174286,0.1654755175113678
1772788698966861000,22.972861083984377,0.028985120356082916,-0.034168992191553116,0.16607287526130676
1772788698986893000,22.99289306640625,0.05468134954571724,-0.1467813402414322,0.15808424353599548
1772788699006924800,23.0129248046875,0.04262028634548187,-0.30806732177734375,0.10411727428436279
1772788699026957000,23.03295703125,0.000889867078512907,-0.3009151518344879,0.15430614352226257
1772788699046989000,23.052989013671876,-0.037403520196676254,-0.12697970867156982,0.21770784258842468
1772788699067020000,23.07302001953125,-0.07945123314857483,0.05309594050049782,0.22121749818325043
1772788699087051800,23.0930517578125,-0.049581512808799744,0.024263573810458183,0.14156052470207214
1772788699107084000,23.113083984375,0.012562548741698265,-0.14992836117744446,0.024487119168043137
1772788699127116000,23.133115966796876,-0.004371206741780043,-0.19510363042354584,0.0944332629442215
1772788699147147800,23.153147705078126,-0.051381200551986694,-0.11511974036693573,0.14376740157604218
1772788699167180000,23.173179931640625,-0.06635710597038269,-0.020462501794099808,0.11845821887254715
1772788699187212000,23.1932119140625,-0.03153648599982262,0.005815016105771065,0.03644688427448273
1772788699207244000,23.213244140625,0.011925537139177322,-0.024990377947688103,0.00897580198943615
1772788699227275800,23.23327587890625,0.020248666405677795,-0.09220410883426666,0.06112724170088768
1772788699247308000,23.25330810546875,0.026533665135502815,-0.1520283967256546,0.06118219345808029
1772788699267339000,23.273339111328124,-0.002724810503423214,-0.12152126431465149,0.018636953085660934
1772788699287371000,23.29337109375,-0.031415607780218124,-0.0005959318950772285,0.015109149739146233
1772788699307402800,23.31340283203125,-0.03265175223350525,0.040185242891311646,0.03140707686543465
1772788699327435000,23.33343505859375,0.00506288418546319,-0.0368095263838768,0.006563732400536537
1772788699347467000,23.353467041015627,0.006408407352864742,-0.11132591217756271,-0.0007062535732984543
1772788699367498800,23.373498779296874,-0.016473691910505295,-0.08090145885944366,-0.048895664513111115
1772788699387531000,23.393531005859376,-0.053037844598293304,0.03712127357721329,-0.053043004125356674
1772788699407563000,23.41356298828125,-0.030707426369190216,0.09575570374727249,-0.03601697087287903
1772788699427595000,23.433594970703126,-0.0024022222496569157,0.027240723371505737,-0.03571417182683945
1772788699447626800,23.453626708984373,-0.009440174326300621,-0.09659966081380844,-0.05268201231956482
1772788699467659000,23.473658935546876,-0.028645841404795647,-0.11017367243766785,-0.003396979533135891
1772788699487690000,23.49368994140625,-0.06745235621929169,-0.051431264728307724,0.04100856930017471
1772788699507722000,23.513721923828125,-0.12580987811088562,0.018511444330215454,0.08118093758821487
1772788699527753700,23.533753662109376,-0.12501078844070435,0.048385076224803925,0.1117783933877945
1772788699547786000,23.553785888671875,-0.1224321499466896,0.03284203261137009,0.18490201234817505
1772788699567818000,23.57381787109375,-0.13720251619815826,0.028836868703365326,0.27634769678115845
1772788699587849700,23.593849609375,-0.16239427030086517,0.02852771058678627,0.34513193368911743
1772788699607882000,23.613882080078124,-0.16142310202121735,0.15889154374599457,0.2881801128387451
1772788699627914000,23.6339140625,-0.14558084309101105,0.4375718832015991,0.17499686777591705
1772788699647946000,23.653946044921874,-0.14457657933235168,0.7256250977516174,0.13859042525291443
1772788699667978000,23.67397802734375,-0.19094543159008026,1.0600388050079346,0.18121294677257538
1772788699688010000,23.694010009765623,-0.2820685803890228,1.5535539388656616,0.20339086651802063
1772788699708041000,23.714041015625,-0.44040611386299133,2.2224161624908447,0.10977791249752045
1772788699728073000,23.734072998046877,-0.7203890085220337,2.88271164894104,-0.10863196849822998
1772788699748105000,23.75410498046875,-1.0303239822387695,3.2589211463928223,-0.5136494636535645
1772788699768137000,23.774136962890626,-1.0336124897003174,3.126823663711548,-0.9028304815292358
1772788699788169000,23.7941689453125,-0.9332955479621887,3.191816568374634,-0.9769495129585266
1772788699808201000,23.814200927734376,-1.0973068475723267,3.6563713550567627,-0.8005968928337097
1772788699828232700,23.834232666015627,-1.5583328008651733,3.938474178314209,-0.7353191375732422
1772788699848265000,23.854264892578126,-2.0874054431915283,3.5447492599487305,-1.179101824760437
1772788699868297000,23.874296875,-2.2167181968688965,3.138725519180298,-1.4567723274230957
1772788699888328700,23.89432861328125,-2.1795034408569336,3.498161792755127,-1.295143485069275
1772788699908361000,23.91436083984375,-2.3245534896850586,4.34113883972168,-0.7487979531288147
1772788699928392000,23.934391845703125,-2.4852139949798584,4.373941421508789,-0.1483241617679596
1772788699948424000,23.954423828125,-2.49847149848938,3.6944470405578613,0.3434695303440094
1772788699968455700,23.97445556640625,-2.3896493911743164,3.3331832885742188,0.7062124609947205
1772788699988488000,23.994488037109374,-2.357823610305786,3.2484068870544434,1.014482855796814
1772788700008520000,24.01452001953125,-2.2675633430480957,2.171839714050293,0.9529286026954651
1772788700028552000,24.034552001953124,-2.335421085357666,0.464312344789505,0.23833376169204712
