time,seconds_elapsed,z,y,x
1772790992646269400,0.07526953125,0.5357973140060901,-0.6520102025479078,-0.2867463826728985
1772790992666302500,0.095302490234375,0.752332278996706,-0.787403592377901,-0.4797838964916765
1772790992686335500,0.11533544921875,0.6924257995665073,-0.8751420815855264,-0.33901527989674357
1772790992706367500,0.135367431640625,-0.11099953780770301,-0.9116589175999164,0.16081963537363334
1772790992726400300,0.155400146484375,-0.7810165216892957,-0.780475254419446,0.34705062924902885
1772790992746433500,0.17543359375,-0.5433773938715457,-0.8349035946995019,0.17891559282811356
1772790992766466300,0.19546630859375,0.126846510758996,-0.9010966070532799,-0.2084586991060525
1772790992786498600,0.21549853515625,0.17307167083919048,-0.8806365873485803,-0.4636122946958989
1772790992806531300,0.23553125,0.23241993186473844,-0.8997837708890437,-0.7487602657288313
1772790992826564600,0.255564697265625,0.5083972659051418,-1.1800608479499817,-0.9229913357362151
1772790992846597400,0.275597412109375,0.2951011367052793,-1.3536539123147726,-0.7870745065540075
1772790992866629400,0.29562939453125,-0.35657822645306586,-1.3278782505452633,-0.6793653885938227
1772790992886662400,0.315662353515625,-0.8335796526193618,-1.0549860230386257,-0.6162764797352254
1772790992906695400,0.3356953125,-0.8977519728004932,-0.6232815361917019,-0.5313483717732131
1772790992926728400,0.355728515625,-1.2254682619065045,-0.274420752248168,-0.0974045085016638
1772790992946761500,0.375761474609375,-1.194502630278468,-0.10375964968204497,-0.006378284593950957
1772790992966793500,0.39579345703125,-0.9254343449741601,-0.06763795046508311,-0.19990398378847166
1772790992986826500,0.415826416015625,-0.35455928784608837,0.05898819554150104,-0.5673479424478486
1772790993006859500,0.435859619140625,0.3267775469511747,0.05733925929069519,-0.7210127924297004
1772790993026892500,0.455892578125,0.6530979977846145,0.2769260130673647,-0.8483169838283211
1772790993046924300,0.47592431640625,0.5748018751829862,0.44532150878906246,-1.1337793545726687
1772790993066957600,0.49595751953125,0.23760171841681002,0.7574830858886241,-1.2164957778345793
1772790993086990300,0.515990234375,-0.07419453250169754,1.1855717203259468,-1.1095764950778335
1772790993107023400,0.5360234375,-1.0595961471825837,1.6765671850532293,-0.6290983327116817
1772790993127056400,0.556056396484375,-1.571951795324683,1.834115708068013,-0.4833114860959351
1772790993147088600,0.576088623046875,-1.0075982489198445,1.409224408367276,-0.7394501472003757
1772790993167121400,0.596121337890625,-0.16610943061113356,0.9630494976192712,-1.1434704352427274
1772790993187154400,0.616154541015625,0.6813274824470281,0.5692530088841915,-1.8049153325468301
1772790993207187500,0.6361875,0.7165759059607982,0.3130184861898422,-2.127227278391272
1772790993227219500,0.656219482421875,0.28218554103076454,0.2771984002679586,-1.802011720059812
1772790993247252500,0.67625244140625,-0.4865156889647245,0.45974575546085833,-1.0436452754653989
1772790993267285200,0.69628515625,-0.9448317038834094,0.7760539308458566,-0.3621001316796988
1772790993287318500,0.716318603515625,-0.6385767204791307,1.0244809946596622,-0.2916431052058935
1772790993307350300,0.736350341796875,-0.1894657562792301,1.144222057327628,-0.39891704661920663
1772790993327383600,0.756383544921875,0.7692389901340008,0.9741267719507217,-0.6586315934490412
1772790993347416300,0.776416259765625,1.326349725803733,0.6471545792102813,-0.7182252806030214
1772790993367449600,0.79644970703125,1.2400988448053598,0.4300006055384874,-0.7125534455116838
1772790993387482400,0.816482421875,1.2098895845025777,0.1656803915441036,-0.7545736281827091
1772790993407514000,0.83651416015625,1.3227642685323953,-0.1369108086556196,-0.6351971610434353
1772790993427547100,0.856547119140625,1.50153502779603,-0.39764264276921746,-0.297700651679188
1772790993447580200,0.876580078125,0.7365846747666597,-0.2259077734917402,-0.15923486866652964
1772790993467613200,0.89661328125,-0.36835575800836085,0.1117278520822525,-0.2991635638386011
1772790993487645200,0.916645263671875,-1.0005857398092746,0.18933599241971968,-0.44718043452873824
1772790993507678200,0.93667822265625,-1.9308482355922458,0.26858430117964743,-0.4529461584486067
1772790993527711200,0.956711181640625,-2.4621792178392408,0.12329554027915,-0.45071883778795596
1772790993547744300,0.976744140625,-2.8094167844951152,0.10380348882377147,-0.4312339467257261
1772790993567776300,0.9967763671875,-2.2001257797330616,-0.07626257094740867,-0.34220088766291734
1772790993587809000,1.01680908203125,-1.3963923993229865,-0.45031624833643435,-0.2743205067440867
1772790993607842300,1.03684228515625,-0.6589613368600606,-0.6563128681778907,-0.42600108757354316
1772790993627875000,1.056875,-0.5515262135356664,-0.7588403457164764,-0.7299831576097756
1772790993647908000,1.076908203125,-1.413398479181528,-0.6165110191434622,-0.44698483889140184
1772790993667940000,1.096940185546875,-2.190824282902479,-0.6071212595075368,0.18405827121250332
1772790993687973400,1.116973388671875,-2.2934815243005753,-0.5410147563934325,0.7276397362887859
1772790993708006100,1.137006103515625,-2.0241817683279515,-0.27341069842278953,0.7219924511168152
1772790993728039200,1.1570390625,-1.4280068502485752,0.07002806047201156,0.7201924890227616
1772790993748071200,1.1770712890625,-0.5601590173244476,0.3786187933474779,0.6628436581861228
1772790993768104200,1.197104248046875,0.09472761744260788,0.5577800132334232,0.6447730909012258
1772790993788137200,1.21713720703125,0.54087037948668,0.7072767472177743,0.609202815021947
1772790993808170200,1.237170166015625,0.8502759358763694,0.8070973038852214,0.6077445059724151
1772790993828202200,1.2572021484375,0.7411550514221191,0.8687398133277893,0.7864615622874349
1772790993848235000,1.277235107421875,0.7568424498975277,0.9686299281001091,0.9426461765378713
1772790993868268300,1.297268310546875,0.946630277737975,1.0948521694809197,1.1250170061200857
1772790993888301000,1.317301025390625,0.6775994018346071,1.1684183409512043,1.3556120606452227
1772790993908334300,1.337334228515625,0.3090928371787071,1.1628677210867404,1.3795061464518308
1772790993928366000,1.357365966796875,0.2673357624232769,1.3026333346515893,0.9545214693792163
1772790993948399400,1.3773994140625,0.4636521152496338,1.2677256873995064,0.7069004612512886
1772790993968432000,1.39743212890625,0.8216425465881824,1.0365700763821601,0.7056468079283833
1772790993988465400,1.41746533203125,1.193122574096918,0.884542362615466,0.5456201678296551
1772790994008497200,1.4374970703125,1.7477338941663503,0.6868962224900722,0.18444018320217728
1772790994028530200,1.4575302734375,1.7107313204616308,0.5269160884141921,0.05297792227603495
1772790994048563200,1.477563232421875,1.352112528091669,0.34962592309713364,0.04537033334914595
1772790994068596200,1.49759619140625,1.1667232274711132,0.11035597920715808,-0.06513700049482285
1772790994088628200,1.517628173828125,1.128345273759961,-0.045453006663918494,-0.012548698590882122
1772790994108661200,1.5376611328125,0.9931143810153007,0.0021264906346797944,0.21214834740422664
1772790994128694300,1.5576943359375,0.9875193374872208,-0.17476970692873,0.7033595007088035
1772790994148727300,1.577727294921875,1.311470136579871,-0.05537877287268638,0.1398676856998354
1772790994168759000,1.597759033203125,0.21177169611155985,0.042408232140541076,-0.008925101266242564
1772790994188792300,1.617792236328125,-0.9156319128841162,0.9044424103498458,0.8009598240435123
1772790994208825000,1.6378251953125,0.29189328057467934,0.37939211580753324,1.229545155956596
1772790994228858000,1.657858154296875,1.7597312059521675,1.7476614134520292,-0.08446895688450895
1772790994248890000,1.67789013671875,2.9581846196830273,0.6020172143667936,0.0011461743604391813
1772790994268923400,1.69792333984375,2.3518869515180585,1.2858271612793206,0.3421748033735901
1772790994288956200,1.7179560546875,1.2188497205495834,0.08365034311115742,-0.07137969427667558
1772790994308989200,1.7379892578125,2.7008313220918176,0.30937866838276384,0.6078123105116188
1772790994329022200,1.758022216796875,3.519698558747768,1.1231839454740284,1.5215309371203183
1772790994349054200,1.77805419921875,0.9846768075376748,0.035328503012657164,1.4086904476210473
1772790994369087200,1.798087158203125,-1.1006757610678672,-1.871819123518467,0.408687366537936
1772790994389120000,1.8181201171875,-2.023570358431339,-1.343759125766158,0.029369713339256122
1772790994409152800,1.83815283203125,-1.4383213235139847,0.03620879297852516,-1.372956724808365
1772790994429185000,1.85818505859375,0.16058920588493347,0.0012409399718046187,-3.974901410081982
1772790994449217800,1.8782177734375,0.264804782640934,-0.2735378319337964,-4.809846798096597
1772790994469250800,1.898250732421875,0.43681320816278457,1.9481208574324844,-2.3662547918274996
1772790994489283800,1.918283935546875,-0.683418317246437,1.4997273938521742,-1.3799644116133452
1772790994509315800,1.93831591796875,-1.6066420004338025,1.601023576030135,-1.247865241023153
1772790994529348900,1.958348876953125,-2.047723971956968,1.2879852160960434,-1.5948478100046515
1772790994549381600,1.978381591796875,-1.6451695917487144,1.0613388991966843,-1.2788367178700863
1772790994569415000,1.998414794921875,-1.795862842041254,0.4969306999951601,-1.2428431750774382
1772790994589446700,2.01844677734375,-1.9765292057931423,0.17619126416444778,-1.2303075186312198
1772790994609480000,2.03847998046875,-2.200774014508724,-0.27435090188235045,-1.2979387470945716
1772790994629512700,2.0585126953125,-2.857909304985404,-0.5674503433763981,-0.40947365807741876
1772790994649546000,2.0785458984375,-3.2683529771387576,-0.7761065378159284,0.32832156152278186
1772790994669577700,2.09857763671875,-3.0257828226596115,-0.754512545645237,0.08447510349750519
1772790994689610800,2.11861083984375,-2.514839379402995,-0.620748510582745,-0.3078337770283222
1772790994709643800,2.138643798828125,-2.2516356022179127,-0.6867153129652143,0.02746726811826229
1772790994729676800,2.1586767578125,-2.138888343960047,-0.6484133470997214,0.531534103603661
1772790994749708800,2.178708740234375,-1.741328118777275,-0.48336862311065193,0.3556847847446799
1772790994769741800,2.198741943359375,-1.077111930128932,-0.5070911517426371,-0.013799977293610571
1772790994789774800,2.21877490234375,-0.39603053139746186,-0.49404462316483255,-0.50225540214926
1772790994809808000,2.238807861328125,0.21685352942049502,-0.39980420471727846,-0.77081632245332
1772790994829841000,2.2588408203125,0.2578209151029587,-0.1487166895225644,-0.47178865995407104
1772790994849873000,2.278872802734375,0.5397609569400549,-0.17332652238309382,-0.3130284230619669
1772790994869906000,2.298906005859375,0.8883218811541795,0.24361235700845718,-0.6530155801981687
1772790994889939000,2.31893896484375,1.1440203972756862,0.407067473718524,-1.2212146961152552
1772790994909971700,2.3389716796875,1.4331144025206566,0.7235743865460157,-1.4277484915733336
1772790994930004000,2.35900390625,1.5098165339291094,1.0089712908387183,-1.9894757811278103
1772790994950036700,2.37903662109375,1.464521932697296,1.5648410865366458,-3.029081864205003
1772790994970069800,2.39906982421875,0.9256184693694114,2.3316683393538,-3.0688901429802176
1772790994990102800,2.419102783203125,0.52009413343966,2.6911493015110493,-2.8146991088122126
1772790995010135000,2.439135009765625,0.38220921905487776,3.294057327237725,-2.644067232340574
1772790995030167800,2.459167724609375,0.41616921019330616,3.9774230375140904,-2.6571254513561726
1772790995050200800,2.479200927734375,1.0243417323194444,4.138128563255071,-3.131740274646878
1772790995070233900,2.49923388671875,1.52535137219131,4.164452214296162,-2.805271355253458
1772790995090265900,2.519265869140625,1.6188672757565974,3.859148540267348,-1.7659604557305573
1772790995110299000,2.539298828125,0.9260159442543983,4.145799828535318,-0.5587684397488832
1772790995130331600,2.55933154296875,0.1977180363178253,3.6791891557410357,0.05131108504235744
1772790995150365000,2.579364990234375,0.2563993578672409,3.6392002597019073,0.31995325388908386
1772790995170397000,2.59939697265625,1.0371041832588612,3.2319647359400987,0.8353279575914144
1772790995190430000,2.619429931640625,0.9347638988554478,2.7570786944925785,0.94962361433506
1772790995210462700,2.639462646484375,1.2277953896798193,2.4945117539063095,2.0053975728809834
1772790995230496000,2.65949609375,0.9439398696102201,2.1698495916739104,1.4611673615723848
1772790995250527700,2.67952783203125,0.48015199915170664,1.5708279058612882,0.47323827424049375
1772790995270560800,2.699560791015625,0.6237967922374605,1.013808574802056,0.37251229316592216
1772790995290593800,2.71959375,1.0809667058609425,1.1375722440496085,0.42856151264607906
1772790995310626800,2.739626708984375,0.42462592676281924,1.1720225029230118,-0.3735463123887777
1772790995330658800,2.759658935546875,0.2964097350858152,1.720252743653208,-0.9678905079096555
1772790995350691800,2.77969189453125,0.3916445713981986,2.3259087529137727,-1.0710539452642203
1772790995370724900,2.799724853515625,0.20822803215533495,2.145729003635049,-0.5684849471211433
1772790995390758000,2.8197578125,-0.1400195883259177,2.0133011856123804,0.40755554949641226
1772790995410790100,2.8397900390625,-0.6744330467581748,1.9170333529904484,0.7569839041948319
1772790995430823400,2.859823486328125,-1.2105685066774488,2.1022861677497624,0.12029869655072688
1772790995450856200,2.879856201171875,-1.1792998004496096,2.715704481574893,-0.37366087867915626
1772790995470889200,2.89988916015625,-1.164207445257902,2.955618568587303,-0.839786106044054
1772790995490921200,2.919921142578125,-0.7435613819114864,3.3029151719540355,-0.5919225213319063
1772790995510954200,2.939954345703125,-0.41748686866313217,3.08695771459043,0.32501404440999027
1772790995530987300,2.9599873046875,-0.14240151502639053,2.637092717152834,1.473712954890728
1772790995551020000,2.98002001953125,0.016267244189977645,2.114815978977084,2.5555314552754163
1772790995571052300,3.00005224609375,0.30969211824610826,1.7555056972116232,3.342935047653317
1772790995591085300,3.020085205078125,0.7604653165698051,1.3861106592833996,3.795369018796086
1772790995611118300,3.040118408203125,1.1763757296964525,0.6649854194551706,4.128240206447243
1772790995631151000,3.060151123046875,1.6128689121246338,-0.04260521601736545,4.6209871910169715
1772790995651183000,3.08018310546875,1.75401925804615,-0.9436457089692354,5.085127089783549
1772790995671216000,3.100216064453125,1.7372352965056894,-1.8596569765597581,5.469205317580699
1772790995691249200,3.120249267578125,2.4196704479336737,-1.4982698885202408,6.6009881645739075
1772790995711282200,3.1402822265625,2.8828654670655727,0.4991355165630579,7.754652003985643
1772790995731314200,3.160314208984375,1.9980150614142416,0.7131032614141702,7.414361479988694
1772790995751347200,3.18034716796875,0.6374069460473955,0.5367173514604568,6.841002789351344
1772790995771380200,3.200380126953125,-0.008374006722122431,-0.44923546736240383,6.668323332700133
1772790995791413200,3.220413330078125,-0.07295096218138933,-1.1709668563902378,6.59546326367259
1772790995811445200,3.2404453125,-0.2644296657182276,-1.5491741463273763,6.454286029744148
1772790995831478300,3.260478271484375,-0.3221905114218592,-1.665733656349778,5.738067266657948
1772790995851511300,3.28051123046875,-0.09394085097908973,-1.6306190883487461,4.6874210263893
1772790995871544300,3.30054443359375,0.01395955176949501,-1.8949124143362044,3.7770784520849583
1772790995891576300,3.320576416015625,-0.011263444553315639,-1.889994831678271,3.0026714116632935
1772790995911609000,3.340609130859375,0.03485299445539713,-1.9750410130620002,2.6215681080237028
1772790995931642400,3.360642333984375,0.24076924253702162,-1.6323527802735567,2.3516247934505343
1772790995951675100,3.380675048828125,0.19606296258717773,-1.0914824007868766,2.0810840975061056
1772790995971707400,3.400707275390625,0.0796273712053895,-0.0057125324279069896,2.0113038743153213
1772790995991740200,3.420740234375,-0.45416386367529626,0.8857312801390885,1.5350342695549128
1772790996011773400,3.4407734375,-0.8577540166720747,1.367480193093419,1.1560890207320451
1772790996031805200,3.46080517578125,-1.114553479772806,1.69900171970129,0.8065940305382013
1772790996051838200,3.480838134765625,-1.4062237652465701,1.6008283457189798,0.7769961801320314
1772790996071871200,3.500871337890625,-1.6528490403354168,1.6992355284571647,0.7659750199019908
1772790996091904300,3.520904296875,-2.0623466638103127,1.7828782727837562,0.5643611451894045
1772790996111936300,3.540936279296875,-2.375311958508193,2.026893365374207,0.20778174969255922
1772790996131969300,3.56096923828125,-2.415440263018012,2.551995682364702,-0.15745324594676494
1772790996152002300,3.581002197265625,-2.7671199037745593,2.951299536344409,-0.9322422714233398
1772790996172035300,3.601035400390625,-2.9966312547162173,2.9679063877522944,-1.6531489000648258
1772790996192067000,3.621067138671875,-3.193266756494343,2.6686715122431517,-2.245379464432597
1772790996212100400,3.641100341796875,-3.344729529854655,2.102043006643653,-2.7114088302075863
1772790996232133000,3.661133056640625,-3.3587016488447783,1.6262474491357803,-3.003896569544077
1772790996252166100,3.681166259765625,-3.1047502686515447,1.6737889525115488,-3.1444863589733836
1772790996272198100,3.7011982421875,-3.1864214206442236,1.7162836938917636,-3.498626544624567
1772790996292231400,3.7212314453125,-3.164551826402545,1.7920856615900993,-3.726802847570181
1772790996312264200,3.74126416015625,-2.934542170549929,1.8103999014377592,-3.8858606061041354
1772790996332297200,3.761297119140625,-2.3098972370505333,2.0652491072535515,-3.7570717291057107
1772790996352329200,3.7813291015625,-2.032024883043766,2.2301228585898873,-3.521517006346583
1772790996372362200,3.8013623046875,-1.7558946965292095,2.172643898567557,-2.968890138092637
1772790996392395300,3.821395263671875,-1.283428283444047,2.2621038047403097,-2.281488304167986
1772790996412428300,3.84142822265625,-0.9672148006051778,2.0820266390532254,-1.855540773412585
1772790996432460500,3.86146044921875,-0.6062263564944267,1.8479291293650864,-1.4362135375797749
1772790996452493300,3.881493408203125,-0.28823446580618617,1.7215864764750002,-1.1007628548294306
1772790996472526600,3.901526611328125,-0.11579963156580925,1.5145494076699018,-0.8162538392871618
1772790996492559400,3.921559326171875,0.17684943581223486,1.4250000696480274,-0.7955202633380889
1772790996512591400,3.94159130859375,0.6243345523759722,1.4518424838662147,-0.5159972195148468
1772790996532624400,3.961624267578125,1.1670096431970596,1.837694735598564,-0.30612931119799613
1772790996552657400,3.981657470703125,1.0886204354844986,2.035513894203305,-0.38433249481916426
1772790996572688400,4.0016884765625,0.5381317483030259,2.165175462383032,-0.44145781909823417
1772790996592721400,4.021721435546875,0.27221652020215986,2.1180472159832715,-0.39567397304475305
1772790996612754400,4.04175439453125,0.44861251315847034,2.0869424681454896,-0.31011867309510704
1772790996632787500,4.061787353515625,0.578626548037678,2.0142910734325645,-0.016816694766283034
1772790996652819500,4.0818193359375,0.5002092832744122,2.080083688291907,0.4600134664863348
1772790996672852500,4.1018525390625,0.0811943282611668,2.0229577794909477,0.9607289457172155
1772790996692885500,4.121885498046875,-0.26018720584288235,1.8245546835184097,1.4703227279305457
1772790996712918500,4.14191845703125,-0.3357797685742378,1.2592501199990511,1.9433523278564213
1772790996732950500,4.161950439453125,-0.09869286781176924,0.3807967219084501,2.286961182621121
1772790996752983600,4.181983642578125,0.2438859132528305,-0.7325573189467192,2.514053781983256
1772790996773016600,4.2020166015625,0.6048104983471334,-1.7974451427966356,2.6916315320700406
1772790996793049300,4.22204931640625,0.9667290629148483,-2.776488912883401,2.8610955338060853
1772790996813081600,4.24208154296875,1.2758975956782699,-3.4437311713546515,3.090923111090064
1772790996833114400,4.2621142578125,1.6439574394799767,-3.458133790716529,3.654385553874075
1772790996853147400,4.2821474609375,1.6996446937799452,-3.298274068149924,3.908852774634957
1772790996873180400,4.302180419921875,1.5523862402416764,-3.1196354108333586,3.8562311915159224
1772790996893212700,4.322212646484375,1.2909130862414837,-2.643712427553534,3.7606604012474416
1772790996913245400,4.342245361328125,0.7245335869669913,-2.0302689792871473,3.49821036503911
1772790996933278500,4.362278564453125,-0.004340659552812576,-1.4586264449179172,3.141178549599647
1772790996953311500,4.3823115234375,-0.7426303846716881,-1.0897335112929343,2.5933885999828576
1772790996973347300,4.402347412109375,-1.3203937400087713,-0.8079659034132957,1.8941545817062257
1772790996993379300,4.42237939453125,-1.8059319622434675,-0.7392822432875633,1.2041191844075918
1772790997013412400,4.442412353515625,-1.9288950556978581,-0.6942664589971304,0.5100590616375208
1772790997033445400,4.4624453125,-1.837098669401556,-0.6541127277851104,-0.29292554623186584
1772790997053478400,4.482478515625,-1.6000418715164064,-0.5529413410305977,-1.0685726498425006
1772790997073510400,4.502510498046875,-1.288171824709326,-0.4746563243448734,-1.7313678657770155
1772790997093543400,4.52254345703125,-0.8890382127299904,-0.4043172982275486,-2.3677543827354905
1772790997113576400,4.542576416015625,-0.4962918175697326,-0.36183775441646576,-2.8658459432035683
1772790997133608400,4.5626083984375,-0.1120411558151245,-0.24762217717170715,-3.185316966533661
1772790997153641500,4.582641357421875,0.1708744530558586,-0.021276596784591675,-3.2336452363729475
1772790997173674200,4.60267431640625,0.31016368128061295,-0.09516483981609344,-3.391505309554934
1772790997193707500,4.62270751953125,0.6694320236004888,-0.222409409981966,-3.121020143190026
1772790997213739500,4.642739501953125,0.7216283670447766,-0.25608605413436886,-2.6846283753097056
1772790997233772500,4.6627724609375,0.87106489527449,0.04760696982741355,-1.8786510153651237
1772790997253805300,4.682805419921875,1.0700070665597916,0.3938245457857847,-0.794964383020997
1772790997273838600,4.702838623046875,1.3895499860823153,0.8442085986614227,0.12654489746391773
1772790997293870300,4.722870361328125,2.3191432043015956,1.234257133039832,1.034658689802885
1772790997313903600,4.742903564453125,3.9224902548432348,2.463532386013865,2.535701550167799
1772790997333936400,4.762936279296875,4.381707017993927,3.273433056882024,3.6003541039571165
1772790997353969400,4.782969482421875,3.5838688331022857,2.806325248220563,4.439893834024668
1772790997374001400,4.80300146484375,2.6318846271157263,1.5801619897872208,5.243830043530464
1772790997394034400,4.823034423828125,2.301350357979536,-0.25748598406016826,5.795009635585546
1772790997414067000,4.84306689453125,2.0554946059584616,-1.5507354042947292,6.160037710475922
1772790997434100000,4.863099853515625,1.919559364336729,-1.9904513481616972,6.369075597709417
1772790997454132000,4.883132080078125,1.4887993187330661,-1.8278665845453739,5.720305984517932
1772790997474165000,4.9031650390625,1.0630265600226818,-1.442552092951536,4.617879872651398
1772790997494197800,4.92319775390625,0.49274829974398016,-1.6408891379505395,3.6231837754026053
1772790997514231000,4.94323095703125,0.1551684960104525,-1.8603981503158806,2.880105062441528
1772790997534262800,4.9632626953125,-0.2549859839379787,-1.9549404743194578,2.10385736258924
1772790997554296000,4.983296142578125,-0.8743395330309868,-1.8840180953562258,1.2880059666231274
1772790997574328800,5.003328857421875,-1.4268611873447894,-1.6119091271817683,0.5615338128089904
1772790997594362000,5.023362060546875,-1.9472002354562281,-1.2019617141127585,0.026956395986676214
1772790997614393900,5.043393798828125,-2.358364769230038,-0.7636521299123764,-0.22651216912567615
1772790997634427100,5.06342724609375,-2.604362998461723,-0.35679625311791896,-0.1501426306724548
1772790997654460000,5.0834599609375,-2.6454782681822775,-0.19843115302324293,0.2757236515402794
1772790997674493000,5.103492919921875,-2.45727624822855,-0.1414899531394243,0.8867161995232105
1772790997694525000,5.12352490234375,-2.2140721797600387,-0.40739948215186594,1.3668711212843656
1772790997714558000,5.143557861328125,-1.840880087636411,-0.4053998327672481,2.1143781720817088
1772790997734591000,5.163591064453125,-1.8022025664567947,-0.385890245655179,2.995111497803032
1772790997754624000,5.1836240234375,-1.6882959090307355,-0.48078036018311976,3.072875413224101
1772790997774656000,5.203656005859375,-1.2974389808788895,0.03855155671238899,3.884147372445464
1772790997794689000,5.22368896484375,-0.8307002977907657,0.9944839158028363,4.188767448124289
1772790997814722000,5.24372216796875,-0.4947705993518233,1.539398017722368,3.8627509486734866
1772790997834754000,5.263754150390625,0.2841734999775886,2.2013871779710055,3.098255938196182
1772790997854786800,5.283786865234375,0.6888973331794143,2.263718254199624,2.4120634800612923
1772790997874820000,5.303820068359375,0.23594313755482435,1.734610208699107,1.6467448782414198
1772790997894852900,5.323852783203125,-0.031653321631252763,2.2874574417054654,1.5440934820622205
1772790997914885000,5.343885009765625,-0.48009003983139986,2.6713684962421653,0.8600999952763319
1772790997934918000,5.36391796875,-0.5981012099668384,3.7436511065185067,-0.02314940491914749
1772790997954951200,5.383951171875,-0.7478516264513134,4.408037391036749,-1.495894976082444
1772790997974984000,5.40398388671875,-0.7522349561020731,4.6286412129014725,-3.0628438485532996
1772790997995016000,5.424015869140625,-0.06645794690027833,5.341932690364122,-3.773595578405261
1772790998015049000,5.444049072265625,0.6801039320014417,6.142124452644587,-4.318441875785589
1772790998035082000,5.46408203125,0.5875253092862666,6.514967585200071,-5.022720610231161
1772790998055115000,5.484114990234375,0.11496369219832121,6.243747674819827,-6.022433658859133
1772790998075147000,5.50414697265625,-0.20989019321389496,6.436831037074327,-6.659008976387978
1772790998095180000,5.524179931640625,-0.9146668672442436,6.351087521076202,-7.745148262581229
1772790998115212800,5.544212890625,-1.4527040691316127,5.315638557678461,-8.737023457190395
1772790998135244800,5.564244873046875,-0.846643716853857,3.9201182650148865,-8.386778525412081
1772790998155278000,5.584278076171875,0.5849404073596001,3.5554742210060355,-6.903817849704623
1772790998175310800,5.604310791015625,1.898570352321863,3.4957211785718796,-5.269503998491167
1772790998195344000,5.62434375,2.8672143089473248,3.286982274284959,-3.8682933852314947
1772790998215376000,5.6443759765625,3.1127193478345867,2.960613308134675,-3.0951497888743877
1772790998235409000,5.664408935546875,3.431009052425623,2.589593883875012,-2.0950363427519796
1772790998255442000,5.68444189453125,3.2189187918841835,2.185872797974944,-1.0012287138879299
1772790998275475000,5.704474853515625,2.5083237138986587,1.670338519796729,0.0645890842884779
1772790998295507000,5.7245068359375,1.5817128724910319,1.2879635887861252,1.4185761740803717
1772790998315539700,5.744539794921875,0.698134094210714,0.6398410413265228,2.897880080845952
1772790998335573000,5.764572998046875,-0.01764803102388978,-0.05007072959244251,4.469653596994281
1772790998355605800,5.784605712890625,-0.9788684135198592,-0.5413549481332302,5.862064817726612
1772790998375638000,5.804637939453125,-1.9357694715119897,-0.9680243634223937,6.372362948817014
1772790998395670800,5.8246708984375,-2.8965783505976197,-1.4465268418014048,6.02769961656332
1772790998415704000,5.8447041015625,-3.3313623910203574,-1.5669155547231435,5.350727406716347
1772790998435736000,5.864736083984375,-3.436200775849819,-1.372646197554469,4.4956724198699
1772790998455769000,5.88476904296875,-3.067095368517935,-0.9984621717840433,3.4958667245224118
1772790998475801900,5.9048017578125,-2.2490365256354212,-0.45641456521153445,2.646311211875081
1772790998495835100,5.924835205078125,-1.473370278932899,-0.044888943040370936,1.6673533665060996
1772790998515867000,5.944866943359375,-0.4417044873356819,0.0714642307549715,0.3520797459900379
1772790998535900000,5.96489990234375,0.8490903793536126,0.0902951879531145,-1.0962351482719181
1772790998555933000,5.984932861328125,1.9739830284416675,-0.12596914340257645,-2.0933558423191307
1772790998575966000,6.004966064453125,2.3397312343001366,-0.3071984017342329,-1.6650895132273436
1772790998595998000,6.024998046875,2.0862170764803887,-0.2954477581858635,-1.01930037715137
1772790998616031000,6.045031005859375,1.8918389982402324,-0.36437808654904363,0.060437517566978925
1772790998636064000,6.06506396484375,2.145700362062454,-0.43951486833691594,2.4095494514137505
1772790998656097000,6.085096923828125,1.7558851980485022,0.7460977685213088,5.036566764754057
1772790998676129000,6.10512890625,0.8268062129616737,1.7158727750033138,7.189604045575857
1772790998696162000,6.125162109375,-0.08907426785603165,1.6360680014044044,8.641743466562032
1772790998716195000,6.145195068359375,-0.07243862874507903,0.7916442986875772,9.880050751775503
1772790998736228000,6.16522802734375,0.4466574335679412,-0.7110533431470394,10.810592064499854
1772790998756259800,6.185259765625,1.561393430300802,-2.2732973989278076,11.093667832368611
1772790998776293000,6.205293212890625,3.011792291229963,-3.0137703133046627,10.01651673927307
1772790998796326000,6.225325927734375,3.768201025885343,-3.15782807110548,7.6910981079638
1772790998816358100,6.245358154296875,3.1738673517584797,-2.846518726921081,5.69063623791933
1772790998836391000,6.265390869140625,1.69507154064551,-2.2947622117608786,4.505702230975031
1772790998856424200,6.285424072265625,0.04173837005496025,-1.2895610871106384,3.5570565217614174
1772790998876457000,6.30545703125,-1.1408628100275993,-0.61108782505095,2.125497531989217
1772790998896489000,6.325489013671875,-1.6131785625956951,0.32030747415423394,0.8807330334603786
1772790998916522000,6.34552197265625,-1.7971993513420224,0.7682067244768143,-0.17851532319784164
1772790998936555000,6.365554931640625,-1.5914204659044742,1.00186233561635,-0.2997182751119137
1772790998956588000,6.385588134765625,-1.3130243802845478,1.2604928135365248,0.13686930760145186
1772790998976620000,6.4056201171875,-1.2484753357455134,1.4124410323262213,0.6726186908125877
1772790998996653000,6.425653076171875,-1.4428572133779525,1.246674131542444,0.9146756350725889
1772790999016686000,6.44568603515625,-1.4218988887622952,0.6795131265014409,0.8850187479555607
1772790999036719000,6.465718994140625,-1.1606500450372694,0.2184621336609125,0.989452935898304
1772790999056751000,6.485751220703125,-1.0142357872381806,-0.08888064498007298,1.1026678116679192
1772790999076783900,6.505783935546875,-0.8317126897037028,-0.05626549257934093,1.3845815500199794
1772790999096817000,6.52581689453125,-0.9305576793372631,0.513928596547246,1.7035130596458912
1772790999116849000,6.545848876953125,-1.4627996389493345,1.0094874236673117,1.5200719704836607
1772790999136882200,6.565882080078125,-1.8245149360299109,1.4443682024627924,1.2018337038189173
1772790999156915000,6.5859150390625,-1.8384271415263413,1.9293033442378043,1.041303534644842
1772790999176948000,6.605947998046875,-1.7622940421774982,2.1873884632349014,0.8268459604501723
1772790999196980000,6.62597998046875,-1.6150608692109585,2.2277222271889445,0.4468950417160988
1772790999217013000,6.646012939453125,-1.5201991039946674,2.1028625063329933,0.16762977204620838
1772790999237046000,6.6660458984375,-1.722620495697856,2.197849651494622,0.19906652831733226
1772790999257078800,6.686078857421875,-2.3109487919300795,2.377660275200009,0.15435469540953636
1772790999277111000,6.706111083984375,-3.0443063213437793,2.8178455901443957,-0.10453706379532814
1772790999297144000,6.72614404296875,-2.967566488273442,4.597760629208386,0.42342824141085145
1772790999317177000,6.746177001953125,-3.163817082387209,6.594811521765589,0.12945581647455692
1772790999337209900,6.7662099609375,-3.9076808082461354,8.32048322172761,-0.8649164556473493
1772790999357242000,6.7862421875,-4.949028182032704,8.500248252725601,-3.196725080254674
1772790999377275000,6.80627490234375,-5.481732206198573,7.584231139916181,-5.678112856432795
1772790999397308200,6.82630810546875,-5.256752653467655,5.863816629830002,-7.506214418777823
1772790999417339600,6.846339599609375,-4.40703698182255,4.207418957102298,-7.773402297163009
1772790999437372700,6.86637255859375,-3.1560701215222475,2.36860456982404,-7.320974171239137
1772790999457405400,6.886405517578125,-1.852228580124676,0.9836559400573373,-6.895067557016015
1772790999477438700,6.906438720703125,-0.05286883587837219,0.906454334694147,-6.493998446929455
1772790999497470700,6.926470703125,2.086330181466043,1.6510604033529757,-6.050082128763198
1772790999517503500,6.94650341796875,3.658751347868144,2.660171394923329,-5.714965792533755
1772790999537536500,6.96653662109375,4.6820428404822945,3.570641979521513,-5.173606752747297
1772790999557569500,6.986569580078125,4.870379008209705,4.046779482334852,-3.7451954133510585
1772790999577601800,7.006601806640625,4.020188704790175,4.35033222104311,-1.5553917056679725
1772790999597634600,7.026634521484375,2.079816415657848,3.8842245293349027,0.24546587592065333
1772790999617667600,7.04666748046875,0.20657032807618378,3.140391783136129,1.8352450043588875
1772790999637699600,7.066699462890625,-1.1806959309831262,2.3367723844945427,2.931802808713913
1772790999657732600,7.086732666015625,-1.9901719466984271,1.493763224750757,3.623246026983857
1772790999677765600,7.106765625,-2.278901210284233,0.7003279509931802,3.9673715990990397
1772790999697798400,7.12679833984375,-2.1622131054461002,-0.08107610870897769,4.072185141748189
1772790999717830700,7.14683056640625,-1.7784905592188238,-0.5483645346343518,3.928832025085389
1772790999737863400,7.166863525390625,-1.2317922042310236,-1.1122609849214553,3.603577157656848
1772790999757896700,7.186896728515625,-0.621744535882771,-1.4571394212305544,3.045839814521372
1772790999777929500,7.206929443359375,-0.16347557497620582,-1.7809598719418047,2.384901332369447
1772790999797961500,7.22696142578125,0.2810746571794152,-1.8325462667942045,1.8576532355219124
1772790999817994500,7.246994384765625,0.45997678773775696,-1.7344658317923545,1.4472908119112253
1772790999838027500,7.267027587890625,0.6406793918468058,-1.424239606669545,1.089372276765108
1772790999858060500,7.287060546875,0.7064449725687504,-0.7320026076734065,1.4605544903710483
1772790999878092500,7.307092529296875,0.21536635960265993,-0.29627485665977,1.6618182364717125
1772790999898125600,7.32712548828125,-0.1560629606321454,-0.18031798870563506,1.9184929041489958
1772790999918158600,7.34715869140625,-0.535858981065452,-0.16957389185130595,2.207719011341035
1772790999938190600,7.367190673828125,-0.8421059272937477,-0.5460802230894565,2.7314488709345457
1772790999958223600,7.3872236328125,-0.9419085099130868,-1.0998930862575769,3.8336128247335552
1772790999978256400,7.40725634765625,-0.4077718225955963,-0.5389741904765367,6.101620592820644
1772790999998289700,7.42728955078125,-0.7818252077236771,-0.4356120156794786,7.570093308970332
1772791000018321400,7.4473212890625,-0.932023660236597,-0.7128712062239646,9.095081693068146
1772791000038354700,7.467354736328125,-0.7702154339507221,-0.8961731791764497,10.508246948015689
1772791000058387500,7.487387451171875,-0.5659069133266806,-1.9040303712934254,11.2556821026206
1772791000078420700,7.507420654296875,-0.2249672777712345,-2.5306927820950746,11.437339815497397
1772791000098452500,7.527452392578125,0.060677171541750424,-2.7625439741611477,10.418597656750679
1772791000118485800,7.54748583984375,0.08762903748378158,-2.6345208208382127,8.490939157110452
1772791000138518500,7.5675185546875,0.02377367429733276,-1.8338515041738748,6.98288086502552
1772791000158551800,7.5875517578125,-0.46000367574468254,-0.8324410039782524,5.390936082985997
1772791000178583600,7.60758349609375,-0.8838307072147726,0.09680617728233337,3.82800901337713
1772791000198616600,7.627616455078125,-1.137151972810924,0.8439309507638215,2.715167305958271
1772791000218649600,7.647649658203125,-1.2078405430182815,1.5854536664545535,2.161599357461929
1772791000238681600,7.667681640625,-1.3201193069815635,2.2712971650213003,1.7369184856414794
1772791000258714600,7.687714599609375,-1.6855413496255873,2.7011931411415335,1.2322557300895451
1772791000278747600,7.70774755859375,-2.2639199142515656,3.0845611748427153,0.9422083696424961
1772791000298780700,7.72778076171875,-2.8923505037695167,3.1144460254967212,0.8363993862152099
1772791000318812700,7.747812744140625,-3.196364430248737,3.039510319238901,0.790965668773651
1772791000338845400,7.767845458984375,-2.8554014138177037,2.772640420761704,0.27437457501888274
1772791000358878700,7.787878662109375,-2.134208369450271,2.844210449978709,-0.24669278736710548
1772791000378911500,7.807911376953125,-1.5061042354077099,3.634581075468659,-0.21324586031734943
1772791000398943700,7.82794384765625,-1.3961945386633277,4.256664341786504,-0.09710486796796321
1772791000418977300,7.847977294921875,-1.266753042975068,4.418085322320461,-0.136990303632617
1772791000439010000,7.868010009765625,-0.9865449394971132,4.4291514907360074,-0.40921442261934277
1772791000459042300,7.888042236328125,-1.0546072528541088,4.113892532142996,-0.9207336199373006
1772791000479075000,7.908074951171875,-1.2180804897427557,4.105787259359658,-1.1483189712524413
1772791000499108400,7.9281083984375,-1.5782149473726748,4.422146288149059,-1.1700818902492522
1772791000519141000,7.94814111328125,-2.045383838571608,4.9290293500989675,-1.2044967855483293
1772791000539173000,7.968173095703125,-2.4169272867053744,5.593534292560816,-1.3472335238784552
1772791000559203000,7.988203125,-2.6497107911854982,6.105457394504547,-1.775744767642021
1772791000579236400,8.008236328125,-2.4212512873843313,6.738647745770216,-2.1493027704685925
1772791000599268000,8.02826806640625,-2.1111612558618185,7.304826169514656,-2.4562819764941928
1772791000619301400,8.04830126953125,-2.075187148422003,7.677804911148548,-2.974363601067662
1772791000639334100,8.068334228515624,-2.0226967904672026,8.012389916980267,-3.7546792810112235
1772791000659367400,8.088367431640625,-1.9619103133320808,8.096390973225235,-4.666872451618313
1772791000679399200,8.108399169921874,-1.6462635244652628,7.87953802832663,-5.884693413642048
1772791000699432200,8.12843212890625,-0.7344425481714307,6.946806512081623,-7.597982601892948
1772791000719465200,8.14846533203125,0.9160871093057096,5.769037574461102,-8.794283806025982
1772791000739497200,8.168497314453125,2.644285843527317,4.6665509645789855,-8.773409360301494
1772791000759530200,8.1885302734375,3.645355567461252,3.3772026434361933,-7.879231154334545
1772791000779563300,8.208563232421875,4.387279849690199,2.343274021473527,-6.831328952077031
1772791000799596300,8.22859619140625,5.078100552147626,1.9883467770978807,-5.677976078310609
1772791000819628300,8.248628173828125,5.516689537811279,2.369532790584862,-4.511485490551591
1772791000839661000,8.2686611328125,5.238900185912847,2.9152573321044444,-3.4219437024384733
1772791000859694300,8.2886943359375,4.169963671194017,3.5791339135348794,-2.042248755416274
1772791000879727000,8.30872705078125,2.6345161446630954,4.813097616586089,-0.24256956995725631
1772791000899759400,8.32875927734375,0.4664207031801343,5.77638969078958,1.3454711903810501
1772791000919792000,8.348792236328125,-1.6409443752691149,5.561040136191249,2.346237547454238
1772791000939825400,8.368825439453126,-3.208606364445388,4.545316448482871,3.022396687352657
1772791000959857200,8.388857177734375,-4.121727755813301,3.137044810795784,3.5898090368062254
1772791000979890200,8.40889013671875,-4.2660339354172345,1.755720216745138,4.312466308507323
1772791000999923200,8.428923095703125,-4.17784653339833,1.0348813926428555,5.242798362395167
1772791001019956200,8.448956298828126,-4.013146092802286,0.09892448461055756,5.308229158204794
1772791001039988200,8.46898828125,-3.581896363985538,-0.7529957113415002,4.6569206741854545
1772791001060021200,8.489021240234376,-2.705316650812328,-1.0390572170227765,3.7356934255123138
1772791001080054300,8.50905419921875,-2.065899095594883,-1.135523787087202,2.9020839622765777
1772791001100087000,8.529087158203126,-1.765463319863379,-1.0737655423104762,2.008565097001195
1772791001120119000,8.549119140625,-1.6603052015602588,-0.9149953685462474,1.2110954531610012
1772791001140152300,8.56915234375,-1.6097861436784267,-0.7400836227983236,0.5133329687416553
1772791001160185000,8.58918505859375,-1.6985294260144232,-0.3486825047671795,0.061083706516027444
1772791001180218000,8.609218017578126,-1.8204200679317115,0.35916590485870836,-0.17615210119783878
1772791001200250000,8.62925,-1.9973294172376392,1.1282850680053234,-0.5689437968045473
1772791001220283400,8.649283447265624,-1.9550947880983351,1.597310692986846,-0.627186726936698
1772791001240316200,8.669316162109375,-1.7812579781055449,1.7093997795969247,0.21692279526442287
1772791001260348400,8.689348388671876,-2.3230334897384046,1.1881237428963183,1.2379469274684787
1772791001280381200,8.709381103515625,-2.9527029734015464,0.33157179549038407,3.0336446420758962
1772791001300414200,8.729414306640624,-3.357348188409209,-0.8056582109928131,4.655175584083795
1772791001320447200,8.749447265625,-2.625938285931945,-0.5996002163529396,7.100383793377876
1772791001340479200,8.769479248046874,-2.2063106058478352,0.09387772261500359,8.821892528441548
1772791001360512300,8.78951220703125,-1.6683441311091183,-0.1443967804968357,9.991896677279472
1772791001380545000,8.809544921875,-0.36817689431011674,-0.8637310452550649,11.179895332491396
1772791001400578300,8.829578369140625,0.8144841992661357,-1.7816443470746277,12.884670959419012
1772791001420610000,8.849610107421874,1.5002707069486378,-3.267753257679939,13.44516432326436
1772791001440643000,8.86964306640625,1.928878689084947,-3.9307174004405736,11.90774783474803
1772791001460675800,8.88967578125,1.5764631352692842,-3.5348645636975764,9.270631152197717
1772791001480707800,8.909707763671875,0.7955027276813983,-2.535225749349594,6.754951230317354
1772791001500741000,8.9297412109375,0.19821751027256249,-1.9798463675171136,4.703329666399956
1772791001520774000,8.94977392578125,-0.14420330375134943,-1.034960887619853,3.5358681877821683
1772791001540807000,8.969806884765624,-0.45083822638392446,-0.4133241960257292,2.345871344490349
1772791001560839000,8.9898388671875,-0.33171471109241246,-0.034710663375258445,1.6313696144551038
1772791001580872000,9.009871826171874,-0.16995806886330245,0.49158992348909375,1.4596528653562069
1772791001600905000,9.029905029296875,-0.2666321441985667,1.2047563132673502,1.5936930870115755
1772791001620938000,9.04993798828125,-0.7414727390691638,1.9964117178708314,1.9682260723501444
1772791001640970000,9.069969970703125,-1.3169022446312009,2.8240426912188528,2.6453911744207144
1772791001661002800,9.090002685546875,-1.9003101817265151,3.392880689561367,3.101090869361162
1772791001681036000,9.1100361328125,-1.7974430969700217,3.5755770978361365,3.36825712043643
1772791001701068000,9.130068115234375,-1.563264923261106,3.3572616791695356,2.6208359943568706
1772791001721101000,9.15010107421875,-1.2102572487711907,3.1819805155873295,0.9715350018918514
1772791001741133800,9.1701337890625,-1.1077718568086623,2.9786469774752855,-0.2192640976935625
1772791001761167000,9.1901669921875,-0.7764028904139995,2.9325170944631096,-0.5024351426303386
1772791001781199000,9.21019921875,-0.5329357870951295,2.9008225640386343,-0.15793255389630795
1772791001801232000,9.23023193359375,-0.6578221036970615,3.0578485244840383,0.1665185959339142
1772791001821265000,9.250264892578125,-1.1618383780390023,3.3262036930829284,-0.048563832160830496
1772791001841298000,9.2702978515625,-1.6588047338694334,3.819041863067448,-0.5966174011498689
1772791001861330000,9.290329833984375,-2.007574624659121,4.409605078744888,-1.4084908333957193
1772791001881363000,9.310363037109376,-1.9126599602118133,5.029706815856695,-2.414761633104086
1772791001901396000,9.33039599609375,-1.4173381567180157,5.5029404139220714,-3.3475299742281437
1772791001921428000,9.350427978515626,-1.00231913947314,5.738311012285948,-3.9683307995200154
1772791001941460700,9.370460693359375,-0.7468503404542803,5.466212565505504,-4.578150796592236
1772791001961494000,9.390493896484376,-0.6872986658111214,5.165715122714638,-4.839992637774348
1772791001981526800,9.41052685546875,-0.8239528693571686,4.820034722372889,-5.117171164298057
1772791002001559000,9.43055908203125,-1.0905977269068359,4.4722734241038555,-5.515039432516693
1772791002021591800,9.450591796875,-1.1138587755069136,4.412744545814395,-5.817589716184139
1772791002041625000,9.470625,-0.31482670465558765,5.5498278373032806,-5.469678780311345
1772791002061657900,9.490657958984375,0.17141192093342542,6.470909832286834,-5.889608658212423
1772791002081690000,9.510690185546874,-0.21404607078433036,6.380796430641412,-6.666528265976906
1772791002101723000,9.530722900390625,-0.539497629828751,6.46864247187674,-6.827662246263027
1772791002121756000,9.550755859375,-0.49637365063428873,6.985925639548897,-6.583643646541238
1772791002141788000,9.570787841796875,-0.525830923525989,7.061319026446342,-6.451684907335043
1772791002161821000,9.590821044921874,-0.5411383827731013,6.924718598914146,-5.602986011517047
1772791002181854000,9.61085400390625,-0.6626651598140597,6.4179790370881555,-4.341433459794521
1772791002201887000,9.630886962890624,-0.9007871027126908,5.505532183980941,-2.9870512332051993
1772791002221919000,9.6509189453125,-1.0913014912620187,4.766436987698078,-1.581708050185442
1772791002241952000,9.670951904296874,-1.0548542133525014,4.7910956281363966,0.40840135267078875
1772791002261985000,9.690985107421875,-1.1480188192620873,5.053485166329145,2.6223241870880125
1772791002282017000,9.71101708984375,-1.4423875500395893,4.61738156774044,4.408695562684536
1772791002302049800,9.7310498046875,-1.4950821983948348,3.09490312063694,5.873862223026156
1772791002322083000,9.7510830078125,-1.0300675626203417,1.2232955940425396,7.191460487097501
1772791002342115800,9.77111572265625,-0.279111248151958,-0.1637380253046751,8.310197974556685
1772791002362148000,9.791148193359374,0.48720805514305826,-1.5799176596373319,8.62705092434287
1772791002382180900,9.811180908203125,1.157352172535658,-2.364527821904421,8.158112393122911
1772791002402214100,9.831214111328125,1.32032184381634,-2.525201198941469,7.057054354739189
1772791002422247000,9.851246826171876,0.9645327219143509,-2.07515499971807,5.749430372193455
1772791002442279000,9.87127880859375,0.26925065613389015,-1.294045539048314,4.480113908471167
1772791002462312000,9.89131201171875,-0.6967734733819961,-0.6352642349302768,2.9453765760362147
1772791002482345000,9.911344970703125,-1.4797101494789122,-0.5958920094847678,1.2491577650517225
1772791002502376700,9.931376708984375,-1.9312404497802256,-0.9760025026947259,0.03152589585930109
1772791002522410000,9.951409912109375,-1.983799196796119,-1.423488496041298,-0.5237865582168102
1772791002542442800,9.97144287109375,-1.7613047388792038,-1.8445038310915232,-0.410864527913928
1772791002562476000,9.99147607421875,-1.3774889614105224,-1.8760925630539655,0.013372107270359992
1772791002582507800,10.0115078125,-1.4764033630184827,-1.6137468640029429,0.2542944945424795
1772791002602541000,10.031541015625,-1.6987037596680223,-1.185847614657879,0.6655237641155719
1772791002622573800,10.05157373046875,-1.6769366028875112,-0.552765399941802,1.506208572565019
1772791002642605800,10.071605712890625,-1.600728976997733,-0.21884382645487785,2.514658469878137
1772791002662638800,10.091638916015626,-1.218155016283691,-0.4809364275276661,3.5650729472175238
1772791002682671900,10.111671875,-0.74282240011245,-1.027810431343317,4.902489425958692
1772791002702705000,10.131704833984376,-0.3140492905423045,-1.9312486330866812,6.182209794795512
1772791002722737000,10.15173681640625,0.3263622441485524,-3.0073493403464555,7.190621113663911
1772791002742770000,10.17177001953125,2.019772135192156,-2.6930712094843385,8.454051149696111
1772791002762803000,10.191802978515625,3.4772423958122727,-1.7286603603839874,8.852708522465825
1772791002782836000,10.2118359375,4.249256695878506,-1.0754431201338768,8.686350085529684
1772791002802868000,10.231867919921875,4.148113366174698,-0.9695189858943224,8.416738779389858
1772791002822900700,10.251900634765626,3.64759779343009,-1.0465285758167504,8.371286357247829
1772791002842934000,10.27193408203125,2.6109868005156516,-1.0876029290050269,7.979862442862987
1772791002862965800,10.2919658203125,1.393396432377398,-0.9789502465844154,7.182596212640404
1772791002882999000,10.3119990234375,0.2507942313365638,-0.697756639200449,6.04554740794301
1772791002903031800,10.33203173828125,-0.6164928989648819,-0.4348720109671354,4.6068145810186865
1772791002923064800,10.35206494140625,-1.3775311931170522,-0.36087796947360035,3.3669401926189657
1772791002943096800,10.372096923828124,-1.6770285189546643,0.04175122953653335,2.5582363303199407
1772791002963129900,10.3921298828125,-1.7448261900261044,0.742628631106019,1.9922002376556396
1772791002983163000,10.412162841796874,-1.7848948733031749,1.6539561247944832,1.4926970568239688
1772791003003195000,10.43219482421875,-2.004654061037302,2.731654330378771,0.8714350437611341
1772791003023228000,10.452227783203124,-2.0243350591935214,3.9587984165430066,0.7406459328562021
1772791003043261000,10.472260986328125,-2.0621324365377425,4.872415482473373,0.8603507551670074
1772791003063294000,10.4922939453125,-2.5122519932582974,5.18646974145174,0.7838800944268703
1772791003083326000,10.512325927734375,-3.207622321844101,4.572728187021613,0.1347498312294483
1772791003103359000,10.53235888671875,-3.355794821487367,3.5711242100805043,-0.05595394241213798
1772791003123391700,10.552391845703125,-3.1818501672059294,2.7353140219300984,-0.08222937039732933
1772791003143423700,10.572423828125,-2.965793925642967,2.0288865850180384,0.03823357680439949
1772791003163457000,10.59245703125,-2.7795307647973297,1.6581436396121978,0.3665232818841934
1772791003183489800,10.61248974609375,-2.6868016276955604,1.470033389595151,0.8376572773218155
1772791003203522800,10.632522705078125,-2.4986802717626095,1.7894477143019436,1.1069938581734895
1772791003223554800,10.652554931640625,-2.5828297965675593,2.2159324206739663,0.8150649217635393
1772791003243588000,10.672588134765626,-2.81185131816566,2.8166110799133777,0.2611532743960619
1772791003263620900,10.692620849609375,-3.1130332360893487,3.6210946941688653,-0.16578092930912972
1772791003283654000,10.71265380859375,-3.5666046868294474,4.313024234651029,-0.6169482415169477
1772791003303686000,10.732685791015625,-3.676805183213949,5.0247196750938885,-1.1072568930238484
1772791003323719000,10.752718994140626,-3.874087750723958,5.346349337762594,-1.711767677772045
1772791003343752000,10.772751953125,-3.909147373667359,5.335411764162779,-2.2963941968768835
1772791003363784000,10.792783935546876,-3.639579322147369,5.232198057925701,-2.8077620030254122
1772791003383817000,10.81281689453125,-2.96631064299345,5.683533127915859,-3.1476182272583246
1772791003403849700,10.832849609375,-2.4504472789913416,6.284537365847826,-3.3098739050507544
1772791003423883500,10.852883544921875,-2.303994442747533,6.727696143645048,-4.065677075028419
1772791003443915300,10.872915283203126,-1.9449802213191985,7.383430919674039,-4.700032962942123
1772791003463948300,10.8929482421875,-1.5740455527335404,7.686170003911853,-5.699843042203784
1772791003483981300,10.912981201171876,-0.9231585089966654,7.219945992347598,-7.010337027227878
1772791003504013300,10.933013427734375,-0.003892623524367809,6.426991195583343,-8.173094858199358
1772791003524046300,10.95304638671875,1.0670819728933274,5.240706358551979,-8.504863053044676
1772791003544079400,10.973079345703125,1.9739678308725357,4.290779377356172,-8.05721690070033
1772791003564112400,10.9931123046875,2.5621102491438386,3.7337127730891106,-7.07560824856162
1772791003584144400,11.013144287109375,3.551141160237789,3.6746091344743963,-6.0258303155601025
1772791003604177200,11.03317724609375,4.933792618978023,4.263237290436029,-4.500529796773195
1772791003624210400,11.05321044921875,5.928683946537971,4.305302408227324,-3.0698487588793038
1772791003644243200,11.0732431640625,6.938964566409587,4.074748854756355,-1.4007330588757991
1772791003664275500,11.093275390625,6.724380735486745,4.028117451962828,0.796715610602498
1772791003684308200,11.11330810546875,4.6662008359670635,4.1398967419713735,2.8746184477239844
1772791003704341500,11.133341552734375,2.194285821533203,4.903818336474895,5.231112016254663
1772791003724373200,11.153373291015624,-0.3750096629396081,4.497900032791495,6.485248154240846
1772791003744406300,11.17340625,-2.4309856226742266,2.5740987931013106,6.6961319616019725
1772791003764439300,11.193439208984374,-3.107642482961714,0.5630202519744635,7.353920163029432
1772791003784472300,11.213472412109375,-3.116789958274364,-0.6496861435145139,8.257096498966217
1772791003804504300,11.23350439453125,-2.680953193928301,-1.9258119949907064,8.020604787617922
1772791003824537300,11.253537353515625,-2.0372180677726863,-2.5445856983691453,6.581019727778434
1772791003844570400,11.2735703125,-0.9661623689427972,-2.276356786498427,5.094036372426152
1772791003864602400,11.293602294921875,-0.319781404453516,-1.985837716886401,3.5798645658969876
1772791003884635400,11.313635498046875,0.168294373434782,-1.7410878802806138,2.043647224037349
1772791003904668400,11.33366845703125,0.5045674784839153,-1.505916019359231,0.6180255153596401
1772791003924701200,11.353701171875,0.7919070412769913,-1.2759563401281833,-0.6820405991524457
1772791003944733400,11.3737333984375,0.5958928862676024,-1.053916932502389,-1.7281494882524013
1772791003964766200,11.39376611328125,0.12246931858807801,-0.918746830034256,-2.4686633191615344
1772791003984799500,11.413799560546876,-0.3985857688382268,-0.7570090386360884,-2.9163427892535925
1772791004004832300,11.433832275390625,-0.9834975346252322,-0.5509381845146417,-3.1289328160107135
1772791004024864500,11.453864501953126,-1.4099775648221373,-0.08538754216730594,-3.166107239151001
1772791004044897300,11.473897216796875,-1.968711517779529,0.636610388842225,-2.8428403306692838
1772791004064930600,11.4939306640625,-2.9724492918789385,1.1714689606934785,-2.497828623369336
1772791004084962300,11.51396240234375,-3.9316979359105226,1.1400216830283403,-2.2999627030134198
1772791004104995300,11.533995361328126,-4.302867582295835,0.8760849153935909,-1.9367840553820133
1772791004125028400,11.5540283203125,-3.9304128645360468,0.499500842744112,-1.0136650016129016
1772791004145061400,11.574061279296876,-3.163798085425794,0.03588730593919754,1.0553297219097613
1772791004165093400,11.59409326171875,-1.9823533819019794,-0.2730646614640951,3.984738328963518
1772791004185126400,11.61412646484375,-0.4135945373997092,-0.19884850165247916,6.84110274259448
1772791004205159400,11.634159423828125,1.4227449841976165,-0.3688327278703451,8.413609249192476
1772791004225191400,11.65419140625,4.7866158523738385,-0.8716507323384285,9.100174632292985
1772791004245224200,11.67422412109375,7.5605013047605745,-1.8095459149569273,10.67365261427164
1772791004265257500,11.694257568359374,7.0886372414827346,-2.169911843255162,11.838538104921579
1772791004285290200,11.714290283203125,4.280857702800631,-3.1374346868962046,7.647096469151974
1772791004305322500,11.734322509765626,2.2419337078928945,-3.393745197436213,3.855407307912409
1772791004325355300,11.754355224609375,0.9704331781297921,-4.0633997777462,1.4159732981055975
1772791004345388300,11.77438818359375,1.7636884191453457,-4.288660485506058,0.27928105176091195
1772791004365421300,11.79442138671875,3.001393646812439,-3.491828555047512,-0.07974106071293353
1772791004385453300,11.814453369140624,2.512241179603338,-2.733053091260791,-0.4456342280000448
1772791004405486300,11.834486328125,1.2196972772896288,-1.9204998600572347,-0.4125555497407913
1772791004425518600,11.8545185546875,0.3028653409659862,-1.3673843315035104,-0.5426368046373129
1772791004445550600,11.874550537109375,0.24035949269235132,0.2989800239652395,-0.7613222256600857
1772791004465583600,11.89458349609375,0.3052057666122913,0.9705991823464631,-0.4565624492496252
1772791004485616600,11.91461669921875,0.8130471522003412,1.1823305464476346,-0.17620996886491774
1772791004505649700,11.934649658203124,1.3865128103435038,1.3420084827065466,0.5896189205646515
1772791004525681700,11.954681640625,1.461778771468997,1.7731576737582682,1.4821943675100802
1772791004545714700,11.974714599609374,1.279130878511071,1.9172031565994023,2.086628579890728
1772791004565747700,11.994747802734375,0.8424240533322095,1.5958604941785335,2.4844383959203955
1772791004585779700,12.01477978515625,-0.1758335367679596,1.3361270234525202,2.664396319141984
1772791004605812500,12.0348125,-1.2965589831739663,1.1890315053910017,2.756540349832177
1772791004625845800,12.054845703125,-2.3385563453018663,1.5173907685756682,2.5530349622845647
1772791004645878500,12.07487841796875,-3.010265520054102,2.015897339585423,1.9457617270857095
1772791004665910800,12.094910888671874,-3.1625463317990303,2.667124282801151,1.1515507927805184
1772791004685943600,12.114943603515625,-2.806964422906935,3.261444220663607,0.29464345606565473
1772791004705976800,12.134976806640625,-2.2935554663196203,4.099007682222128,-0.27427228368818757
1772791004726008600,12.155008544921875,-1.7345248685032129,4.790387479867041,-1.0200175855100155
1772791004746041600,12.17504150390625,-1.4410282443851232,4.661072825428843,-1.9766835195720194
1772791004766074600,12.19507470703125,-0.8657555368199944,4.852301207466423,-2.8277281017333267
1772791004786107600,12.215107666015625,-0.21084318308979272,4.791167232067883,-3.5879409048467874
1772791004806139600,12.2351396484375,0.33243951823562384,4.51753061593473,-4.3947740048378705
1772791004826172700,12.255172607421875,0.5877534189537167,4.198663403716683,-5.446952569240331
1772791004846205700,12.275205810546876,0.674893357746303,4.061001484432817,-6.375650884446501
1772791004866238700,12.29523876953125,0.6193167242139578,3.9328310315936803,-7.487846402916312
1772791004886270500,12.3152705078125,0.9431219773560762,3.7781934275895357,-8.452124565547704
1772791004906303700,12.3353037109375,0.897213335879147,3.596740589635074,-8.076828779143094
1772791004926336500,12.35533642578125,1.208331833666563,2.5379408535271883,-7.473939458116889
1772791004946368800,12.37536865234375,2.378872865860164,1.8073612643942236,-6.62211337018907
1772791004966401500,12.395401611328126,2.7602286829560994,1.678990320546925,-6.120965344759822
1772791004986436600,12.4154365234375,2.4650322691828013,2.3665584509491917,-6.176202663335204
1772791005006469600,12.4354697265625,1.800575257515907,2.958658959196508,-6.174723238432407
1772791005026501600,12.455501708984375,0.9397732514500617,3.4183705201268193,-5.900413545343279
1772791005046534700,12.47553466796875,0.9801116915792226,4.834969841176271,-3.974678122720122
1772791005066567700,12.495567626953125,1.7694257937535642,8.051336025968194,-1.2641028207272291
1772791005086600400,12.515600341796874,1.5229890269741415,9.825856220251321,0.8817652991175651
1772791005106632700,12.5356328125,0.3748766842097044,9.988546197807787,2.5536188996523617
1772791005126665500,12.55566552734375,-0.28020196599811314,8.93231455862224,3.6720915986955163
1772791005146698800,12.57569873046875,-0.4486456847757101,6.704158616191148,3.9690877553671595
1772791005166730800,12.595730712890624,-0.6724760674715041,4.175703968411684,4.50252447772175
1772791005186763500,12.615763427734375,-0.8865636393100023,2.1991204020828006,5.351513004136085
1772791005206796500,12.635796630859375,-1.060457440187037,0.39935061573088165,5.568915399610996
1772791005226829600,12.65582958984375,-1.28944652082026,-0.7712018146395683,5.623977946141362
1772791005246861800,12.67586181640625,-1.6443693812817335,-1.796222907525301,5.4963937687575815
1772791005266894600,12.69589453125,-2.1428350357592105,-2.614768072620034,5.238358918642997
1772791005286927600,12.715927734375,-2.371537992927432,-2.494171269905567,5.366800589638948
1772791005306959600,12.735959716796875,-2.6621441563010215,-1.7557471047520636,5.518257225519418
1772791005326992400,12.755992431640625,-3.1873236301809547,-1.2601859395444392,5.350006106704473
1772791005347025700,12.776025634765626,-3.6299306193143126,-0.6047212126284838,5.139259077465534
1772791005367058400,12.796058349609375,-3.7490900827020406,0.48257133525311946,4.709439965973794
1772791005387090700,12.816090576171876,-3.8738796609312294,1.2115145553559064,3.5815786763384936
1772791005407123500,12.83612353515625,-3.8904450112849474,1.0896171914368866,2.7936083899885413
1772791005427157000,12.856156982421876,-3.84474650542736,0.4974953481405973,2.464110478162765
1772791005447188700,12.876188720703125,-3.8149937567204235,-0.5354249735623597,2.187484032563865
1772791005467222000,12.896221923828126,-3.270726136010885,-1.4217793540358543,1.8951137821272015
1772791005487254800,12.9162548828125,-2.4694290428370236,-2.1039923871457575,1.4769295788496732
1772791005507288000,12.9362880859375,-1.2538836245298386,-2.1774960147738454,1.0687482986703514
1772791005527319800,12.95631982421875,-0.2647346400141716,-2.0362012919455768,0.7119961769551039
1772791005547352800,12.976352783203126,0.6770096192479134,-1.88279819817245,0.2218172893077135
1772791005567385900,12.9963857421875,1.6601096789881586,-1.835471798852086,0.026818156559765337
1772791005587419000,13.0164189453125,2.7367893551796674,-1.6224404580682514,0.3852735750615597
1772791005607451000,13.036450927734375,3.5263597702026366,-1.5017068772315978,0.8010507171973585
1772791005627484000,13.05648388671875,4.13669531558156,-1.6231255177229642,1.1303218345299362
1772791005647517000,13.076516845703125,5.080900996521115,-1.649390424314141,1.4451619831889866
1772791005667549000,13.096548828125,5.543073686867952,-1.723259962645173,1.2211594587966799
1772791005687581700,13.116581787109375,5.506751496642828,-1.2547609918862581,1.0406646522194147
1772791005707615000,13.136614990234374,4.281723379719257,-1.1362778203248978,0.8418190731763839
1772791005727647700,13.156647705078125,2.7649928286179897,-1.4802619381427764,0.6605667262300848
1772791005747680000,13.176679931640624,1.5410045761361717,-1.9465847339063882,0.756733728826046
1772791005767712800,13.196712646484375,0.6538377102360129,-2.4014567458510396,1.0151295212075113
1772791005787746000,13.21674609375,0.005595920310914516,-2.6984868047922848,1.3823852090194821
1772791005807777800,13.23677783203125,-0.36599984253197904,-2.635563023367524,1.8014184303417802
1772791005827810800,13.256810791015624,-0.7866215020895004,-2.5192186174005267,1.971663937844336
1772791005847843800,13.27684375,-1.0722139289543031,-2.3526725489377975,2.0653119433566927
1772791005867876900,13.296876953125,-1.1170300990194082,-1.6717326045036316,2.4804364668026566
1772791005887908900,13.316908935546875,-0.22372809136509894,2.2240748105973003,4.438184984280169
1772791005907942000,13.33694189453125,-0.6861620629966259,4.889913145241141,4.993450092083215
1772791005927975000,13.356974853515625,-1.7398533700495957,5.698756416010856,4.984609783023595
1772791005948008000,13.377008056640625,-2.330162318705022,5.588529616141319,4.930373750445247
1772791005968040000,13.3970400390625,-2.8577292722433802,2.7165982155442236,3.263054870730638
1772791005988073000,13.417072998046875,-3.0239982773303984,0.17049042217433452,2.2140227876603604
1772791006008105700,13.437105712890625,-3.1891388629093766,-1.6761615268617867,1.3195990824997423
1772791006028138000,13.457137939453125,-3.2282962765604255,-2.950193620929122,0.4938263042390346
1772791006048170800,13.477170654296875,-2.9592692000493406,-3.0057454122811555,0.1885650080472231
1772791006068204000,13.4972041015625,-2.561809512631595,-1.5803414380073546,0.21297756476998328
1772791006088236800,13.51723681640625,-2.2629566221773625,0.20704466758966444,0.02134907749891281
1772791006108269000,13.53726904296875,-2.0452949912443756,1.619237278112769,-0.7294108376145363
1772791006128301800,13.5573017578125,-1.237636546345055,2.674741187545657,-1.0715759233117104
1772791006148335000,13.577335205078125,0.11007248609066009,3.2066619523793456,-0.2943231380701065
1772791006168366800,13.597366943359376,0.9265674406573176,2.230396414834261,0.9728992759823799
1772791006188399900,13.61739990234375,1.9753873422816395,1.013699488404393,2.7296920903950928
1772791006208433000,13.637432861328126,2.9833666994735597,0.20969313627183436,3.7212282623082396
1772791006228466000,13.6574658203125,3.270902953882515,0.2543973703950643,4.335848353138566
1772791006248498000,13.677497802734376,2.700366042667627,0.8349281446188688,4.149471795046329
1772791006268531000,13.697531005859375,2.061338948072493,2.0153619175344706,3.58301280079484
1772791006288564000,13.71756396484375,1.6252441173121333,3.1522260133147237,2.188563936755061
1772791006308596000,13.737595947265625,1.373216983179748,3.979044793497026,0.7009335156708956
1772791006328628700,13.757628662109376,1.1742572762377559,4.5260988300547,-0.6059358491152524
1772791006348662000,13.777662109375,0.9648518708661198,5.044478268530964,-1.6772031448692082
1772791006368694800,13.79769482421875,0.6216130184575915,5.135924964606762,-2.6924399258434772
1772791006388727000,13.81772705078125,0.39806028365939855,5.136754985690117,-3.3353684117913245
1772791006408759800,13.837759765625,0.374504343765974,5.3014107103615995,-3.7319992471694943
1772791006428793300,13.85779345703125,0.4013686775550246,5.460436904713511,-4.564388228699564
1772791006448825300,13.877825439453124,0.33587942955642935,5.668729526537656,-5.530355075070261
1772791006468858400,13.8978583984375,0.48494025634154675,5.858303419366479,-6.199822608375549
1772791006488891400,13.917891357421874,0.6128723703801632,5.54798250169754,-6.93293639216125
1772791006508924400,13.93792431640625,0.691429628136009,5.061229496845603,-7.5048600815594195
1772791006528956400,13.957956298828124,1.109169156385958,4.627047221708297,-7.87101453013122
1772791006548989400,13.977989501953125,1.8204218214973806,4.470011616651713,-7.639425203871727
1772791006569022500,13.9980224609375,2.0063374840795993,4.31338459239602,-8.103883374807237
1772791006589054500,14.018054443359375,1.7897145485445856,4.22535793389678,-7.529487742337584
1772791006609087500,14.03808740234375,1.8980454516649246,4.57510134589374,-6.351224299198389
1772791006629120300,14.058120361328125,1.9179399464413522,5.980116612133384,-4.708295764374733
1772791006649153500,14.078153564453125,1.716331624686718,8.92631034977138,-2.8906501295924185
1772791006669185300,14.098185302734375,-0.317131182205677,11.820765132343768,-2.056276111724973
1772791006689218600,14.118218505859375,-2.308533547481894,13.490727804565429,-1.3674994823157787
1772791006709251300,14.138251220703125,-3.910363763719797,14.530393508875369,-0.33695816470384593
1772791006729283600,14.15828369140625,-4.394951114970445,14.319023379302024,1.2155050862967967
1772791006749316400,14.17831640625,-3.7956016585081813,12.549334258437156,3.8081665410488843
1772791006769349400,14.198349365234375,-2.0551813022255896,8.479836163815856,6.844382494917512
1772791006789382400,14.21838232421875,0.8476420802414417,2.9075831442147493,10.793408289986848
1772791006809414400,14.238414306640625,3.7249405608296393,-2.389451835280657,12.423171053767204
1772791006829447400,14.258447509765626,3.9062481450945135,-5.1755391821146,11.429845075827837
1772791006849480400,14.27848046875,2.258973105499148,-5.508315677219629,11.203867744231223
1772791006869512400,14.298512451171876,0.19364917944371698,-4.34013056050241,9.535039044475555
1772791006889545500,14.31854541015625,-1.6605501162320375,-2.396704582887888,6.998106491208076
1772791006909578500,14.33857861328125,-3.1581033809155223,-0.49149873807430267,5.237629435324669
1772791006929611500,14.358611572265625,-3.887862593576312,0.9534013793081044,4.340165924076736
1772791006949643300,14.378643310546876,-4.0818998955547805,1.422965933471918,3.4237843618690964
1772791006969676500,14.398676513671875,-4.307912882986664,1.3751403524577617,2.16133690713346
1772791006989709300,14.418709228515626,-4.426080997249484,1.1935948677837849,0.7199325229123235
1772791007009741600,14.438741455078125,-3.916184432697296,0.6554623888283968,-0.4938043846681714
1772791007029774300,14.4587744140625,-3.5306583441793915,-0.06764496472775935,-1.2989473396152258
1772791007049807600,14.4788076171875,-3.368533014768362,-0.572429885354638,-1.3787120734646916
1772791007069840400,14.49884033203125,-3.2941192865580318,-0.8144412369072437,-0.7896464028686284
1772791007089872400,14.518872314453125,-3.1242846979439256,-1.2209382172614336,-0.44356122111827134
1772791007109905400,14.538905517578126,-2.8693405073210596,-1.4647861365914343,-0.10689210248887539
1772791007129938400,14.5589384765625,-2.59109025991261,-1.3980518569678066,0.4404287683114409
1772791007149970400,14.578970458984376,-2.4374197473749515,-0.9688076227545738,0.9575500234201549
1772791007170003500,14.59900341796875,-2.1917352602675555,-0.6435322970598936,1.7862381046056746
1772791007190036500,14.619036376953124,-0.9383706911757588,-0.39793256562650203,2.1112334443151948
1772791007210069500,14.639069580078125,1.0023004347726703,-0.36036885090768334,2.720935660226643
1772791007230101200,14.659101318359374,3.573668926127255,-0.9317880979150533,3.3225518925771116
1772791007250134500,14.679134521484375,5.746525882923603,-1.5443845739632844,3.883006385716796
1772791007270167300,14.699167236328124,7.4810560121238225,-2.065878052806854,3.7346214123666286
1772791007290199600,14.719199462890625,8.589923262953757,-2.2917133455842733,3.107174280928075
1772791007310232300,14.739232421875,8.83339533470869,-2.418793080577254,2.3479461049377917
1772791007330265600,14.759265625,8.234735029554367,-2.5381506968855856,1.712461212994158
1772791007350298400,14.77929833984375,6.958290029126405,-2.582853761965036,1.3781997400283812
1772791007370330600,14.79933056640625,5.290414100050926,-2.631797533354163,1.46314392234236
1772791007390363400,14.81936328125,3.6493864304125307,-2.607567931982875,1.7313479920327663
1772791007410396400,14.839396484375,2.3945875907339156,-1.790584609377384,2.5884040895685554
1772791007430427600,14.859427734375,1.658131949174404,0.34536183591187,3.4687530921474097
1772791007450460700,14.879460693359375,0.6198027541652321,1.5903227337956427,3.794098560468852
1772791007470493400,14.899493408203124,0.11306143877357244,2.2728479015946386,4.075978688812255
1772791007490526700,14.919526611328125,-0.0044528877556324,2.3626392316788434,4.383229989777505
1772791007510558700,14.939558837890624,-0.11053279707878827,1.277296064299345,4.140917901712656
1772791007530591500,14.959591552734375,-0.4001812213361263,-0.3100269031584263,4.08695542537868
1772791007550624500,14.97962451171875,-0.6705880617678165,-1.146691662311554,4.591488709332048
1772791007570656500,14.999656494140625,-1.1363760200023652,-1.661405271756649,4.836048284062743
1772791007590689500,15.019689453125,-1.5552362228453158,-2.0347358955681325,4.6935985459804535
1772791007610722600,15.03972265625,-1.7583610866427422,-1.6504904945105314,4.1346521193161605
1772791007630755600,15.059755615234375,-1.8979674179926513,-0.8074392491906881,3.301084449395537
1772791007650787600,15.07978759765625,-1.9080755550310013,0.7990344089388847,2.6757833900749683
1772791007670820400,15.0998203125,-1.9650573791861532,2.4185008196324107,2.0794769545704126
1772791007690853600,15.119853515625,-2.308235733579099,3.5260476355135437,1.2436024690121412
1772791007710885600,15.1398857421875,-2.678487972858548,4.1697827616691585,0.4102595477581024
1772791007730918700,15.159918701171875,-3.1369580092951654,4.369479404583573,-0.36453064676225183
1772791007750951400,15.179951416015625,-3.5647733797490595,4.305566027599573,-0.9571686228871344
1772791007770984700,15.199984619140626,-3.693972591114044,4.222939766839146,-1.1313397794008255
1772791007791016700,15.2200166015625,-3.7933836901977656,3.8859798485696313,-1.244501463678479
1772791007811049500,15.240049560546876,-3.9209918329790234,3.2128397642314432,-1.5407967786043881
1772791007831082500,15.26008251953125,-3.7307527542397376,2.6595798587709663,-1.8293793271958827
1772791007851114500,15.280114501953125,-3.398040556542575,2.344165417355299,-2.0556255388617513
1772791007871147500,15.3001474609375,-3.0721371620774267,2.190753555753827,-2.2777532092928885
1772791007891180500,15.3201806640625,-2.749874754463136,2.2420359992235896,-2.494771573886275
1772791007911213600,15.340213623046875,-2.564511172805726,2.2070535331696273,-2.758656903594732
1772791007931245600,15.36024560546875,-2.408032324849069,2.123332170648873,-2.9865397765517234
1772791007951278600,15.380278564453125,-2.286475152669847,2.0218430962473155,-3.0957787344276904
1772791007971311600,15.4003115234375,-2.2359882434919474,1.9501219681218265,-3.1169933718919753
1772791007991343600,15.420343505859375,-2.182738883863389,2.100228358437121,-2.9242057777136563
1772791008011376600,15.440376708984376,-2.192500983943045,2.609848151874542,-2.5669711331784724
1772791008031409400,15.460409423828125,-2.2958567289993166,3.182045397517085,-2.4005875618010757
1772791008051442700,15.480442626953124,-2.2063623360350726,3.6274133757963773,-2.4450258384644985
1772791008071474400,15.500474365234375,-2.0022358939796683,4.189585486508905,-2.6303496726334092
1772791008091507700,15.5205078125,-1.4692697117462754,4.428052589583396,-3.058855655699968
1772791008111540500,15.54054052734375,-0.7057210422083735,4.7250686199992895,-3.4708611703425643
1772791008131572500,15.560572509765626,0.9569523497879504,5.548146167826652,-3.33078868278563
1772791008151605500,15.58060546875,3.2058734323501583,5.454484133788943,-4.823806057605147
1772791008171638500,15.600638427734374,4.9833168206036085,6.376763229602575,-6.145626907807588
1772791008191671600,15.620671630859375,4.16121951598525,6.972206326276064,-5.906705923485756
1772791008211703600,15.64070361328125,2.9247625348135826,6.653275985693931,-4.657474508675933
1772791008231736600,15.660736572265625,2.4937258642256257,5.826491984564066,-2.5692297257602212
1772791008251769600,15.68076953125,3.8662010891273617,4.269002429834008,-1.4178051897078752
1772791008271801300,15.70080126953125,6.122018068683147,3.2080753263086077,-0.9963187300145625
1772791008291834600,15.720834716796874,7.74542591047883,2.8667572128295897,-0.17062720029652118
1772791008311867400,15.740867431640625,6.617399201148748,2.467162266948819,0.059064183387160296
1772791008331899600,15.760899658203124,3.376647639901936,1.9579320573508738,0.5642606074243783
1772791008351932400,15.780932373046875,0.7237105801463126,1.5722376265287399,1.7682658100634812
1772791008371965700,15.800965576171874,-1.2471677602782845,1.0773007306993008,3.1610476176738738
1772791008391998500,15.82099853515625,-2.383924888552725,1.0651853454917668,4.964510413324833
1772791008412030700,15.84103076171875,-3.4195267044246194,0.8806050231665372,6.379966409558057
1772791008432064000,15.86106396484375,-4.199054448860884,0.4714759407430887,7.340244688898324
1772791008452097300,15.88109716796875,-4.57549239103794,0.16905600545704363,7.70087014491558
1772791008472129000,15.90112890625,-5.116207872223854,-0.6718178958237171,7.359662506073713
1772791008492162000,15.921162109375,-5.186598336267471,-0.5328811342984437,7.495230667948722
1772791008512195000,15.941195068359375,-5.272980734691023,-1.472972365656495,6.201143627846241
1772791008532228000,15.96122802734375,-5.029563607993722,-1.4897154106646775,4.9428918712347745
1772791008552260000,15.981260009765625,-4.653323234215378,-1.3211211775004863,3.637286242774129
1772791008572291000,16.001291015625,-4.239005350977182,-1.043660911425948,2.4457602902188897
1772791008592324000,16.021323974609373,-3.7904254249140616,-0.7592652931302786,1.2115697926744817
1772791008612356000,16.041356201171876,-3.2900615355998277,-0.4400321702092886,0.24708441703319547
1772791008632389000,16.06138916015625,-2.6823440637648104,-0.14650164382159708,-0.35747839016318317
1772791008652422100,16.081422119140626,-2.0206568090721966,-0.25526421635746954,-1.3272580728203058
1772791008672455200,16.101455078125,-1.2063687169000505,-0.24750527279376983,-2.240847666221857
1772791008692487000,16.12148681640625,-0.5049655378907919,-0.07838555445075035,-3.000082564213872
1772791008712520200,16.141520263671875,0.6282885506987571,-0.12277999197244643,-4.772566284233331
1772791008732553000,16.161552978515626,1.797223901261389,0.17976035482287406,-5.658470582851767
1772791008752585200,16.181585205078125,2.48654705863744,-0.003178630036115646,-5.472158906689286
1772791008772618000,16.201617919921876,2.540161159925163,0.2519856330782175,-4.784507481917738
1772791008792651300,16.2216513671875,1.4805727576576173,1.390624921837449,-3.9482168167740106
1772791008812684000,16.24168408203125,-0.058550096385180946,2.9981980656415224,-2.171355612322688
1772791008832716000,16.261716064453125,-0.8334215394482016,3.6412294274419543,-1.3225275371670722
1772791008852749000,16.2817490234375,1.2317558177433907,2.711759543341398,0.3865525089561939
1772791008872782000,16.301781982421875,5.021320095783472,1.5730921975314616,3.345713280194998
1772791008892814000,16.32181396484375,7.711418426936865,-0.8820552219748496,5.433857525345683
1772791008912847000,16.34184716796875,8.577350197106599,-1.483261704480648,6.279695186513662
1772791008932880100,16.361880126953125,6.541696602171659,-0.8597399297922849,6.160158121985197
1772791008952913200,16.3819130859375,5.037304431378841,-0.06397942795753479,7.377984344705939
1772791008972947200,16.401947265625,3.6780116363942623,0.029127894806861877,8.385425941759348
1772791008992980000,16.42197998046875,2.822520596218109,-0.4467927503854036,8.818234590455889
1772791009013013200,16.44201318359375,1.7964074703119695,-1.5763018072277306,8.40753957388997
1772791009033045000,16.462044921875,0.6364088749207556,-2.295090713062882,7.2840265425920485
1772791009053078300,16.482078369140623,-0.16028876163363456,-2.5090549507826565,5.931211419188976
1772791009073111000,16.502111083984374,-0.7980141259804368,-2.400369535136223,4.602525943914055
1772791009093144000,16.52214404296875,-1.2797909498549997,-2.129204569813609,3.2277070784956217
1772791009113176000,16.542176025390624,-1.5572981238111854,-1.7993728959888218,2.1930577410429715
1772791009133209000,16.562208984375,-1.3677511189892888,-1.3570540761470793,1.6139432633578776
1772791009153242000,16.5822421875,-0.6615875937104225,-0.6816647515773773,1.6962328395098447
1772791009173274000,16.602274169921873,0.2420902620077133,-0.13700433215796948,1.015282958203554
1772791009193307100,16.62230712890625,1.532480785679817,0.6374509313195943,0.06822305687665939
1772791009213340200,16.642340087890624,2.6081553764820096,1.5424655885994434,-0.4323059598714113
1772791009233373200,16.662373291015626,2.839954546099901,2.3139696010559794,-0.770148506194353
1772791009253405200,16.6824052734375,1.513010361534357,2.3891952301710844,-0.700233258447051
1772791009273438000,16.70243798828125,0.11977204232811928,2.672794729653001,-0.05440145227313042
1772791009293471000,16.722470947265624,-1.1843708201035856,2.9968174249380826,0.5592372263044119
1772791009313503000,16.7425029296875,-2.5313795953154563,3.035119975325465,0.6782932293176651
1772791009333536300,16.762536376953125,-3.5240909484878182,2.892146505630016,0.4643026881128549
1772791009353569000,16.782569091796876,-4.00128643592149,2.765245634335279,0.08136018634736537
1772791009373602000,16.80260205078125,-3.960957640403509,2.8359903186440465,-0.26409926472008227
1772791009393634000,16.822634033203126,-3.0491718815535305,3.0452275278419254,-0.8586112180233001
1772791009413667000,16.8426669921875,-1.9991142548277974,3.387724037450552,-1.5066747287720441
1772791009433699600,16.862699462890625,-1.1888844981357454,3.678800448684394,-2.1557593992620707
1772791009453731600,16.882731689453124,-0.27157851455956694,3.9486756664574143,-2.997079290744662
1772791009473764600,16.9027646484375,0.8116153658315539,4.139930644240975,-3.903761588975787
1772791009493797600,16.922797607421874,1.9238556002259253,4.117972202672064,-4.668791436982154
1772791009513830700,16.94283056640625,2.86239200335741,3.9797479733303187,-5.050681799346208
1772791009533862700,16.962862548828124,3.574606206977367,3.917112945719063,-5.063517900043726
1772791009553895400,16.9828955078125,3.8283845686912534,3.918594124187529,-5.017651051881909
1772791009573928700,17.0029287109375,3.859253169685602,3.866649417416751,-4.7612101929605
1772791009593960400,17.02296044921875,3.93786668767333,3.966067530763149,-4.667003969043493
1772791009613993700,17.04299365234375,4.069140951746702,4.174562104900181,-4.614335039651394
1772791009634026500,17.063026611328127,4.125479509562254,4.429425923763215,-4.431896990051865
1772791009654059800,17.083059814453126,3.969726637792587,4.650801314522326,-4.324052701404691
1772791009674091500,17.103091552734377,4.083533049714565,5.072034968498349,-3.929733650100231
1772791009694124800,17.123124755859376,4.057015629667044,6.250236452317237,-3.3267794471442698
1772791009714157600,17.143157470703127,3.248151900631189,7.276977208602428,-2.9053672217309474
1772791009734189600,17.163189453125,2.166066273742914,8.174531613004207,-2.866680055940151
1772791009754222600,17.18322265625,1.0221206952691078,8.667734816908835,-2.2726555938929316
1772791009774255600,17.203255615234376,-0.45123321705088015,8.821133234506846,-0.7605477341562509
1772791009794288600,17.22328857421875,-2.763446475958824,8.005157627639173,0.5952946281135082
1772791009814320600,17.243320556640626,-4.051957177233696,5.156159358862042,1.7794588197290897
1772791009834353700,17.263353759765625,-4.832282209527492,3.3183927270710467,2.8848505034029484
1772791009854386700,17.28338671875,-5.398738865691423,2.0944629267781973,3.5473335846483707
1772791009874418400,17.30341845703125,-5.967492692881822,1.1363304272949695,3.5629081703990697
1772791009894451700,17.32345166015625,-6.006928046691417,0.0979676222771406,3.3638486563444134
1772791009914484500,17.343484375,-5.0410792737424375,-0.38380993224978444,2.9889935994446275
1772791009934517500,17.363517578125,-4.779240355169772,-0.6003858137726783,3.1027947506695983
1772791009954549500,17.383549560546875,-5.169310516858101,0.014126140508055687,2.804840562620759
1772791009974582800,17.403582763671874,-5.807979007273912,0.8292284716725349,2.0978841333985327
1772791009994615600,17.423615478515625,-5.561196788057685,1.0396987297967075,1.1403344022393227
1772791010014647600,17.4436474609375,-4.72711795374453,0.9317615021690726,-0.006284779357910156
1772791010034680600,17.4636806640625,-4.27580568010807,0.6059133450224995,-0.9710539403766393
1772791010054713600,17.483713623046874,-4.366198483216762,0.30345483129173517,-1.2042524553984404
1772791010074746600,17.50374658203125,-4.040944492571056,0.16682137827277183,-1.9090864856392145
1772791010094778600,17.523778564453124,-3.473910621041059,-0.24209055426865814,-2.2450743440061807
1772791010114811600,17.543811767578124,-2.8193548256635665,-0.22184067018330095,-2.851323496854305
1772791010134844400,17.563844482421874,-2.0699398954182864,-0.5567639680586755,-3.510950019624829
1772791010154876400,17.58387646484375,-1.4422358666092157,-0.5987614274412393,-2.992726356232166
1772791010174909700,17.60390966796875,-1.7324293575286864,-0.8759415614001452,-2.615537887948751
1772791010194942500,17.6239423828125,-1.6667898874044418,-0.8087536927901208,-3.0800299611538646
1772791010214975500,17.6439755859375,-0.9463041145235299,-0.7264511110261083,-3.5532740806132552
1772791010235007500,17.664007568359374,-0.5438578708648681,-0.27751185013130303,-3.076927318963408
1772791010255040800,17.684040771484376,-0.1813876637637615,-0.8423632630556821,-3.37474706697762
1772791010275073500,17.704073486328124,-0.2982914571791887,-0.9369886622328311,-2.895366344459355
1772791010295105800,17.724105712890626,-1.1962526888161897,-1.1788828902117907,-2.776559347771108
1772791010315138600,17.744138671875,-1.6112544626653194,-0.1643314246205613,-0.8540677293747663
1772791010335171600,17.764171630859376,-0.8971540069073438,-0.1288527360148728,-0.12034560443237423
1772791010355204600,17.78420458984375,-0.3245359055042267,0.09270358253540471,0.34555991576723755
1772791010375236600,17.804236572265626,-0.8246785532832145,0.3338805838894099,0.8949735941283404
1772791010395269600,17.82426953125,-0.9825351193338632,0.20347396949604152,1.01053488689363
1772791010415302400,17.844302490234377,0.07509352716803551,0.05131598041318357,0.8516383833359926
1772791010435334700,17.864334716796876,0.5547931063771248,0.7289904202453792,2.0261898932799696
1772791010455367700,17.88436767578125,1.0607353803455828,0.5067665959633887,1.78441425017938
1772791010475400700,17.904400634765626,0.7990215494573116,1.1198191452160478,2.3413109047070146
1772791010495433700,17.924433837890625,0.2519727735966444,1.4310412495084106,2.1994506569504737
1772791010515465700,17.9444658203125,0.5882067156791687,1.0777015665851533,2.2543813937947155
1772791010535498800,17.964498779296875,1.3403098620951175,0.8740063555538654,2.0947018501006065
1772791010555531800,17.98453173828125,2.2371108177810908,1.4877864884287118,3.427448729595542
1772791010575563800,18.004563720703125,1.6517337725698946,1.0291168377667665,3.2976860391288993
1772791010595596800,18.0245966796875,1.3895371266007424,0.6462938707277178,2.3532898040533063
1772791010615629600,18.044629638671875,0.3876028947919607,1.3470929463639854,2.512021399372816
1772791010635662800,18.064662841796874,-1.3385720785170794,1.960947313518822,2.9975407707765696
1772791010655694800,18.08469482421875,-1.5883260070204734,2.332088902853429,2.7912790702581405
1772791010675728000,18.104727783203124,-0.3686450963437557,2.71076819421649,1.4874207238562405
1772791010695760600,18.1247607421875,1.3800263709336518,2.020310772113502,0.41534269624128933
1772791010715792600,18.144792724609374,0.49274903039634227,2.6624159589797256,2.97494578486979
1772791010735825700,18.16482568359375,-0.9515572127461432,1.580090678116679,2.5198551617383957
1772791010755858700,18.184858642578124,0.25698329523503777,0.7104527469053864,2.932454550620913
1772791010775891700,18.2048916015625,0.7624485993415117,-0.45391748769879336,1.9510802917599677
1772791010795923700,18.224923828125,1.7705290788203476,-0.07413666483461856,2.9464684629261493
1772791010815956700,18.244956787109373,1.956643186584115,-0.5438847588717937,2.6646462022498247
1772791010835989800,18.26498974609375,1.0356371794462202,-0.5551651545599102,2.387853167912364
1772791010856022800,18.285022705078124,0.6126122581392526,0.5395964140281081,1.309193423819542
1772791010876054800,18.3050546875,1.2760299898862837,1.1355112198665738,0.4629221204746514
1772791010896087600,18.325087646484373,0.3041740854769945,1.3208876610055564,0.9644152330145239
1772791010916120800,18.345120849609376,-0.512393642064929,0.6634083793967962,1.1882222348347307
1772791010936152600,18.365152587890623,-1.0842916124999522,0.6203361303895711,0.48285219802111384
1772791010956185900,18.385185791015626,-0.8454477850675582,0.6058484630927443,0.16900887837968764
1772791010976218600,18.405218505859374,-0.9082651835083961,0.41507951526045794,-0.3984055534331128
1772791010996252000,18.425251953125,-1.5975772349685429,0.9612211131483316,0.043737215721979736
1772791011016283600,18.44528369140625,-1.7818571130424736,1.312846393369138,-0.03566438390351832
1772791011036316700,18.465316650390626,0.03022270430624485,1.3085948734045028,-0.3493949638854712
1772791011056349700,18.485349609375,1.351027070942521,0.9454454518675803,-0.7668839514404535
1772791011076381700,18.505381591796876,1.4308838669896125,0.9696766606740653,-1.2526895924396813
1772791011096414700,18.525414794921875,-0.9344096785902977,1.03115725755319,-1.035908032276854
1772791011116447700,18.54544775390625,-0.8202624904066323,0.5360249852821231,-0.8099359613772481
1772791011136480800,18.565480712890626,1.239751638802886,0.04601020215526223,-0.7662038602218031
1772791011156512800,18.5855126953125,2.862767266410589,-0.06955372095853089,-1.0596985115785151
1772791011176545800,18.6055458984375,2.422711715325713,-0.24639015115872023,-0.5432347339978442
1772791011196578800,18.625578857421875,1.013330655092001,-1.138415563005954,0.6055626318886875
1772791011216610600,18.645610595703126,-0.7778337999999523,-1.9951836373805998,2.8362872557640073
1772791011236643800,18.665643798828125,-2.576155141109228,-2.421875118371099,2.7141385474324227
1772791011256676600,18.685676513671876,-1.8033681031048296,-2.7402356962412595,3.3692537302583454
1772791011276710000,18.7057099609375,-1.4208908807635305,-2.05786659578681,2.734933790440857
1772791011296741600,18.72574169921875,-1.867305445486307,-1.383310507170856,1.7290721560552715
1772791011316775000,18.74577490234375,-2.1476631865680216,-0.8370109422422946,1.4520979199320077
1772791011336807700,18.7658076171875,-1.5465408752143381,-0.44833048134669656,1.103686706386879
1772791011356841000,18.785841064453123,-1.418387373510003,-0.26555530874729155,0.8104396000504493
1772791011376872700,18.805872802734374,-0.9266250160634517,-0.09820362299010157,1.1016546891026198
1772791011396905700,18.82590576171875,-0.1328068804681301,-0.26686756038963794,1.0225084524776786
1772791011416938800,18.845938720703124,1.1193757853627204,-0.392792572389543,1.3506678822413085
1772791011436970800,18.865970703125,1.1110334889531135,0.22455957375317812,2.2617336562536656
1772791011457003800,18.886003662109374,0.45046354785263537,-1.0302519792765379,0.949128670424968
1772791011477036800,18.906036865234373,1.1902490644872188,-0.6799369048714637,0.6561075548641383
1772791011497069800,18.92606982421875,-0.09250643426179886,-0.5599368990063667,0.019677993348380548
1772791011517101800,18.946101806640623,-1.041599887242913,-0.3096168610528111,0.09259595744246617
1772791011537134600,18.966134521484374,-1.914324386292696,-0.18266250600516795,0.5345008444547653
1772791011557167900,18.98616796875,-3.7172809859871863,0.0490884405568242,0.8424006724566221
1772791011577199600,19.00619970703125,-3.3610137251794336,0.3686193773806095,-0.04359886669721454
1772791011597233000,19.02623291015625,-2.1040338881999254,0.7246063599422574,-0.8693482275497167
1772791011617265700,19.046265625,-0.5991285071879625,1.4211670673564076,-1.212718451252952
1772791011637299000,19.066298828125,0.11143500661551951,1.5844871595099568,-1.5097554513916371
1772791011657330700,19.08633056640625,0.7923176679044961,1.4493079969525335,-0.3660006462495774
1772791011677363700,19.10636376953125,2.1984622304350134,1.2942179730057715,0.1602836470670998
1772791011697396700,19.126396728515626,2.689965060162544,1.2598814036399126,0.48607028328478336
1772791011717428700,19.1464287109375,1.3466215294599533,1.139693766248226,1.0009576418615878
1772791011737461800,19.166461669921876,1.2048474986821411,1.2435288192540406,0.927120690625906
1772791011757494800,19.186494873046875,1.4184616077899932,1.4506991590499878,0.7643759141422808
1772791011777527800,19.20652783203125,0.45907004815638064,1.5438587965235113,1.0295872317574917
1772791011797559800,19.226559814453125,0.3168669783115387,1.3741075022786855,0.8049176217585802
1772791011817592800,19.2465927734375,0.4146779487222433,1.1988529344424605,1.3511143108345567
1772791011837625900,19.2666259765625,-0.012191373053193092,1.0931108787715433,0.9869833309143781
1772791011857659000,19.286658935546875,0.26921441577672955,0.9631091188520192,0.931739144206792
1772791011877691000,19.30669091796875,0.24469021537303923,1.2137167415753005,1.0150701922357082
1772791011897723600,19.3267236328125,0.5371452214837074,0.854342454662919,1.3544517846941948
1772791011917756700,19.346756591796876,1.32437813346982,0.6791779031977057,0.9519178627520799
1772791011937788700,19.36678857421875,1.9266952075660229,0.8810182801425457,0.26020503376051785
1772791011957822000,19.386822021484374,2.1045330698937175,0.062064241985976695,0.06146671448424458
1772791011977854700,19.406854736328125,1.2184171743512153,-0.0973214333280921,0.27434140340164304
1772791011997887700,19.4268876953125,0.31407004106938835,-0.2662842075437307,-0.06512092614285647
1772791012017919700,19.446919677734375,-0.7307733581393957,-0.6059612758174538,-0.6656985361605883
1772791012037952800,19.466952880859374,-1.6220324617892503,-1.3630445487335323,-0.45223786404877897
1772791012057985800,19.48698583984375,-1.3857155224859714,-1.1160627152919769,-0.7048553652897477
1772791012078017800,19.507017822265624,-0.5853139168471098,-0.8742410410925745,-1.0918244922228157
1772791012098050800,19.52705078125,0.5591314278423786,-0.6027642333418131,-1.2674126759275792
1772791012118083800,19.547083740234374,0.3382008582413196,-0.8235583170816302,0.11130451210364699
1772791012138116900,19.567116943359373,0.6661059479176997,-0.25356851835548877,0.5360508503757417
1772791012158148900,19.58714892578125,0.1584609616845846,-0.29977994217127557,-0.06364785791561008
1772791012178181600,19.607181640625,-1.0409159966319799,-0.3090051588952541,-0.35506241506263614
1772791012198214700,19.627214599609374,-2.3167940108269454,-0.36569179949611424,-0.3957216115787625
1772791012218246700,19.64724658203125,-2.834195251920819,-0.7488958748072385,-0.42622035634741184
1772791012238280000,19.667280029296876,-2.9724609823167323,-0.8766388960145414,-0.6151634769920259
1772791012258312700,19.687312744140623,-3.086657854861021,-0.7184541209228337,-1.2555889671429992
1772791012278345700,19.707345703125,-2.981132364550233,-0.3858778245650232,-1.8950433472394943
1772791012298377700,19.727377685546877,-2.5710902589350937,0.11819354096502065,-2.016600811679661
1772791012318410800,19.74741064453125,-1.8148071964859962,0.8467325641810893,-2.6089485726863146
1772791012338443800,19.76744384765625,-0.6596475655585528,1.510380889813602,-3.6758953748926517
1772791012358476500,19.7874765625,0.27680443251430986,1.625845736467093,-2.5444340149387714
1772791012378508800,19.8075087890625,1.1908739183872938,2.3978671969264744,-1.5179504482850432
1772791012398541600,19.82754150390625,1.8895745604395866,2.75635710221976,-1.5725592596985398
1772791012418574800,19.847574951171875,2.0237036294221875,2.4972391330435872,-1.2978991457365452
1772791012438607000,19.867607177734374,2.0917413928598165,2.272401619131863,-1.392627055440098
1772791012458640100,19.88764013671875,1.6359183638006447,1.7246379730001091,-1.5054820118561387
1772791012478673000,19.9076728515625,0.9878905088871717,1.7231249380886553,-1.6238902184851467
1772791012498706200,19.9277060546875,-0.31396248904168605,0.9409861343711614,-1.664963548760116
1772791012518738000,19.947738037109374,-1.7113807242810726,0.839487707619369,-1.5552477671526372
1772791012538771200,19.967771240234374,-2.8051427604377266,0.5921753270491957,-1.6839686934813856
1772791012558804000,19.987803955078125,-2.6529882054209706,-0.03523731759786606,-1.8350407139584421
1772791012578836000,20.0078359375,-2.0533774676740166,-0.32075638696551323,-1.062588899257779
1772791012598869000,20.027868896484375,-1.8788678729861974,-0.18927958605736492,0.27497224865108727
1772791012618902000,20.047902099609374,-1.5194769271999597,-0.05014584065526723,0.32966771543473006
1772791012638935000,20.06793505859375,-0.9699813427090644,0.11838263379633426,0.9808853063002229
1772791012658967000,20.087967041015624,-0.16831892335414886,0.2885682278051972,0.6689703974381089
1772791012679000000,20.108,-0.5193617275118827,-0.7312637720048427,1.3221122343644498
1772791012699033000,20.128033203125,-0.031851182290911675,-1.0171361848548055,0.48538785397857426
1772791012719066000,20.148066162109377,0.08582593358457088,-1.2801093681544065,1.3580869263261557
1772791012739098000,20.16809814453125,0.42702188198864455,-1.2356368969604372,1.6223893124029038
1772791012759131100,20.188131103515627,0.8428905018001794,-1.6464803820863365,1.2577891075357794
1772791012779164200,20.2081640625,0.6844388924658298,-2.1718197227030993,1.2217372586846351
1772791012799196000,20.22819580078125,0.39872050113379953,-2.1029630440980194,1.3172291384980082
1772791012819229200,20.248229248046876,0.6391495519310235,-1.8282123292431234,1.0245306790202855
1772791012839262000,20.268261962890627,1.1573954271554947,-0.6595636866673826,-0.1075382914379239
1772791012859295200,20.288295166015626,2.289533663457632,0.8730953781887888,-1.6825032971039413
1772791012879327000,20.308326904296877,3.667267539539933,0.45405280451625585,-1.3229805416315794
1772791012899360300,20.3283603515625,5.975151683202386,0.08364040623903274,-0.5662915287300944
1772791012919393000,20.34839306640625,2.8640830251842737,0.3138616590157151,3.0219539120212198
1772791012939425000,20.368425048828126,-0.7987053231149911,-0.36006723761260506,2.4906340356901286
1772791012959458000,20.3884580078125,-1.3676549651384353,-0.1909130324780941,1.1283316836260258
1772791012979491000,20.408490966796876,-3.3674691849291323,0.08828326360881328,3.808336344657838
1772791012999524000,20.428524169921875,-3.072089815804362,0.1350838854894042,7.602829457402229
1772791013019556000,20.44855615234375,-0.769081753745675,0.1985045105203986,6.426721146470308
1772791013039589000,20.468589111328125,0.5494119978606701,1.5592068800419567,4.695617484587431
1772791013059622100,20.4886220703125,-1.4241834925681351,2.117449542351067,5.794907928776741
1772791013079655200,20.5086552734375,-1.7979004853487013,3.710143681453168,3.519907817584276
1772791013099687200,20.528687255859374,-1.2581307605803012,3.4509555696502328,2.7067916918009516
1772791013119720000,20.548719970703125,0.1297270346313715,2.1530811199635265,3.2787071978926656
1772791013139753200,20.568753173828124,-0.6744160956233739,0.5941103867650032,3.3575460490688678
1772791013159785000,20.588784912109375,-3.950227572074532,1.424215641272068,1.5142106772348283
1772791013179818200,20.608818359375,-3.2256051377803083,4.008101376633346,0.609603431712091
1772791013199851000,20.62885107421875,-1.0113391890138388,4.481649155214429,1.478200037176907
1772791013219884000,20.648884033203124,0.7374661337763071,3.5416888567596674,2.9352818830013274
1772791013239916000,20.668916015625,0.3241986363738775,2.5153344694435593,2.127027810296416
1772791013259949000,20.688948974609374,-0.34408231749534607,1.580786259165406,0.034710663375258445
1772791013279982000,20.708982177734374,1.259320847147703,2.3936288287043572,1.1128460913330316
1772791013300014000,20.72901416015625,3.0604791652485726,2.881206593942642,3.0657366473853584
1772791013320047000,20.749047119140624,2.8359008867949247,2.1874550987303256,5.4822243736296885
1772791013340080000,20.769080078125,1.921137281177938,3.0356992365181443,5.101044205361604
1772791013360113200,20.789113037109374,1.5337804701015352,4.511496011945605,4.63205949691236
1772791013380145200,20.809145263671876,1.763989447918534,5.390971738821268,5.5865866653800005
1772791013400178200,20.82917822265625,1.712754350721836,6.632589756017923,6.139304719048738
1772791013420211200,20.849211181640626,1.4333705692388117,8.670630538350343,6.7873162073493
1772791013440243500,20.869243408203126,0.6915709363028407,11.220239033317565,7.398544902175664
1772791013460276500,20.8892763671875,-0.08774754929691553,13.285523211884497,7.271171737194061
1772791013480309500,20.9093095703125,-0.7602519660800695,14.890614475744961,5.4404228752106425
1772791013500342500,20.929342529296875,-0.5153413859546184,16.50379201542735,2.168967255881429
1772791013520374500,20.94937451171875,-0.31420857275724406,16.75322153428197,-1.1911819614231587
1772791013540407600,20.969407470703125,-0.024432430467009544,16.782617140114308,-5.268848164930939
1772791013560440600,20.989440673828124,0.6598492256104945,18.003454235088824,-9.864866042125225
1772791013580472600,21.00947265625,0.9774708216816186,17.57872893960476,-12.997650857388972
1772791013600505600,21.029505615234374,0.9085913467228413,14.654427884823082,-13.869889618748426
1772791013620538400,21.049538330078125,0.9607301147609949,10.3764466142416,-12.819500275850295
1772791013640571600,21.069571533203124,1.5696476100355385,7.048782785478234,-11.567447373878956
1772791013660603600,21.089603759765627,1.8814678263515232,5.072789586257934,-10.416425573408603
1772791013680636700,21.10963671875,1.9636177017718552,4.142112079933286,-9.573967033284902
1772791013700669400,21.12966943359375,2.240439377681911,4.2126410756647585,-8.906922927734255
1772791013720701700,21.14970166015625,2.070456905029714,4.465156285575032,-7.393243288636207
1772791013740734500,21.169734375,1.7615642665982245,4.102521243301034,-5.537991269037128
1772791013760767700,21.189767822265626,1.1362646685823798,2.484559391951561,-3.996064609619975
1772791013780800500,21.209800537109373,0.8873883996963501,0.9047790949583053,-3.575618014368415
1772791013800832500,21.22983251953125,0.2648246563851833,-0.6153261932730675,-3.7800805565103888
1772791013820865500,21.249865478515623,-0.656651890873909,-1.6832283965080976,-4.389534642879664
1772791013840898600,21.269898681640626,-1.5621742054149508,-2.5937749689519403,-5.066673149204254
1772791013860930600,21.2899306640625,-2.0668808001086116,-2.9548896697908638,-5.917438329902291
1772791013880963600,21.309963623046876,-2.3993910454928873,-3.095899145936966,-6.333816068279742
1772791013900996600,21.32999658203125,-2.9105820337697863,-3.0353713197380303,-6.610124241709709
1772791013921029600,21.350029541015626,-3.2090035470694303,-3.0917087085098025,-6.883935337626934
1772791013941061400,21.370061279296873,-3.2017367709368467,-3.144607355004549,-7.1408058201372615
1772791013961094700,21.3900947265625,-3.659438453349471,-2.7910616281151768,-7.1309227240264415
1772791013981127400,21.41012744140625,-4.6692187224835155,-2.6167513553917408,-6.314130540078878
1772791014001159700,21.43015966796875,-5.3391474435597654,-2.3176544270485637,-5.25398318875432
1772791014021192400,21.4501923828125,-5.620867705166339,-2.38651695087254,-4.248183805949986
1772791014041225700,21.470225830078125,-5.4938353164464235,-2.1871441330850123,-3.5212478340163824
1772791014061258500,21.490258544921875,-5.1152206147521735,-1.6946353411853312,-3.2215716444805262
1772791014081290500,21.51029052734375,-4.643581007879972,-1.1715899567246437,-2.301329315191507
1772791014101323500,21.530323486328125,-3.8575440276801585,-0.7741694322735071,-1.7761282140016554
1772791014121356500,21.5503564453125,-3.147759097033739,-0.5319307017058134,-1.4369444822028279
1772791014141388500,21.570388427734375,-2.572715814310312,-0.6334013636678457,-0.9045371028959751
1772791014161421600,21.590421630859375,-2.059645295897126,-0.7518699221819639,-0.30590251670479773
1772791014181454600,21.61045458984375,-1.4651608151227236,-0.6685626934200525,0.2048679080724716
1772791014201487600,21.630487548828125,-0.9196896638423204,-0.4780062192946672,0.7032739413172007
1772791014221519400,21.650519287109375,-0.011107669469714164,-0.2951426377594471,0.3200678201794624
1772791014241552600,21.670552734375,1.3392834416568278,-0.3185702750980854,-1.0296849930435419
1772791014261585400,21.69058544921875,3.1052792609617113,-0.10217325727343558,-2.3598493086993693
1772791014281617700,21.71061767578125,5.802549967962503,-0.41580315335988993,-2.893897733211517
1772791014301650400,21.730650390625,8.48810890212059,0.5892284599423409,-3.190525056570768
1772791014321683700,21.75068359375,9.041783818122743,0.7152139699578285,-3.047434682497382
1772791014341715500,21.770715576171874,8.910678480875491,1.0596201125800608,-4.645322006328404
1772791014361748700,21.790748779296877,7.954543292689323,-0.06461071159839629,-5.737235492008924
1772791014381781500,21.810781494140624,6.305092662620544,-1.8770108469426632,-5.679592281335592
1772791014401814500,21.830814453125,4.948487499284744,-2.7717881878465414,-5.180584775066375
1772791014421846500,21.850846435546874,3.5038603536248205,-2.9147119731813667,-4.264046853253245
1772791014441879300,21.87087939453125,1.8699870857857166,-2.91893923548758,-3.077397859084606
1772791014461912000,21.890912109375,0.5096691855370998,-2.2970722422689196,-2.5150623745039105
1772791014481944300,21.9109443359375,-0.4777776712357998,-1.3014262969493866,-2.3774171140938996
1772791014501977000,21.93097705078125,-0.9185250039771199,-0.3077420070916414,-2.3395266516387463
1772791014522010000,21.951010009765625,-1.1171414504393935,0.577463787868619,-2.1677824300110338
1772791014542043100,21.971043212890624,-1.4676733824655412,1.5290034649580717,-1.8892051426053047
1772791014562075100,21.9910751953125,-1.6713479891002176,2.3131910178989172,-1.7894558976083992
1772791014582108200,22.011108154296874,-2.2710893674895165,2.86875218603909,-1.502999255129695
1772791014602141200,22.03114111328125,-2.867491372323036,2.691839621862769,-1.1760510277867315
1772791014622173200,22.051173095703124,-3.129532535469532,2.367285596179962,-1.2825620220035314
1772791014642206200,22.071206298828123,-3.3814094474762677,1.939967946115136,-1.4802040704756974
1772791014662237200,22.0912373046875,-3.445777582490444,1.4601619839221238,-1.7596540490627288
1772791014682270200,22.111270263671877,-3.6426129907548424,1.3598334777325392,-1.9772452451080083
1772791014702302200,22.13130224609375,-3.8056384838759896,1.414632989412546,-1.971522191286087
1772791014722335000,22.1513349609375,-3.993870314446091,1.654176489546895,-1.7235890484690666
1772791014742368300,22.1713681640625,-4.047368680399656,1.9042051433384417,-1.1720131505727767
1772791014762400300,22.191400146484376,-4.111543338668346,2.242549793964624,-0.5738841758161783
1772791014782433300,22.211433349609376,-4.334246178638935,2.5048612984851,0.10968085642457008
1772791014802466000,22.231466064453127,-4.486676627987623,2.798607513450086,0.6457961503386497
1772791014822499300,22.251499267578126,-4.602467491725087,3.2722698583215473,1.1112310573518276
1772791014842531300,22.27153125,-4.552913479483127,3.753981069613993,1.600031642383337
1772791014862564000,22.291564208984376,-4.297193920573592,4.288074210050702,2.2175281654328107
1772791014882597000,22.31159716796875,-3.835543792796135,4.854377721479535,2.872070516806841
1772791014902629000,22.331629150390626,-3.5922061610758305,5.274816717946529,3.5397400607794522
1772791014922662100,22.351662109375,-3.365681132468581,5.328152002292871,4.056207820415497
1772791014942695200,22.371695068359376,-2.9875185584560033,5.152546429061889,4.268716014108062
1772791014962728200,22.391728271484375,-2.408228431943059,4.889717622669041,4.356943748137355
1772791014982760200,22.41176025390625,-1.076522732064128,5.359359041461349,3.7893010970592496
1772791015002793200,22.431793212890625,-0.2416717443346977,5.717412016642093,3.805166190189123
1772791015022826200,22.451826171875,0.05890694699883461,6.137684424370527,3.7780478816390035
1772791015042858200,22.471858154296875,-0.2699135039567947,6.557876752600073,3.6969425468355417
1772791015062891300,22.491891357421874,-0.01621522174179554,6.810972977268696,2.8184587536066767
1772791015082926300,22.51192626953125,1.3236463120639324,6.583944675314426,1.8038626086235046
1772791015102959000,22.531958984375,3.5583562061831353,6.049474225997924,0.7092956858247518
1772791015122991400,22.551991455078124,5.84530306801796,4.77989852681756,-0.1408025553971529
1772791015143024000,22.572024169921875,7.0994181632161135,2.772525269949436,-0.034301498052477834
1772791015163057200,22.59205712890625,7.357591545018553,1.9597861607849596,-0.6267617795228958
1772791015183089200,22.612089111328125,6.266594881922006,0.5567646987110376,-1.2225994284719228
1772791015203122200,22.6321220703125,4.513943989619612,-0.6351666197746991,-2.1254642142415046
1772791015223155200,22.6521552734375,2.646950386561453,-1.6507704804956913,-3.3275591993451115
1772791015243188200,22.672188232421874,1.3421125276029109,-2.2084926260620352,-4.938781513306498
1772791015263220200,22.69222021484375,0.34308775350004433,-2.36203015986979,-6.563073736721277
1772791015283253200,22.712253173828124,-0.23430881435126064,-2.6647160526156424,-7.415753226608038
1772791015303286300,22.732286376953127,-0.3935843072891235,-2.60610312012732,-7.284088501912355
1772791015323318300,22.752318359375,-0.8693257965222001,-2.1680197458982464,-6.4780415838629
1772791015343351000,22.77235107421875,-1.229992169071734,-1.7276941457003354,-5.2587750992059705
1772791015363384300,22.79238427734375,-1.6945622759491203,-1.1725760451525449,-3.833314718569815
1772791015383417000,22.8124169921875,-2.1729735689133403,-0.8119166868656873,-2.367100302740931
1772791015403449300,22.832449462890626,-2.437661447176337,-0.5365636222034692,-0.968225438952446
1772791015423482000,22.852482177734377,-2.574803141978383,-0.353256388553977,0.1121107139199972
1772791015443515100,22.87251513671875,-2.636387199231982,-0.23446283586919306,0.9605220249682664
1772791015463547000,22.892546875,-2.6365558337971566,-0.06376841555535794,1.5465864679217338
1772791015483580000,22.912579833984374,-2.5129192249953745,0.40102527094483376,2.0327999590694903
1772791015503613000,22.932613037109373,-2.4409634113311767,0.6665893475204706,2.856189641585946
1772791015523646000,22.95264599609375,-2.1989915150061248,1.0005395625799893,3.2931507337868213
1772791015543678000,22.972677978515627,-2.1923925551325083,1.291667704001069,3.51389484090507
1772791015563711000,22.9927109375,-2.4211197699591516,1.2782751384645699,3.7914597363978624
1772791015583744000,23.012743896484373,-2.618058054076135,1.2219728210061789,4.194900836312771
1772791015603776000,23.03277587890625,-2.6033701880320903,0.956557797512412,4.322954384773969
1772791015623808800,23.052808837890623,-2.4719465786159036,0.949496773084998,4.027086355349422
1772791015643842000,23.072842041015626,-1.8632406802654264,1.2629402066886424,3.3367110585719346
1772791015663874800,23.092874755859373,-0.8434770695164799,1.5302584334552287,2.4144886613816023
1772791015683907000,23.112906982421876,0.6824696382194757,1.48036715208292,1.136588785970211
1772791015703939800,23.13293994140625,2.8759853521630165,1.7639029386788605,-0.5692717135846614
1772791015723973000,23.15297314453125,4.626258117157221,2.358868480968475,-2.1714882987916466
1772791015744004900,23.1730048828125,5.100162746351957,2.452938511285186,-3.3025165280252695
1772791015764038000,23.193037841796876,4.410705148941278,2.2656343169540167,-4.91632359778285
1772791015784071000,23.21307080078125,3.2151345971703527,1.2239467514276503,-6.3610863525211805
1772791015804104000,23.23310400390625,2.2649580251276493,-0.5810030679106712,-7.459697582274675
1772791015824136000,23.253135986328125,1.8734008397519588,-2.584827692386508,-7.626093428611755
1772791015844169000,23.2731689453125,2.1163861509032547,-3.9809009427577253,-7.1664435347408055
1772791015864202000,23.293201904296875,2.383092383251339,-4.3016433011978865,-5.818661729329824
1772791015884234000,23.31323388671875,2.414573563186079,-3.780501120010018,-4.337728467796743
1772791015904267000,23.33326708984375,2.2063247805036603,-3.213513133448362,-3.0694673583462833
1772791015924300000,23.353300048828125,2.0419581019066273,-2.867623474270105,-2.2020880197167396
1772791015944332800,23.373332763671876,2.0753880778215823,-2.234153721541166,-1.7877508472561836
1772791015964365000,23.393364990234375,1.7080886969983577,-1.416224057996273,-1.5786194365203379
1772791015984397800,23.413397705078125,1.0547264953196047,-0.4477127878397703,-1.3095365381687878
1772791016004431000,23.43343115234375,0.024549773236364123,0.597997457331419,-0.9903601138710975
1772791016024462800,23.453462890625,-0.8936652880087494,1.0252946491301058,-0.7045125432014465
1772791016044496100,23.47349609375,-1.4955312573365867,0.8838695779204369,-0.7020756714433432
1772791016064529000,23.49352880859375,-1.6235741382732987,0.4967179340273142,-0.9281558788925409
1772791016084562200,23.513562255859377,-1.6018264168456195,0.06212064834833145,-1.2143921566188334
1772791016104594000,23.533593994140624,-1.6027125520303844,-0.24645021078288554,-1.4828227285414932
1772791016124627000,23.553626953125,-1.574145505976677,-0.3392646880805492,-1.5846405965059995
1772791016144660000,23.573659912109374,-1.57891403555274,-0.3268570419281721,-1.526150998136401
1772791016164692000,23.59369189453125,-1.5942065894916653,-0.03977145389616489,-1.5098480981111526
1772791016184725000,23.61372509765625,-1.7511831578373909,0.2297995202332735,-1.329876146364212
1772791016204758000,23.633758056640627,-1.9789006110996006,0.43045711713433266,-1.1424725833117961
1772791016224791000,23.653791015625,-2.16896433327198,0.6620996348857879,-0.9295727599531411
1772791016244823000,23.673822998046877,-2.625199158002436,0.7830494888216256,-0.5255389548420906
1772791016264855800,23.693855712890624,-2.9604063873857256,0.8743021236300468,-0.1572282050192356
1772791016284889000,23.71388916015625,-3.217254950325191,1.1265583903431893,0.16338672764897347
1772791016304920800,23.7339208984375,-3.4544472111582754,1.7012950913354754,0.45192777518630023
1772791016324954000,23.7539541015625,-3.6032056939959523,2.463969608387351,0.6159428638666867
1772791016344987000,23.77398681640625,-3.522464516329765,3.2459532215431333,0.8004816851377486
1772791016365020200,23.794020263671875,-3.480720301055908,3.9206779447242615,1.0833563774764536
1772791016385052000,23.814052001953126,-3.6489229045540092,4.496184461045265,1.3348399062514305
1772791016405085000,23.8340849609375,-3.4707992110222574,5.0124973223805425,1.4961924977242946
1772791016425118000,23.854117919921876,-3.4138816842749713,4.899534960067272,1.8434815023064612
1772791016445150700,23.874150634765623,-2.6748464014858007,5.108776260918378,1.789557019895315
1772791016465183700,23.894183837890626,-2.0132558851659295,5.174827818974852,1.7987731765300035
1772791016485216500,23.914216552734374,-1.3922925627887248,5.2626557400316,1.6148820055127142
1772791016505248500,23.93424853515625,-1.4920213495194912,5.179201211753488,1.5503788459420202
1772791016525281800,23.95428173828125,-1.4347688917294144,5.043074831473827,1.6530314111649989
1772791016545314600,23.974314453125,-0.42012656951695676,4.9288575006633994,1.8136013278275727
1772791016565347600,23.99434765625,1.698164684355259,4.639245316763222,2.273202121859789
1772791016585379600,24.014379638671876,4.096753181293606,3.9555364921376106,2.7592846801042556
1772791016605412600,24.03441259765625,5.568010559725761,2.6720141006693243,3.2418086690843104
1772791016625445600,24.054445556640626,6.50778965639472,1.8726912301778793,3.3711522573560475
1772791016645477600,24.0744775390625,6.668561233109235,1.4730179583638905,3.071065733453631
1772791016665510700,24.0945107421875,6.002843407726288,0.7964537447959185,1.9217419690728186
1772791016685543400,24.11454345703125,4.194707944089174,0.3174737120330334,0.5826286232858896
1772791016705576700,24.13457666015625,3.072144468601048,0.007668927192687988,-0.8056909442186355
1772791016725608700,24.154608642578125,1.1236594540312885,-0.5437064796954393,-2.391297755408287
1772791016745641700,24.174641845703125,-0.005182663334906101,-0.5853413893759251,-3.7100089491575954
1772791016765674500,24.194674560546876,-0.868376532973349,-0.738210230141878,-4.629967493069172
1772791016785706500,24.21470654296875,-1.3286661860525608,-1.0657213520646094,-5.016393745297194
1772791016805739500,24.234739501953126,-1.6322823453858495,-1.2396008321553469,-4.880157474902272
1772791016825772500,24.2547724609375,-1.908708592237532,-1.1717238122373819,-4.426189133799076
1772791016845805600,24.2748056640625,-2.2882880473107097,-0.9896785613477229,-3.7223347622454166
1772791016865837600,24.294837646484375,-2.6094351871594785,-0.7844628627508878,-2.6824434324860573
1772791016885870600,24.31487060546875,-2.7197596021845936,-0.6155851364701986,-1.4306781152844428
1772791016905903600,24.334903564453125,-2.635883925884962,-0.4842950903058052,-0.34572365496158597
1772791016925935600,24.354935546875,-2.5922455674275753,-0.2002314804434776,0.553897618842125
1772791016945968600,24.37496875,-2.5377409470409154,-0.06832943986058235,1.4553618901640175
1772791016966001400,24.39500146484375,-2.366235210344195,0.08475333591699599,2.183243618515134
1772791016986033700,24.41503369140625,-2.227533134357631,0.24143325940370558,2.734710210818052
1772791017006066700,24.435066650390624,-2.080318958352506,0.4195616291105747,3.2110809378653764
1772791017026099700,24.455099609375,-2.0229282611355184,0.6623848815679549,3.7313819920539855
1772791017046132500,24.475132568359374,-2.0631787307202814,0.656366644191742,4.208929946187138
1772791017066164700,24.495164794921877,-2.2782450844630597,0.3554349016368389,4.351645057207346
1772791017086197500,24.515197509765624,-2.310936809231341,-0.06649228756129741,3.9707495510995385
1772791017106230800,24.535230712890623,-2.0481559336334465,-0.41230069819688797,3.251813345748186
1772791017126262800,24.5552626953125,-1.0470531842127442,-0.21219898161292075,2.128896526777744
1772791017146295600,24.575295654296873,0.7864172116890549,1.974918263465166,-0.24698621735572812
1772791017166328600,24.59532861328125,2.3020003463208676,4.474071997958421,-2.9001988791823385
1772791017186361600,24.615361572265623,3.1632360676288602,5.09072096426785,-5.400936083474755
1772791017206393600,24.6353935546875,4.525668037422001,3.977023224541545,-6.872488060939312
1772791017226426600,24.655426513671873,5.847592055737972,1.2565467062592506,-6.523358396926522
1772791017246459600,24.675459716796876,6.2058735789775845,-1.934941642385721,-5.3177475126564495
1772791017266491600,24.69549169921875,6.376980671745538,-3.4976071384489535,-5.314410477188229
1772791017286524400,24.7155244140625,5.996017361098527,-3.7678070581316945,-4.444836551123857
1772791017306557700,24.7355576171875,5.952330195063352,-3.558103400465846,-3.0702725372493265
1772791017326590500,24.755590576171876,5.3802586216270925,-3.3565473934203385,-1.6318571057111024
1772791017346622700,24.775622802734375,4.390819714254141,-3.019442513722181,-0.5992828209668397
1772791017366655500,24.795655517578126,3.276302474838495,-2.343363453322649,-1.5055308194339274
1772791017386688800,24.815688720703125,1.5455622394405304,-0.6050690031528473,-1.6888789696156978
1772791017406720500,24.835720458984376,-0.43269320562332864,0.5217810636132956,-1.664670995554328
1772791017426753500,24.85575341796875,-1.4142913363680243,1.4111077378958463,-1.3541700451433658
1772791017446786300,24.875786376953126,-2.1944567941859363,2.095183642268181,-1.1685650559455156
1772791017466819300,24.8958193359375,-2.7018457598313685,2.1630828740179537,-0.8507324474722147
1772791017486851300,24.915851318359376,-3.1610043630540368,1.9385978268057107,-0.6244120015263557
1772791017506884400,24.93588427734375,-3.632738662472367,1.4952484948724507,-0.6007131460309029
1772791017526917000,24.955917236328126,-3.233193108691275,1.256066813787818,-1.0558353333443402
1772791017546949400,24.975949462890625,-2.77650878662765,0.9459569085210561,-1.0363292533636093
1772791017566982100,24.995982177734376,-2.7906799353212115,0.7910656220167874,-0.8460849139273167
1772791017587015400,25.016015380859375,-2.8404344385713336,0.8088514540761709,-0.4730284308820963
1772791017607047400,25.03604736328125,-2.642120189926028,1.0013564319208264,0.004591419443488121
1772791017627080400,25.05608056640625,-2.256782317456603,1.2161255562826991,0.46438159856796263
1772791017647113200,25.07611328125,-2.2200158905953167,1.4977859043955801,1.0344324798315763
1772791017667146500,25.096146484375,-2.4188304899781943,1.8257389248669147,1.3831050477266311
1772791017687178500,25.116178466796875,-2.6126573640763757,2.0160262266620994,1.6125117692500353
1772791017707211300,25.136211181640626,-2.622875391229987,2.450675242528319,1.884070117804408
1772791017727244300,25.156244384765625,-2.6065073170140383,2.873779658812284,2.196574224731326
1772791017747276300,25.1762763671875,-2.4724837542325258,3.4440737011820075,2.614973239803314
1772791017767309300,25.196309326171875,-2.367554183988273,3.8329204585552215,2.877681342425942
1772791017787342300,25.21634228515625,-2.1289000339090824,4.1452559309169645,2.759833546158671
1772791017807375400,25.236375244140625,-1.562395739211142,4.218786154291034,2.88094998883307
1772791017827407400,25.256407470703124,-1.291128482557833,4.013420525829494,3.3821816008925434
1772791017847440100,25.276440185546875,-1.1720660498037934,3.57005950345844,3.652518883219361
