time,seconds_elapsed,z,y,x
1772790992623734500,0.052734619140625,-0.65771484375,-0.775360107421875,-0.0237579345703125
1772790992643767300,0.072767333984375,-0.62890625,-0.7965850830078125,-0.03741455078125
1772790992663800600,0.092800537109375,-0.608245849609375,-0.809539794921875,-0.057098388671875
1772790992683833300,0.112833251953125,-0.615997314453125,-0.8142242431640625,-0.04248046875
1772790992703865600,0.132865478515625,-0.697296142578125,-0.8145751953125,0.0106048583984375
1772790992723898400,0.1528984375,-0.7720947265625,-0.799285888671875,0.0328521728515625
1772790992743931600,0.172931640625,-0.7498626708984375,-0.808074951171875,0.01580810546875
1772790992763964400,0.19296435546875,-0.6744842529296875,-0.8192901611328125,-0.02825927734375
1772790992783996400,0.212996337890625,-0.6630096435546875,-0.82232666015625,-0.058624267578125
1772790992804029400,0.233029541015625,-0.6538848876953125,-0.8267364501953125,-0.0913848876953125
1772790992824062500,0.2530625,-0.6228790283203125,-0.858734130859375,-0.1155548095703125
1772790992844095500,0.273095458984375,-0.63623046875,-0.878814697265625,-0.10406494140625
1772790992864127500,0.29312744140625,-0.70068359375,-0.88037109375,-0.0915679931640625
1772790992884160500,0.313160400390625,-0.7496185302734375,-0.8553619384765625,-0.078826904296875
1772790992904193300,0.333193359375,-0.7542724609375,-0.81427001953125,-0.0663299560546875
1772790992924226600,0.3532265625,-0.7848968505859375,-0.7796630859375,-0.0197906494140625
1772790992944259300,0.37325927734375,-0.780731201171875,-0.7656707763671875,-0.0076904296875
1772790992964291600,0.39329150390625,-0.74810791015625,-0.7651214599609375,-0.0279083251953125
1772790992984324400,0.413324462890625,-0.68585205078125,-0.759246826171875,-0.067657470703125
1772790993004357400,0.433357421875,-0.6064910888671875,-0.7653656005859375,-0.0870361328125
1772790993024390400,0.453390380859375,-0.5667572021484375,-0.7464141845703125,-0.1013336181640625
1772790993044422400,0.47342236328125,-0.572601318359375,-0.731536865234375,-0.133392333984375
1772790993064455400,0.493455322265625,-0.60675048828125,-0.6981048583984375,-0.143890380859375
1772790993084488400,0.513488525390625,-0.644317626953125,-0.6509552001953125,-0.13531494140625
1772790993104521500,0.533521484375,-0.74658203125,-0.5948333740234375,-0.0865325927734375
1772790993124554500,0.553554443359375,-0.8078460693359375,-0.574951171875,-0.076202392578125
1772790993144586500,0.57358642578125,-0.7528228759765625,-0.615814208984375,-0.1127166748046875
1772790993164619500,0.59361962890625,-0.6627044677734375,-0.66729736328125,-0.1619415283203125
1772790993184652500,0.613652587890625,-0.5692596435546875,-0.7089080810546875,-0.2406463623046875
1772790993204685600,0.633685546875,-0.5625457763671875,-0.7351531982421875,-0.2857818603515625
1772790993224717300,0.65371728515625,-0.6060638427734375,-0.7369384765625,-0.2581787109375
1772790993244750600,0.67375048828125,-0.690399169921875,-0.7155303955078125,-0.1844329833984375
1772790993264783400,0.693783447265625,-0.745513916015625,-0.6794586181640625,-0.112457275390625
1772790993284816400,0.71381640625,-0.7187042236328125,-0.651123046875,-0.1075897216796875
1772790993304848400,0.733848388671875,-0.6765899658203125,-0.636962890625,-0.1271514892578125
1772790993324881700,0.753881591796875,-0.58001708984375,-0.6502532958984375,-0.1616668701171875
1772790993344914400,0.77391455078125,-0.52252197265625,-0.677520751953125,-0.1809234619140625
1772790993364947500,0.793947509765625,-0.5367584228515625,-0.6944580078125,-0.1894683837890625
1772790993384980500,0.81398046875,-0.5495147705078125,-0.71099853515625,-0.201385498046875
1772790993405012200,0.83401220703125,-0.5495452880859375,-0.7300872802734375,-0.1979522705078125
1772790993425045200,0.854045166015625,-0.54449462890625,-0.74285888671875,-0.165252685546875
1772790993445078000,0.874078125,-0.6329345703125,-0.710540771484375,-0.1549835205078125
1772790993465111300,0.894111328125,-0.764404296875,-0.6548309326171875,-0.1755828857421875
1772790993485143300,0.914143310546875,-0.8435821533203125,-0.6301727294921875,-0.1988525390625
1772790993505176300,0.93417626953125,-0.948638916015625,-0.6058807373046875,-0.200592041015625
1772790993525209000,0.954208984375,-1.0116119384765625,-0.6134185791015625,-0.1998443603515625
1772790993545242400,0.974242431640625,-1.0510101318359375,-0.6165771484375,-0.188720703125
1772790993565274000,0.994274169921875,-0.989288330078125,-0.6442413330078125,-0.1733856201171875
1772790993585307100,1.01430712890625,-0.899169921875,-0.689422607421875,-0.1543121337890625
1772790993605340200,1.034340087890625,-0.8172149658203125,-0.7211151123046875,-0.161468505859375
1772790993625373200,1.054373291015625,-0.8006591796875,-0.7330474853515625,-0.1894073486328125
1772790993645406200,1.07440625,-0.8852081298828125,-0.7175140380859375,-0.160858154296875
1772790993665438200,1.094438232421875,-0.9720611572265625,-0.713104248046875,-0.090728759765625
1772790993685471200,1.11447119140625,-0.9846038818359375,-0.709991455078125,-0.025848388671875
1772790993705504300,1.134504150390625,-0.954864501953125,-0.690338134765625,-0.015594482421875
1772790993725537300,1.154537353515625,-0.8867645263671875,-0.66650390625,-0.0105133056640625
1772790993745569300,1.1745693359375,-0.7863006591796875,-0.648529052734375,-0.0104827880859375
1772790993765602000,1.19460205078125,-0.7047576904296875,-0.6434173583984375,-0.0094451904296875
1772790993785635300,1.21463525390625,-0.64495849609375,-0.6414031982421875,-0.00860595703125
1772790993805668000,1.234668212890625,-0.59857177734375,-0.644256591796875,-0.0045318603515625
1772790993825700400,1.254700439453125,-0.5977020263671875,-0.6484222412109375,0.020904541015625
1772790993845733000,1.274733154296875,-0.5871429443359375,-0.647735595703125,0.045501708984375
1772790993865766400,1.294766357421875,-0.563079833984375,-0.641082763671875,0.069549560546875
1772790993885799200,1.314799072265625,-0.583160400390625,-0.6359100341796875,0.094940185546875
1772790993905832200,1.334832275390625,-0.6201171875,-0.6369781494140625,0.098724365234375
1772790993925864200,1.3548642578125,-0.6261749267578125,-0.62469482421875,0.0554962158203125
1772790993945897200,1.374897216796875,-0.6042938232421875,-0.628448486328125,0.0263671875
1772790993965930200,1.39493017578125,-0.5652008056640625,-0.6537322998046875,0.025360107421875
1772790993985963000,1.414962890625,-0.5274505615234375,-0.6713714599609375,0.0100555419921875
1772790994005995300,1.434995361328125,-0.469879150390625,-0.6912078857421875,-0.028564453125
1772790994026028000,1.455028076171875,-0.470062255859375,-0.7055511474609375,-0.0464935302734375
1772790994046061300,1.475061279296875,-0.5095062255859375,-0.7207489013671875,-0.0487823486328125
1772790994066094000,1.495093994140625,-0.5322113037109375,-0.74359130859375,-0.062469482421875
1772790994086126000,1.5151259765625,-0.536163330078125,-0.7608489990234375,-0.0602264404296875
1772790994106159000,1.5351591796875,-0.5494842529296875,-0.753814697265625,-0.0369873046875
1772790994126192000,1.555192138671875,-0.5522308349609375,-0.7691650390625,0.016204833984375
1772790994146225200,1.57522509765625,-0.51910400390625,-0.7610321044921875,-0.04327392578125
1772790994166257200,1.595257080078125,-0.61956787109375,-0.752716064453125,-0.060272216796875
1772790994186290200,1.615290283203125,-0.7494659423828125,-0.6641693115234375,0.0218505859375
1772790994206323200,1.6353232421875,-0.63201904296875,-0.71234130859375,0.0935211181640625
1772790994226356200,1.655356201171875,-0.473846435546875,-0.5989837646484375,0.006988525390625
1772790994246388200,1.67538818359375,-0.3466949462890625,-0.6949615478515625,0.0425872802734375
1772790994266421200,1.695421142578125,-0.4031829833984375,-0.6280364990234375,0.123504638671875
1772790994286454300,1.715454345703125,-0.5195159912109375,-0.7183380126953125,0.110626220703125
1772790994306487300,1.7354873046875,-0.409637451171875,-0.73223876953125,0.1593475341796875
1772790994326520300,1.755520263671875,-0.3297119140625,-0.5991363525390625,0.243133544921875
1772790994346552000,1.775552001953125,-0.598968505859375,-0.6487579345703125,0.22283935546875
1772790994366585300,1.79558544921875,-0.884124755859375,-0.8322906494140625,0.06689453125
1772790994386618000,1.8156181640625,-1.010223388671875,-0.736572265625,0.01043701171875
1772790994406651000,1.83565087890625,-0.9846954345703125,-0.551239013671875,-0.115325927734375
1772790994426682600,1.8556826171875,-0.853424072265625,-0.4987640380859375,-0.362548828125
1772790994446716000,1.8757158203125,-0.857757568359375,-0.496612548828125,-0.4470672607421875
1772790994466748700,1.895748779296875,-0.857666015625,-0.236480712890625,-0.167205810546875
1772790994486782000,1.915781982421875,-0.971893310546875,-0.2381439208984375,-0.0397186279296875
1772790994506813700,1.935813720703125,-1.0775909423828125,-0.207611083984375,0.0193023681640625
1772790994526847000,1.955846923828125,-1.124053955078125,-0.2252197265625,0.0176239013671875
1772790994546879700,1.975879638671875,-1.079254150390625,-0.2501220703125,0.08984375
1772790994566912800,1.995912841796875,-1.0719146728515625,-0.297576904296875,0.1347503662109375
1772790994586944800,2.01594482421875,-1.091796875,-0.3417205810546875,0.170867919921875
1772790994606978000,2.03597802734375,-1.099029541015625,-0.370635986328125,0.1884002685546875
1772790994627010800,2.0560107421875,-1.1632843017578125,-0.39691162109375,0.294189453125
1772790994647043800,2.0760439453125,-1.20428466796875,-0.41204833984375,0.38946533203125
1772790994667075800,2.096075927734375,-1.1763916015625,-0.414215087890625,0.3847198486328125
1772790994687108900,2.11610888671875,-1.111907958984375,-0.4112396240234375,0.358856201171875
1772790994707142000,2.136141845703125,-1.0694580078125,-0.426910400390625,0.408294677734375
1772790994727174700,2.156174560546875,-1.04290771484375,-0.440673828125,0.478271484375
1772790994747207000,2.17620703125,-0.988861083984375,-0.4402008056640625,0.4818572998046875
1772790994767240000,2.196239990234375,-0.907562255859375,-0.4652099609375,0.4505157470703125
1772790994787273000,2.21627294921875,-0.81927490234375,-0.4862060546875,0.4116363525390625
1772790994807305700,2.2363056640625,-0.731597900390625,-0.4991912841796875,0.39306640625
1772790994827339000,2.256339111328125,-0.7000274658203125,-0.4969024658203125,0.4434814453125
1772790994847370800,2.276370849609375,-0.644500732421875,-0.5238494873046875,0.4758758544921875
1772790994867403800,2.29640380859375,-0.576812744140625,-0.5054168701171875,0.4626922607421875
1772790994887436800,2.316436767578125,-0.5182952880859375,-0.512115478515625,0.4212188720703125
1772790994907469800,2.3364697265625,-0.4551239013671875,-0.498291015625,0.417236328125
1772790994927501800,2.356501708984375,-0.41204833984375,-0.482208251953125,0.38641357421875
1772790994947534800,2.376534912109375,-0.371368408203125,-0.438385009765625,0.3069000244140625
1772790994967568000,2.39656787109375,-0.3626861572265625,-0.3661041259765625,0.3376007080078125
1772790994987601000,2.416600830078125,-0.3205413818359375,-0.3300323486328125,0.4181976318359375
1772790995007632600,2.436632568359375,-0.235992431640625,-0.2588348388671875,0.485809326171875
1772790995027666000,2.456666015625,-0.13995361328125,-0.167236328125,0.5317230224609375
1772790995047698700,2.47669873046875,0.0023651123046875,-0.1167449951171875,0.5232696533203125
1772790995067732000,2.49673193359375,0.112884521484375,-0.0699005126953125,0.57257080078125
1772790995087763700,2.516763671875,0.1816253662109375,-0.056793212890625,0.7024078369140625
1772790995107797000,2.536796875,0.15570068359375,0.0242767333984375,0.85595703125
1772790995127829800,2.556829833984375,0.1180572509765625,0.0374908447265625,0.935699462890625
1772790995147862800,2.57686279296875,0.143096923828125,0.09820556640625,0.985748291015625
1772790995167894800,2.596894775390625,0.230865478515625,0.1274261474609375,1.05279541015625
1772790995187927800,2.616927734375,0.2327880859375,0.141693115234375,1.0701751708984375
1772790995207960800,2.6369609375,0.286041259765625,0.179443359375,1.1850738525390625
1772790995227993600,2.65699365234375,0.283172607421875,0.2093963623046875,1.1376953125
1772790995248025900,2.67702587890625,0.250762939453125,0.2059783935546875,1.0333251953125
1772790995268059000,2.697058837890625,0.260833740234375,0.2064361572265625,1.0077972412109375
1772790995288092000,2.717091796875,0.3165130615234375,0.260894775390625,1.015899658203125
1772790995308124700,2.737124755859375,0.2626190185546875,0.3066864013671875,0.9262542724609375
1772790995328157000,2.757156982421875,0.2487030029296875,0.400299072265625,0.85052490234375
1772790995348190000,2.77718994140625,0.2580413818359375,0.5150909423828125,0.8263092041015625
1772790995368222700,2.79722265625,0.231964111328125,0.5472869873046875,0.858184814453125
1772790995388255700,2.817255859375,0.1877899169921875,0.584014892578125,0.9387359619140625
1772790995408288300,2.837288330078125,0.1353912353515625,0.6156158447265625,0.9631805419921875
1772790995428321300,2.8573212890625,0.07989501953125,0.6716766357421875,0.880615234375
1772790995448354300,2.877354248046875,0.089447021484375,0.7729034423828125,0.80670166015625
1772790995468387300,2.89738720703125,0.0980377197265625,0.8401947021484375,0.72772216796875
1772790995488419300,2.91741943359375,0.1483306884765625,0.924407958984375,0.712493896484375
1772790995508452000,2.9374521484375,0.190673828125,0.9568023681640625,0.7599029541015625
1772790995528485400,2.9574853515625,0.22296142578125,0.9599151611328125,0.826568603515625
1772790995548518100,2.97751806640625,0.24127197265625,0.9540863037109375,0.8885345458984375
1772790995568550400,2.99755029296875,0.2646942138671875,0.9587249755859375,0.9190826416015625
1772790995588583200,3.017583251953125,0.30389404296875,0.9590301513671875,0.9195556640625
1772790995608616400,3.037616455078125,0.3344879150390625,0.9207305908203125,0.901641845703125
1772790995628649200,3.057649169921875,0.366424560546875,0.8761749267578125,0.90496826171875
1772790995648681200,3.07768115234375,0.3704681396484375,0.8095855712890625,0.908355712890625
1772790995668714200,3.09771435546875,0.358642578125,0.7332763671875,0.9070892333984375
1772790995688747300,3.117747314453125,0.4117279052734375,0.768035888671875,0.9825897216796875
1772790995708780300,3.1377802734375,0.4700775146484375,0.983001708984375,1.0834197998046875
1772790995728812300,3.157812255859375,0.394500732421875,1.0160675048828125,1.037841796875
1772790995748845300,3.17784521484375,0.260498046875,1.0030364990234375,0.965057373046875
1772790995768878300,3.19787841796875,0.19390869140625,0.908233642578125,0.9346923828125
1772790995788911400,3.217911376953125,0.187591552734375,0.832244873046875,0.9231719970703125
1772790995808943400,3.237943359375,0.17047119140625,0.7908477783203125,0.9149169921875
1772790995828976000,3.25797607421875,0.162322998046875,0.7734222412109375,0.8582305908203125
1772790995849009200,3.278009033203125,0.183990478515625,0.772979736328125,0.770355224609375
1772790995869042200,3.298042236328125,0.1924285888671875,0.7386627197265625,0.699005126953125
1772790995889074400,3.318074462890625,0.189422607421875,0.7320709228515625,0.643280029296875
1772790995909107200,3.338107177734375,0.189727783203125,0.7124481201171875,0.627685546875
1772790995929140200,3.35814013671875,0.2130584716796875,0.7342529296875,0.627532958984375
1772790995949173200,3.37817333984375,0.2131500244140625,0.7730712890625,0.6273345947265625
1772790995969205200,3.398205322265625,0.214599609375,0.864227294921875,0.6525115966796875
1772790995989238300,3.41823828125,0.17413330078125,0.9381103515625,0.633087158203125
1772790996009271000,3.43827099609375,0.1479034423828125,0.9699554443359375,0.623443603515625
1772790996029303300,3.45830322265625,0.1378021240234375,0.98455810546875,0.6103363037109375
1772790996049336300,3.47833642578125,0.1254425048828125,0.9556884765625,0.6283721923828125
1772790996069369300,3.498369384765625,0.11895751953125,0.94305419921875,0.6488800048828125
1772790996089402000,3.518402099609375,0.09686279296875,0.9287261962890625,0.6495513916015625
1772790996109434000,3.53843408203125,0.0821533203125,0.9271087646484375,0.6352996826171875
1772790996129467100,3.558467041015625,0.0933074951171875,0.9505462646484375,0.6197357177734375
1772790996149500200,3.578500244140625,0.073822021484375,0.967437744140625,0.5666351318359375
1772790996169533200,3.598533203125,0.0576171875,0.9433746337890625,0.51239013671875
1772790996189565200,3.618565185546875,0.042510986328125,0.8921966552734375,0.471405029296875
1772790996209598200,3.63859814453125,0.0262603759765625,0.814910888671875,0.439056396484375
1772790996229631200,3.65863134765625,0.0221099853515625,0.748046875,0.4232330322265625
1772790996249664300,3.678664306640625,0.044036865234375,0.7351837158203125,0.4220733642578125
1772790996269696300,3.6986962890625,0.033050537109375,0.7288665771484375,0.39654541015625
1772790996289729300,3.718729248046875,0.0286712646484375,0.7276153564453125,0.382843017578125
1772790996309762300,3.73876220703125,0.043212890625,0.725494384765625,0.3704833984375
1772790996329795300,3.75879541015625,0.09649658203125,0.750244140625,0.385101318359375
1772790996349827300,3.778827392578125,0.1182708740234375,0.776641845703125,0.4078521728515625
1772790996369860000,3.798860107421875,0.1353302001953125,0.7822113037109375,0.4579010009765625
1772790996389893400,3.818893310546875,0.1732940673828125,0.805877685546875,0.5222320556640625
1772790996409926400,3.838926513671875,0.1952056884765625,0.8063812255859375,0.5574493408203125
1772790996429958400,3.85895849609375,0.2222900390625,0.799346923828125,0.589324951171875
1772790996449991400,3.878991455078125,0.246337890625,0.8051910400390625,0.613372802734375
1772790996470024400,3.8990244140625,0.25439453125,0.7994232177734375,0.63201904296875
1772790996490057500,3.919057373046875,0.271331787109375,0.8062591552734375,0.6248626708984375
1772790996510089500,3.93908935546875,0.3011474609375,0.82049560546875,0.6430511474609375
1772790996530122500,3.95912255859375,0.3450469970703125,0.870880126953125,0.6591949462890625
1772790996550155500,3.979155517578125,0.3317718505859375,0.903717041015625,0.644317626953125
1772790996570184400,3.999184326171875,0.2675933837890625,0.927581787109375,0.630157470703125
1772790996590217500,4.019217529296875,0.2270660400390625,0.93609619140625,0.6244049072265625
1772790996610250500,4.03925048828125,0.2310638427734375,0.945404052734375,0.620513916015625
1772790996630283300,4.059283203125,0.2354583740234375,0.95599365234375,0.6334381103515625
1772790996650315500,4.0793154296875,0.222686767578125,0.9784698486328125,0.6622772216796875
1772790996670348300,4.099348388671875,0.1772308349609375,0.9926605224609375,0.6911773681640625
1772790996690381600,4.119381591796875,0.1376495361328125,0.9925994873046875,0.7185821533203125
1772790996710414300,4.139414306640625,0.1227874755859375,0.9569854736328125,0.7395172119140625
1772790996730446300,4.1594462890625,0.1383056640625,0.8888092041015625,0.7470245361328125
1772790996750479400,4.179479248046875,0.16326904296875,0.7945709228515625,0.74176025390625
1772790996770512400,4.199512451171875,0.188201904296875,0.7021942138671875,0.7321624755859375
1772790996790545400,4.21954541015625,0.213043212890625,0.615692138671875,0.7238616943359375
1772790996810577400,4.239577392578125,0.2333526611328125,0.5564727783203125,0.723785400390625
1772790996830610400,4.2596103515625,0.264312744140625,0.559356689453125,0.76507568359375
1772790996850643500,4.2796435546875,0.2710418701171875,0.579833984375,0.7855987548828125
1772790996870676500,4.299676513671875,0.261962890625,0.5963592529296875,0.78131103515625
1772790996890708500,4.31970849609375,0.2497406005859375,0.6383819580078125,0.7781524658203125
1772790996910741500,4.339741455078125,0.2121734619140625,0.6922454833984375,0.7665557861328125
1772790996930774500,4.3597744140625,0.1609649658203125,0.73876953125,0.749969482421875
1772790996950807600,4.3798076171875,0.1073455810546875,0.7623291015625,0.717987060546875
1772790996970839600,4.399839599609375,0.067474365234375,0.7739105224609375,0.6728973388671875
1772790996990873300,4.419873291015625,0.031280517578125,0.761810302734375,0.6298828125
1772790997010906400,4.43990625,0.025177001953125,0.745697021484375,0.589630126953125
1772790997030939400,4.459939453125,0.034576416015625,0.72894287109375,0.538116455078125
1772790997050971400,4.479971435546875,0.05267333984375,0.718780517578125,0.4882354736328125
1772790997071004400,4.50000439453125,0.0725860595703125,0.709808349609375,0.445159912109375
1772790997091037400,4.520037353515625,0.0985107421875,0.7027587890625,0.401885986328125
1772790997111070500,4.540070556640625,0.1234283447265625,0.696807861328125,0.36712646484375
1772790997131102500,4.5601025390625,0.148406982421875,0.7013397216796875,0.342132568359375
1772790997151135500,4.580135498046875,0.16851806640625,0.723602294921875,0.3408660888671875
1772790997171168500,4.60016845703125,0.1746063232421875,0.7226104736328125,0.3217620849609375
1772790997191201500,4.620201416015625,0.2080078125,0.718475341796875,0.3352203369140625
1772790997211233300,4.6402333984375,0.2151336669921875,0.727203369140625,0.365509033203125
1772790997231266600,4.6602666015625,0.2310791015625,0.7724609375,0.4224090576171875
1772790997251299300,4.68029931640625,0.25506591796875,0.82598876953125,0.5091552734375
1772790997271332600,4.70033251953125,0.28558349609375,0.891265869140625,0.578887939453125
1772790997291364400,4.7203642578125,0.3711090087890625,0.94940185546875,0.6419830322265625
1772790997311397600,4.740397705078125,0.529937744140625,1.089141845703125,0.761627197265625
1772790997331430400,4.760430419921875,0.5890350341796875,1.1979522705078125,0.8419647216796875
1772790997351463700,4.780463623046875,0.5171051025390625,1.173614501953125,0.8955078125
1772790997371495400,4.800495361328125,0.421966552734375,1.069091796875,0.946868896484375
1772790997391528400,4.820528564453125,0.385406494140625,0.8928375244140625,0.972869873046875
1772790997411561000,4.84056103515625,0.3623504638671875,0.7681732177734375,0.9920501708984375
1772790997431593000,4.860593017578125,0.352294921875,0.7184906005859375,1.0070037841796875
1772790997451626000,4.8806259765625,0.3148193359375,0.7318115234375,0.94976806640625
1772790997471659000,4.900658935546875,0.2755279541015625,0.7646942138671875,0.8501129150390625
1772790997491692000,4.920692138671875,0.2196807861328125,0.74090576171875,0.7646026611328125
1772790997511724000,4.94072412109375,0.1828765869140625,0.707550048828125,0.7086944580078125
1772790997531756800,4.9607568359375,0.1411285400390625,0.68707275390625,0.653045654296875
1772790997551790000,4.9807900390625,0.07763671875,0.681793212890625,0.593505859375
1772790997571822800,5.00082275390625,0.0204620361328125,0.6956634521484375,0.5397491455078125
1772790997591855000,5.020855224609375,-0.0304718017578125,0.726776123046875,0.503021240234375
1772790997611887900,5.040887939453125,-0.07000732421875,0.7613525390625,0.4892425537109375
1772790997631921200,5.060921142578125,-0.090606689453125,0.79840087890625,0.5028076171875
1772790997651954000,5.080953857421875,-0.08953857421875,0.812652587890625,0.546051025390625
1772790997671986000,5.10098583984375,-0.0617523193359375,0.8207855224609375,0.6056060791015625
1772790997692019000,5.12101904296875,-0.03143310546875,0.7960662841796875,0.647216796875
1772790997712052000,5.141052001953125,0.0156707763671875,0.796173095703125,0.714630126953125
1772790997732085000,5.1610849609375,0.0288238525390625,0.802337646484375,0.801025390625
1772790997752117000,5.181116943359375,0.0465087890625,0.7867279052734375,0.8126068115234375
1772790997772150000,5.20114990234375,0.0892791748046875,0.82904052734375,0.8990325927734375
1772790997792183000,5.22118310546875,0.148468017578125,0.916351318359375,0.953582763671875
1772790997812216000,5.241216064453125,0.1934661865234375,0.954315185546875,0.9429168701171875
1772790997832248000,5.261248046875,0.2855224609375,1.00042724609375,0.889007568359375
1772790997852280800,5.28128076171875,0.34991455078125,0.9866943359375,0.8437652587890625
1772790997872313900,5.30131396484375,0.3262481689453125,0.9028472900390625,0.797210693359375
1772790997892345900,5.321345947265625,0.3054656982421875,0.9143218994140625,0.8199310302734375
1772790997912379100,5.341379150390625,0.2689056396484375,0.9088287353515625,0.7936248779296875
1772790997932412000,5.361411865234375,0.2505035400390625,0.9645843505859375,0.753875732421875
1772790997952445000,5.38144482421875,0.2173309326171875,0.975250244140625,0.653961181640625
1772790997972477000,5.401476806640625,0.1853790283203125,0.9435272216796875,0.5395355224609375
1772790997992510000,5.421510009765625,0.2123870849609375,0.9514007568359375,0.4990081787109375
1772790998012543000,5.44154296875,0.254913330078125,0.9788970947265625,0.4798126220703125
1772790998032575700,5.46157568359375,0.2152099609375,0.972137451171875,0.4322509765625
1772790998052608000,5.48160791015625,0.135528564453125,0.8921051025390625,0.34881591796875
1772790998072640800,5.501640869140625,0.07464599609375,0.8764190673828125,0.2961273193359375
1772790998092674000,5.521674072265625,-0.02001953125,0.8485107421875,0.198028564453125
1772790998112706800,5.541706787109375,-0.10650634765625,0.7514801025390625,0.0905609130859375
1772790998132739000,5.561739013671875,-0.0740203857421875,0.6336517333984375,0.1118011474609375
1772790998152771800,5.581771728515625,0.0544891357421875,0.6375732421875,0.2469024658203125
1772790998172805000,5.60180517578125,0.185760498046875,0.6905670166015625,0.394866943359375
1772790998192838000,5.621837890625,0.2917938232421875,0.7349853515625,0.5172576904296875
1772790998212870000,5.641869873046875,0.334381103515625,0.7670135498046875,0.5635833740234375
1772790998232903000,5.66190283203125,0.3825531005859375,0.79791259765625,0.6263580322265625
1772790998252936000,5.68193603515625,0.3901214599609375,0.8231353759765625,0.692535400390625
1772790998272968000,5.701968017578125,0.3522186279296875,0.8306427001953125,0.745208740234375
1772790998293001000,5.7220009765625,0.2913360595703125,0.8512420654296875,0.821929931640625
1772790998313034000,5.742033935546875,0.235565185546875,0.8383636474609375,0.904998779296875
1772790998333067000,5.76206689453125,0.193206787109375,0.8099212646484375,1.00018310546875
1772790998353098800,5.7820986328125,0.1216278076171875,0.7881622314453125,1.082275390625
1772790998373132000,5.802132080078125,0.0443267822265625,0.7666015625,1.100830078125
1772790998393164800,5.822164794921875,-0.042816162109375,0.7252349853515625,1.0429229736328125
1772790998413198000,5.842197998046875,-0.0848388671875,0.7123260498046875,0.9688873291015625
1772790998433229800,5.862229736328125,-0.101470947265625,0.7274932861328125,0.890960693359375
1772790998453263000,5.88226318359375,-0.081298828125,0.7581939697265625,0.8089752197265625
1772790998473296000,5.9022958984375,-0.0206298828125,0.80535888671875,0.7477264404296875
1772790998493329200,5.9223291015625,0.026641845703125,0.839813232421875,0.6775970458984375
1772790998513361000,5.94236083984375,0.091064453125,0.845794677734375,0.5701446533203125
1772790998533394200,5.962394287109375,0.180511474609375,0.8472900390625,0.43359375
1772790998553427000,5.982427001953125,0.2638702392578125,0.8330230712890625,0.320770263671875
1772790998573460200,6.002460205078125,0.2860870361328125,0.826751708984375,0.3369598388671875
1772790998593492000,6.022491943359375,0.255340576171875,0.8462066650390625,0.371826171875
1772790998613525000,6.04252490234375,0.2446746826171875,0.86358642578125,0.4335784912109375
1772790998633558000,6.06255810546875,0.29022216796875,0.8679962158203125,0.6165771484375
1772790998653590000,6.082590087890625,0.29742431640625,1.000823974609375,0.8395538330078125
1772790998673623000,6.102623046875,0.2402191162109375,1.1141204833984375,1.0266265869140625
1772790998693656000,6.122656005859375,0.16937255859375,1.118377685546875,1.134063720703125
1772790998713689000,6.142689208984375,0.17950439453125,1.0441131591796875,1.2261810302734375
1772790998733721000,6.16272119140625,0.2274627685546875,0.9008331298828125,1.295989990234375
1772790998753753900,6.18275390625,0.32470703125,0.742645263671875,1.320404052734375
1772790998773787100,6.202787109375,0.461151123046875,0.661163330078125,1.231292724609375
1772790998793820000,6.22281982421875,0.5431671142578125,0.6387939453125,1.028076171875
1772790998813852200,6.24285205078125,0.497314453125,0.6538238525390625,0.8656463623046875
1772790998833885000,6.262885009765625,0.358367919921875,0.689056396484375,0.792724609375
1772790998853918000,6.28291796875,0.19537353515625,0.7668914794921875,0.75830078125
1772790998873950000,6.302949951171875,0.071868896484375,0.80682373046875,0.67510986328125
1772790998893983000,6.32298291015625,0.02264404296875,0.8730621337890625,0.600189208984375
1772790998914016000,6.34301611328125,0.0045166015625,0.896453857421875,0.527740478515625
1772790998934048800,6.363048828125,0.0292205810546875,0.8998565673828125,0.5344696044921875
1772790998954081000,6.3830810546875,0.0691680908203125,0.9148101806640625,0.593231201171875
1772790998974114000,6.403114013671875,0.0922698974609375,0.9230499267578125,0.653045654296875
1772790998994147000,6.42314697265625,0.0887298583984375,0.903717041015625,0.6795654296875
1772790999014179800,6.443179931640625,0.1072235107421875,0.8455657958984375,0.672882080078125
1772790999034212000,6.463212158203125,0.152557373046875,0.794403076171875,0.6761932373046875
1772790999054245000,6.4832451171875,0.1872100830078125,0.7606658935546875,0.681640625
1772790999074278000,6.50327783203125,0.22454833984375,0.7542877197265625,0.7057647705078125
1772790999094311000,6.523310791015625,0.2368927001953125,0.8014678955078125,0.7420501708984375
1772790999114343000,6.543343017578125,0.20281982421875,0.8386688232421875,0.73583984375
1772790999134376000,6.5633759765625,0.1792144775390625,0.8640594482421875,0.714691162109375
1772790999154409000,6.583408935546875,0.18914794921875,0.8944549560546875,0.713592529296875
1772790999174441200,6.603441162109375,0.2057037353515625,0.9008636474609375,0.7108917236328125
1772790999194474000,6.623473876953125,0.2291259765625,0.8834075927734375,0.692108154296875
1772790999214507000,6.643507080078125,0.24835205078125,0.8457183837890625,0.680633544921875
1772790999234540000,6.6635400390625,0.2405242919921875,0.8253631591796875,0.7027435302734375
1772790999254572000,6.683572021484375,0.1952972412109375,0.80902099609375,0.7211151123046875
1772790999274605000,6.70360498046875,0.1289520263671875,0.810516357421875,0.7186279296875
1772790999294637800,6.723637939453125,0.14044189453125,0.9356231689453125,0.7955322265625
1772790999314671000,6.743671142578125,0.13214111328125,1.0889739990234375,0.8000946044921875
1772790999334702800,6.763702880859375,0.0626068115234375,1.2090606689453125,0.7324981689453125
1772790999354736000,6.783736083984375,-0.05255126953125,1.186431884765625,0.5283355712890625
1772790999374769000,6.803768798828125,-0.1294097900390625,1.0629730224609375,0.2958984375
1772790999394802200,6.82380224609375,-0.13433837890625,0.8740692138671875,0.1161346435546875
1772790999414833700,6.843833740234375,-0.079803466796875,0.7172698974609375,0.0902099609375
1772790999434866700,6.86386669921875,0.0195159912109375,0.5562896728515625,0.1365509033203125
1772790999454899500,6.8838994140625,0.12298583984375,0.4434661865234375,0.1801910400390625
1772790999474931500,6.903931396484375,0.275238037109375,0.464874267578125,0.213104248046875
1772790999494964500,6.923964599609375,0.4678497314453125,0.5789337158203125,0.2490081787109375
1772790999514997500,6.94399755859375,0.6085662841796875,0.7222747802734375,0.271514892578125
1772790999535030500,6.964030517578125,0.6977081298828125,0.861602783203125,0.3016357421875
1772790999555062500,6.9840625,0.7135162353515625,0.9607086181640625,0.4119415283203125
1772790999575095600,7.004095458984375,0.6393585205078125,1.0456085205078125,0.596466064453125
1772790999595128600,7.024128662109375,0.4601898193359375,1.0501251220703125,0.7376861572265625
1772790999615161600,7.04416162109375,0.286590576171875,1.017181396484375,0.8526153564453125
1772790999635193600,7.064193603515625,0.1595306396484375,0.9740753173828125,0.92041015625
1772790999655226400,7.084226318359375,0.08251953125,0.918243408203125,0.9496002197265625
1772790999675259600,7.104259765625,0.050445556640625,0.864837646484375,0.950714111328125
1772790999695292400,7.12429248046875,0.052490234375,0.8046417236328125,0.93280029296875
1772790999715324700,7.14432470703125,0.077606201171875,0.7758636474609375,0.89898681640625
1772790999735357400,7.164357421875,0.1148834228515625,0.7309722900390625,0.851959228515625
1772790999755390700,7.184390625,0.1593475341796875,0.7059173583984375,0.78680419921875
1772790999775422500,7.20442236328125,0.1893768310546875,0.680267333984375,0.713043212890625
1772790999795455700,7.224455810546875,0.2212066650390625,0.6782379150390625,0.6528472900390625
1772790999815488500,7.244488525390625,0.2330169677734375,0.6926727294921875,0.6048583984375
1772790999835521800,7.264521728515625,0.2478179931640625,0.726776123046875,0.5591583251953125
1772790999855553500,7.284553466796875,0.2620849609375,0.8011016845703125,0.581207275390625
1772790999875586600,7.304586669921875,0.2239990234375,0.8536529541015625,0.5890045166015625
1772790999895619600,7.32461962890625,0.198394775390625,0.87286376953125,0.595001220703125
1772790999915652600,7.344652587890625,0.17547607421875,0.8813018798828125,0.5989532470703125
1772790999935684600,7.3646845703125,0.1589508056640625,0.8549652099609375,0.619598388671875
1772790999955717600,7.384717529296875,0.1602935791015625,0.8059234619140625,0.6865692138671875
1772790999975750700,7.404750732421875,0.2272186279296875,0.8638458251953125,0.874542236328125
1772790999995782700,7.42478271484375,0.2063446044921875,0.891693115234375,0.99139404296875
1772791000015815400,7.4448154296875,0.1913604736328125,0.864837646484375,1.1080322265625
1772791000035848700,7.4648486328125,0.2061920166015625,0.8578643798828125,1.229461669921875
1772791000055881500,7.484881591796875,0.2177886962890625,0.7610321044921875,1.2917633056640625
1772791000075913700,7.504913818359375,0.2396697998046875,0.697540283203125,1.3133544921875
1772791000095946500,7.524946533203125,0.2596893310546875,0.671844482421875,1.238616943359375
1772791000115979800,7.544979736328125,0.2558746337890625,0.6765289306640625,1.0798797607421875
1772791000136012500,7.565012451171875,0.248077392578125,0.7421112060546875,0.97509765625
1772791000156044500,7.58504443359375,0.1995086669921875,0.8264007568359375,0.874481201171875
1772791000176077600,7.60507763671875,0.1509857177734375,0.8989715576171875,0.77728271484375
1772791000196110600,7.625110595703125,0.1163330078125,0.9495391845703125,0.7199859619140625
1772791000216142600,7.645142578125,0.0988006591796875,0.9979705810546875,0.717071533203125
1772791000236175600,7.665175537109375,0.081298828125,1.0397186279296875,0.723663330078125
1772791000256208600,7.685208740234375,0.0431365966796875,1.055877685546875,0.71319580078125
1772791000276241700,7.70524169921875,-0.009979248046875,1.068603515625,0.7158203125
1772791000296273400,7.7252734375,-0.065582275390625,1.0481414794921875,0.7306671142578125
1772791000316306700,7.745306640625,-0.08563232421875,1.0157012939453125,0.7494659423828125
1772791000336339500,7.76533935546875,-0.0365142822265625,0.96435546875,0.7191314697265625
1772791000356372500,7.78537255859375,0.060394287109375,0.9395294189453125,0.678741455078125
1772791000376404500,7.805404541015625,0.1602630615234375,0.9894866943359375,0.69097900390625
1772791000396437800,7.825437744140625,0.210113525390625,1.0272979736328125,0.71173095703125
1772791000416471300,7.84547119140625,0.2531585693359375,1.0168304443359375,0.71563720703125
1772791000436503300,7.86550341796875,0.307464599609375,0.9910736083984375,0.69769287109375
1772791000456536300,7.885536376953125,0.3180084228515625,0.9302215576171875,0.65771484375
1772791000476569000,7.905569091796875,0.3089141845703125,0.8945159912109375,0.6488494873046875
1772791000496602400,7.925602294921875,0.273101806640625,0.891021728515625,0.6678619384765625
1772791000516634000,7.945634033203125,0.2160797119140625,0.9030914306640625,0.688018798828125
1772791000536667100,7.965667236328125,0.1616058349609375,0.9316253662109375,0.7025909423828125
1772791000556699400,7.985699462890625,0.11175537109375,0.943878173828125,0.687103271484375
1772791000576732200,8.005732177734375,0.104095458984375,0.9694061279296875,0.6729736328125
1772791000596764200,8.02576416015625,0.107635498046875,0.9933624267578125,0.6639862060546875
1772791000616797200,8.045797119140625,0.0833740234375,0.998138427734375,0.6313018798828125
1772791000636830200,8.065830322265626,0.05694580078125,1.002960205078125,0.5684814453125
1772791000656862200,8.0858623046875,0.030731201171875,0.989593505859375,0.490234375
1772791000676895200,8.105895263671876,0.0261993408203125,0.95513916015625,0.3789215087890625
1772791000696928300,8.12592822265625,0.0818634033203125,0.86163330078125,0.2100982666015625
1772791000716961000,8.1459609375,0.2208251953125,0.7623138427734375,0.0842742919921875
1772791000736993300,8.1659931640625,0.3768157958984375,0.6855316162109375,0.0737457275390625
1772791000757026300,8.1860263671875,0.463653564453125,0.6037750244140625,0.1534881591796875
1772791000777059300,8.206059326171875,0.5249176025390625,0.5503082275390625,0.2454986572265625
1772791000797092000,8.226092041015624,0.5855865478515625,0.566741943359375,0.3415679931640625
1772791000817124000,8.2461240234375,0.632904052734375,0.66021728515625,0.436767578125
1772791000837157400,8.266157470703124,0.6211395263671875,0.77105712890625,0.518890380859375
1772791000857190100,8.286190185546875,0.54193115234375,0.89080810546875,0.6219329833984375
1772791000877222400,8.306222412109374,0.43011474609375,1.0634002685546875,0.764190673828125
1772791000897255200,8.326255126953125,0.2604827880859375,1.212493896484375,0.8824615478515625
1772791000917288200,8.3462880859375,0.0956573486328125,1.2373199462890625,0.9369049072265625
1772791000937321200,8.3663212890625,-0.022857666015625,1.1722259521484375,0.9527130126953125
1772791000957353200,8.386353271484374,-0.0852813720703125,1.0623321533203125,0.9580535888671875
1772791000977388000,8.406387939453126,-0.0789337158203125,0.9451141357421875,0.9793243408203125
1772791000997421300,8.42642138671875,-0.05694580078125,0.891571044921875,1.0341033935546875
1772791001017454000,8.4464541015625,-0.038970947265625,0.813446044921875,1.0215911865234375
1772791001037486300,8.466486328125,-0.0069732666015625,0.7334747314453125,0.9446868896484375
1772791001057519000,8.48651904296875,0.0673370361328125,0.70947265625,0.8512725830078125
1772791001077552400,8.506552490234375,0.1182708740234375,0.7012939453125,0.772796630859375
1772791001097585200,8.526585205078124,0.1353607177734375,0.7061767578125,0.6939697265625
1772791001117617200,8.5466171875,0.1322021484375,0.7194671630859375,0.6245269775390625
1772791001137650200,8.566650146484376,0.1277618408203125,0.7335052490234375,0.563690185546875
1772791001157683200,8.58668310546875,0.1136627197265625,0.7690887451171875,0.5243377685546875
1772791001177716200,8.60671630859375,0.101470947265625,0.837310791015625,0.5007171630859375
1772791001197748200,8.626748291015625,0.087921142578125,0.920654296875,0.45404052734375
1772791001217781200,8.64678125,0.1021728515625,0.9775390625,0.4256134033203125
1772791001237814300,8.666814208984375,0.1436767578125,1.0021514892578125,0.4740447998046875
1772791001257846000,8.686845947265626,0.1226043701171875,0.9634246826171875,0.533935546875
1772791001277879300,8.70687939453125,0.0925750732421875,0.8860931396484375,0.6604461669921875
1772791001297912000,8.726912109375,0.07794189453125,0.779266357421875,0.7727203369140625
1772791001317945300,8.7469453125,0.168121337890625,0.788177490234375,0.96173095703125
1772791001337977000,8.76697705078125,0.2292938232421875,0.875946044921875,1.1000823974609375
1772791001358010400,8.78701025390625,0.2818145751953125,0.86187744140625,1.1822662353515625
1772791001378043100,8.807043212890624,0.3983306884765625,0.800628662109375,1.2640838623046875
1772791001398076400,8.827076416015625,0.5056304931640625,0.7238311767578125,1.4144744873046875
1772791001418108000,8.84710791015625,0.5585784912109375,0.581298828125,1.4759368896484375
1772791001438141000,8.867140869140625,0.5902252197265625,0.5103759765625,1.3580322265625
1772791001458174000,8.887174072265625,0.549957275390625,0.5400848388671875,1.13433837890625
1772791001478206000,8.9072060546875,0.456787109375,0.6342926025390625,0.9405364990234375
1772791001498239000,8.927239013671874,0.3759765625,0.67822265625,0.794921875
1772791001518272000,8.94727197265625,0.3126373291015625,0.7567596435546875,0.7419891357421875
1772791001538305000,8.967304931640625,0.249237060546875,0.8064117431640625,0.682403564453125
1772791001558337000,8.9873369140625,0.22796630859375,0.8261566162109375,0.655975341796875
1772791001578369800,9.007369873046875,0.2228851318359375,0.8614654541015625,0.677001953125
1772791001598403000,9.027403076171876,0.2022705078125,0.914154052734375,0.7199249267578125
1772791001618435800,9.047435791015625,0.1580657958984375,0.979339599609375,0.7786407470703125
1772791001638468000,9.067468017578125,0.107513427734375,1.0475616455078125,0.8652191162109375
1772791001658500900,9.0875009765625,0.0605926513671875,1.091522216796875,0.927337646484375
1772791001678534100,9.1075341796875,0.0822296142578125,1.0955657958984375,0.9719696044921875
1772791001698566000,9.12756591796875,0.1253662109375,1.04998779296875,0.92327880859375
1772791001718599000,9.147598876953126,0.1907958984375,1.002960205078125,0.772613525390625
1772791001738632000,9.1676318359375,0.236785888671875,0.9535980224609375,0.6592864990234375
1772791001758665000,9.1876650390625,0.30560302734375,0.9196929931640625,0.6299896240234375
1772791001778697000,9.207697021484375,0.3628082275390625,0.8894500732421875,0.6681671142578125
1772791001798730000,9.22772998046875,0.3725738525390625,0.8738861083984375,0.7175140380859375
1772791001818763000,9.247762939453125,0.3304901123046875,0.8623809814453125,0.72174072265625
1772791001838795800,9.267795654296876,0.2764434814453125,0.8692169189453125,0.6989288330078125
1772791001858828000,9.287828125,0.2255859375,0.8824310302734375,0.6527862548828125
1772791001878861000,9.307861083984376,0.2086944580078125,0.8994903564453125,0.586212158203125
1772791001898894000,9.32789404296875,0.229705810546875,0.9065399169921875,0.521636962890625
1772791001918926000,9.347926025390626,0.241485595703125,0.8956146240234375,0.484710693359375
1772791001938958800,9.367958740234375,0.238922119140625,0.83831787109375,0.4429168701171875
1772791001958992100,9.3879921875,0.221160888671875,0.7816009521484375,0.43035888671875
1772791001979025000,9.40802490234375,0.189910888671875,0.7247314453125,0.4140777587890625
1772791001999057200,9.42805712890625,0.15191650390625,0.671722412109375,0.38232421875
1772791002019090000,9.44808984375,0.1418609619140625,0.6477203369140625,0.350982666015625
1772791002039123000,9.468123046875,0.2223052978515625,0.74761962890625,0.387451171875
1772791002059156000,9.488156005859375,0.285491943359375,0.842376708984375,0.3502197265625
1772791002079188000,9.50818798828125,0.258087158203125,0.8368988037109375,0.2669677734375
1772791002099221000,9.528220947265625,0.2274627685546875,0.8524017333984375,0.2426300048828125
1772791002119253800,9.548253662109374,0.2323760986328125,0.9289398193359375,0.2610321044921875
1772791002139286000,9.5682861328125,0.2259674072265625,0.9786224365234375,0.2637481689453125
1772791002159319000,9.588319091796874,0.215179443359375,1.0193634033203125,0.3328704833984375
1772791002179352000,9.60835205078125,0.1943206787109375,1.0352783203125,0.4378814697265625
1772791002199384800,9.628384765625,0.163116455078125,1.015167236328125,0.544647216796875
1772791002219416800,9.648416748046875,0.140960693359375,1.0102081298828125,0.643402099609375
1772791002239449900,9.668449951171874,0.1480255126953125,1.0801544189453125,0.7910308837890625
1772791002259483000,9.68848291015625,0.1495513916015625,1.174591064453125,0.9561004638671875
1772791002279515100,9.70851513671875,0.1296539306640625,1.1998138427734375,1.074737548828125
1772791002299548000,9.7285478515625,0.125244140625,1.105377197265625,1.15240478515625
1772791002319581000,9.748580810546875,0.1681060791015625,0.9634857177734375,1.2125701904296875
1772791002339614000,9.768614013671876,0.23370361328125,0.8593597412109375,1.2607879638671875
1772791002359646000,9.78864599609375,0.296173095703125,0.743377685546875,1.2467498779296875
1772791002379679000,9.808678955078125,0.34832763671875,0.669891357421875,1.17034912109375
1772791002399711700,9.828711669921875,0.3620452880859375,0.6614990234375,1.056060791015625
1772791002419745000,9.8487451171875,0.33099365234375,0.6987457275390625,0.9275665283203125
1772791002439777000,9.868777099609375,0.2713775634765625,0.7676544189453125,0.81756591796875
1772791002459809800,9.888809814453126,0.1836090087890625,0.8249664306640625,0.688018798828125
1772791002479842800,9.9088427734375,0.106842041015625,0.8199615478515625,0.54180908203125
1772791002499874800,9.928874755859376,0.0559539794921875,0.771697998046875,0.4359588623046875
1772791002519907800,9.948907958984375,0.0414581298828125,0.7208251953125,0.38916015625
1772791002539940900,9.96894091796875,0.0549468994140625,0.676727294921875,0.4041290283203125
1772791002559974000,9.988973876953125,0.089324951171875,0.6704559326171875,0.4454803466796875
1772791002580006000,10.009005859375,0.08636474609375,0.6998748779296875,0.4659881591796875
1772791002600038700,10.02903857421875,0.07183837890625,0.7452392578125,0.49072265625
1772791002620072000,10.049072021484376,0.0870208740234375,0.8165435791015625,0.5529022216796875
1772791002640104000,10.06910400390625,0.1094512939453125,0.8634185791015625,0.6274871826171875
1772791002660137000,10.089136962890626,0.15496826171875,0.8501434326171875,0.694122314453125
1772791002680169700,10.109169677734375,0.2088775634765625,0.810028076171875,0.789306640625
1772791002700203000,10.129203125,0.2475433349609375,0.734130859375,0.8795013427734375
1772791002720234800,10.14923486328125,0.2919921875,0.6370086669921875,0.949981689453125
1772791002740267800,10.169267822265626,0.435028076171875,0.6672210693359375,1.0552520751953125
1772791002760300800,10.18930078125,0.5634918212890625,0.7770233154296875,1.0952606201171875
1772791002780333800,10.209333740234374,0.628265380859375,0.84698486328125,1.08026123046875
1772791002800365800,10.22936572265625,0.612091064453125,0.8643951416015625,1.0622100830078125
1772791002820398800,10.24939892578125,0.56103515625,0.8509368896484375,1.07171630859375
1772791002840431900,10.269431884765625,0.465118408203125,0.841064453125,1.0584564208984375
1772791002860463900,10.2894638671875,0.353485107421875,0.83929443359375,1.011077880859375
1772791002880497000,10.309496826171875,0.2493133544921875,0.8514404296875,0.9368438720703125
1772791002900530000,10.329530029296874,0.1718597412109375,0.8599090576171875,0.8372650146484375
1772791002920563000,10.34956298828125,0.1003265380859375,0.84393310546875,0.756591796875
1772791002940595000,10.369594970703124,0.069244384765625,0.8574371337890625,0.721038818359375
1772791002960627700,10.389627685546875,0.061737060546875,0.90020751953125,0.7117462158203125
1772791002980661000,10.409660888671874,0.0577392578125,0.9601593017578125,0.7086181640625
1772791003000692700,10.429692626953125,0.0386962890625,1.0379180908203125,0.6855926513671875
1772791003020726000,10.44972607421875,0.0401763916015625,1.132781982421875,0.7042694091796875
1772791003040758800,10.4697587890625,0.0524749755859375,1.202392578125,0.7425537109375
1772791003060792000,10.4897919921875,0.0321044921875,1.2119903564453125,0.7544708251953125
1772791003080823800,10.50982373046875,-0.0090179443359375,1.135772705078125,0.69622802734375
1772791003100856800,10.52985693359375,0.00872802734375,1.017364501953125,0.6702728271484375
1772791003120889900,10.549889892578125,0.0654296875,0.92205810546875,0.6545257568359375
1772791003140921900,10.569921875,0.125213623046875,0.8401947021484375,0.6492156982421875
1772791003160955000,10.589954833984375,0.178802490234375,0.7943267822265625,0.664825439453125
1772791003180988000,10.60998779296875,0.217132568359375,0.7624969482421875,0.700927734375
1772791003201021000,10.63002099609375,0.260284423828125,0.7752838134765625,0.72845458984375
1772791003221053000,10.650052978515625,0.2737274169921875,0.793731689453125,0.709228515625
1772791003241085700,10.670085693359376,0.264617919921875,0.820404052734375,0.668365478515625
1772791003261119000,10.690118896484375,0.244110107421875,0.86309814453125,0.6487579345703125
1772791003281151700,10.71015185546875,0.197113037109375,0.891387939453125,0.6326904296875
1772791003301184000,10.73018408203125,0.174041748046875,0.9205474853515625,0.61859130859375
1772791003321216800,10.750216796875,0.1323089599609375,0.9133453369140625,0.59552001953125
1772791003341250000,10.77025,0.0971832275390625,0.8750762939453125,0.57244873046875
1772791003361281800,10.79028173828125,0.084381103515625,0.829071044921875,0.55413818359375
1772791003381314800,10.810314697265625,0.1112518310546875,0.8426666259765625,0.5482025146484375
1772791003401347800,10.830347900390626,0.1282806396484375,0.878509521484375,0.5578765869140625
1772791003421381000,10.850381103515625,0.1071624755859375,0.9020843505859375,0.5043792724609375
1772791003441413400,10.870413330078126,0.107147216796875,0.9479217529296875,0.4546051025390625
1772791003461446400,10.8904462890625,0.111907958984375,0.9759979248046875,0.3684844970703125
1772791003481479400,10.9104794921875,0.14813232421875,0.9345855712890625,0.2431793212890625
1772791003501511400,10.930511474609375,0.220458984375,0.8761444091796875,0.123291015625
1772791003521544200,10.950544189453124,0.3159942626953125,0.7932586669921875,0.07611083984375
1772791003541577200,10.9705771484375,0.400482177734375,0.7456207275390625,0.1039886474609375
1772791003561610200,10.9906103515625,0.4504547119140625,0.7483367919921875,0.1824493408203125
1772791003581642500,11.010642578125,0.5302276611328125,0.806243896484375,0.2613372802734375
1772791003601675300,11.03067529296875,0.644256591796875,0.937255859375,0.3811187744140625
1772791003621708300,11.050708251953125,0.714324951171875,1.0183258056640625,0.483917236328125
1772791003641741300,11.0707412109375,0.7975921630859375,1.0643310546875,0.598358154296875
1772791003661773600,11.090773681640625,0.78472900390625,1.1226959228515625,0.7655029296875
1772791003681806300,11.110806396484374,0.608245849609375,1.1818084716796875,0.911285400390625
1772791003701839400,11.13083935546875,0.403167724609375,1.302825927734375,1.0902252197265625
1772791003721871400,11.150871337890624,0.191986083984375,1.30230712890625,1.163970947265625
1772791003741904400,11.170904296875,0.0162200927734375,1.1341400146484375,1.1253662109375
1772791003761937400,11.1909375,-0.030029296875,0.94622802734375,1.1363067626953125
1772791003781970200,11.21097021484375,-0.0202178955078125,0.8277740478515625,1.1863861083984375
1772791003802002400,11.23100244140625,0.0239715576171875,0.706024169921875,1.1596221923828125
1772791003822035200,11.25103515625,0.078125,0.634002685546875,1.02374267578125
1772791003842068500,11.271068359375,0.1744232177734375,0.651702880859375,0.8971099853515625
1772791003862100500,11.2911005859375,0.226409912109375,0.6700897216796875,0.7838897705078125
1772791003882133200,11.31113330078125,0.2583160400390625,0.67718505859375,0.6736602783203125
1772791003902166300,11.331166259765626,0.2736663818359375,0.6794586181640625,0.5757293701171875
1772791003922199300,11.35119921875,0.2904052734375,0.678314208984375,0.48583984375
1772791003942231300,11.371231201171875,0.2623138427734375,0.6759185791015625,0.4168548583984375
1772791003962264300,11.391264404296875,0.212493896484375,0.6644134521484375,0.372711181640625
1772791003982297300,11.41129736328125,0.16363525390625,0.6564178466796875,0.353546142578125
1772791004002330400,11.431330322265625,0.11474609375,0.651947021484375,0.3523712158203125
1772791004022362000,11.451362060546876,0.0898284912109375,0.6754913330078125,0.3651275634765625
1772791004042395400,11.4713955078125,0.0616455078125,0.7262420654296875,0.4057464599609375
1772791004062428200,11.49142822265625,-0.00567626953125,0.76788330078125,0.4471435546875
1772791004082460400,11.51146044921875,-0.0732574462890625,0.75927734375,0.45941162109375
1772791004102493200,11.5314931640625,-0.082122802734375,0.7364044189453125,0.4742889404296875
1772791004122526500,11.5515263671875,-0.0180206298828125,0.718505859375,0.5283355712890625
1772791004146316300,11.57531640625,0.1087188720703125,0.695648193359375,0.722503662109375
1772791004166348300,11.595348388671875,0.25653076171875,0.6983642578125,0.97454833984375
1772791004186381300,11.61538134765625,0.42987060546875,0.73358154296875,1.2037353515625
1772791004206414300,11.635414306640625,0.637420654296875,0.73870849609375,1.30572509765625
1772791004226447400,11.655447265625,1.0019073486328125,0.6836395263671875,1.3291015625
1772791004246479400,11.675479248046875,1.275115966796875,0.5993804931640625,1.4888763427734375
1772791004266512400,11.695512451171876,1.2152557373046875,0.5374603271484375,1.5242767333984375
1772791004286545200,11.715545166015625,0.975250244140625,0.4207763671875,1.095703125
1772791004306578400,11.735578369140624,0.78692626953125,0.3578643798828125,0.747314453125
1772791004326610400,11.7556103515625,0.6894683837890625,0.25946044921875,0.5544281005859375
1772791004346643500,11.7756435546875,0.786590576171875,0.2321929931640625,0.483612060546875
1772791004366676200,11.79567626953125,0.8976287841796875,0.3082427978515625,0.4691162109375
1772791004386708200,11.815708251953126,0.8190155029296875,0.370941162109375,0.454254150390625
1772791004406741500,11.835741455078125,0.6842041015625,0.4391632080078125,0.4862823486328125
1772791004426773500,11.8557734375,0.5867919921875,0.4951019287109375,0.495361328125
1772791004446806800,11.875806884765625,0.567474365234375,0.65032958984375,0.505828857421875
1772791004466838500,11.895838623046876,0.5631866455078125,0.7027130126953125,0.5562896728515625
1772791004486871800,11.915871826171875,0.606048583984375,0.71929931640625,0.60479736328125
1772791004506904600,11.935904541015624,0.6531524658203125,0.7372589111328125,0.69476318359375
1772791004526936600,11.9559365234375,0.6531829833984375,0.7768707275390625,0.788482666015625
1772791004546969600,11.975969482421876,0.6334991455078125,0.7799530029296875,0.851715087890625
1772791004566999600,11.99599951171875,0.5849456787109375,0.7337188720703125,0.896148681640625
1772791004587031600,12.016031494140625,0.4805450439453125,0.6932525634765625,0.9251556396484375
1772791004607064800,12.03606494140625,0.368896484375,0.658935546875,0.9472198486328125
1772791004627097600,12.05609765625,0.2632293701171875,0.6713104248046875,0.9459075927734375
1772791004647130600,12.076130615234375,0.1930694580078125,0.689300537109375,0.9071502685546875
1772791004667162600,12.09616259765625,0.1707916259765625,0.7221832275390625,0.85760498046875
1772791004687195600,12.116195556640625,0.1864471435546875,0.74853515625,0.8047332763671875
1772791004707228700,12.136228759765626,0.2197113037109375,0.8030548095703125,0.7817840576171875
1772791004727261400,12.156261474609375,0.2442169189453125,0.8237457275390625,0.725067138671875
1772791004747293700,12.176293701171875,0.250396728515625,0.7835845947265625,0.655670166015625
1772791004767326700,12.19632666015625,0.2877655029296875,0.772705078125,0.5883026123046875
1772791004787359700,12.21635986328125,0.3411712646484375,0.7391204833984375,0.5264129638671875
1772791004807391700,12.236391845703125,0.3836822509765625,0.6881256103515625,0.447967529296875
1772791004827424500,12.256424560546876,0.4138946533203125,0.6436920166015625,0.3425750732421875
1772791004847457500,12.27645751953125,0.4317779541015625,0.623291015625,0.246551513671875
1772791004867490600,12.296490478515626,0.452117919921875,0.6157684326171875,0.114166259765625
1772791004887522800,12.316522705078125,0.51043701171875,0.620452880859375,0.016937255859375
1772791004907555600,12.3365556640625,0.527374267578125,0.632720947265625,0.0350341796875
1772791004927588600,12.356588623046875,0.5918426513671875,0.56134033203125,0.0850067138671875
1772791004947620600,12.37662060546875,0.720794677734375,0.5348358154296875,0.1440277099609375
1772791004967653600,12.396653564453125,0.7489776611328125,0.5673675537109375,0.1672515869140625
1772791004987687700,12.416687744140624,0.713348388671875,0.6766815185546875,0.143890380859375
1772791005007720700,12.436720703125,0.6346435546875,0.764617919921875,0.1352996826171875
1772791005027752700,12.456752685546874,0.54132080078125,0.842376708984375,0.1519012451171875
1772791005047785500,12.476785400390625,0.560638427734375,1.0634613037109375,0.3555145263671875
1772791005067818800,12.49681884765625,0.6316986083984375,1.418487548828125,0.586273193359375
1772791005087851500,12.5168515625,0.6026153564453125,1.6192779541015625,0.7668914794921875
1772791005107883800,12.5368837890625,0.492584228515625,1.6546783447265625,0.8863983154296875
1772791005127916500,12.55691650390625,0.4503326416015625,1.5670928955078125,0.931640625
1772791005147949600,12.576949462890624,0.4424896240234375,1.369537353515625,0.9053955078125
1772791005167981600,12.596981689453125,0.424041748046875,1.1474151611328125,0.9045562744140625
1772791005188014600,12.6170146484375,0.4061126708984375,0.979736328125,0.933990478515625
1772791005208047600,12.637047607421875,0.388824462890625,0.8190765380859375,0.904296875
1772791005228080400,12.657080322265625,0.3656463623046875,0.7223663330078125,0.87457275390625
1772791005248112600,12.677112548828125,0.32659912109375,0.6248626708984375,0.8316650390625
1772791005268145700,12.697145751953125,0.2796630859375,0.554290771484375,0.788360595703125
1772791005288178700,12.7171787109375,0.2610931396484375,0.582794189453125,0.7965240478515625
1772791005308210700,12.737210693359375,0.2312164306640625,0.6543121337890625,0.8042449951171875
1772791005328243700,12.75724365234375,0.1820220947265625,0.697967529296875,0.7889556884765625
1772791005348276700,12.77727685546875,0.148468017578125,0.765869140625,0.775238037109375
1772791005368309800,12.797309814453126,0.141387939453125,0.871185302734375,0.7385406494140625
1772791005388341800,12.817341796875,0.1317138671875,0.926422119140625,0.629852294921875
1772791005408374500,12.83737451171875,0.133544921875,0.905670166015625,0.570526123046875
1772791005428407800,12.85740771484375,0.1328277587890625,0.8335723876953125,0.546966552734375
1772791005448439800,12.877439697265626,0.1334381103515625,0.73101806640625,0.5321044921875
1772791005468472800,12.897472900390625,0.1771087646484375,0.6446990966796875,0.513702392578125
1772791005488505900,12.917505859375,0.244232177734375,0.5879974365234375,0.4894866943359375
1772791005508539000,12.937538818359375,0.3442840576171875,0.5919952392578125,0.4662933349609375
1772791005528571000,12.95757080078125,0.415679931640625,0.6121826171875,0.4472503662109375
1772791005548603600,12.977603759765625,0.485321044921875,0.6347198486328125,0.4117431640625
1772791005568637000,12.997636962890626,0.559326171875,0.647796630859375,0.40728759765625
1772791005588669700,13.017669677734375,0.642242431640625,0.6834869384765625,0.453460693359375
1772791005608702000,13.037701904296876,0.695526123046875,0.6978607177734375,0.488006591796875
1772791005628734700,13.057734619140625,0.741973876953125,0.6968231201171875,0.524261474609375
1772791005648768000,13.07776806640625,0.827362060546875,0.693634033203125,0.548675537109375
1772791005668800000,13.097800048828125,0.8645172119140625,0.6947479248046875,0.5230560302734375
1772791005688832800,13.117832763671874,0.8550567626953125,0.741302490234375,0.508819580078125
1772791005708865800,13.13786572265625,0.734405517578125,0.7392425537109375,0.484222412109375
1772791005728898800,13.15789892578125,0.5982208251953125,0.6982421875,0.4659271240234375
1772791005748930800,13.177930908203125,0.4951934814453125,0.6439208984375,0.475555419921875
1772791005768963800,13.1979638671875,0.425048828125,0.594635009765625,0.4962615966796875
1772791005788996900,13.217996826171875,0.37713623046875,0.563751220703125,0.5333404541015625
1772791005809028900,13.23802880859375,0.355255126953125,0.5662841796875,0.5709075927734375
1772791005829062000,13.258061767578125,0.3251800537109375,0.57122802734375,0.5866241455078125
1772791005849095000,13.278094970703124,0.308441162109375,0.5833587646484375,0.6009521484375
1772791005869128000,13.2981279296875,0.3256378173828125,0.6696014404296875,0.6719970703125
1772791005889160000,13.318159912109374,0.42401123046875,1.0747528076171875,0.8770751953125
1772791005909192700,13.338192626953125,0.3717498779296875,1.296539306640625,0.9315032958984375
1772791005929226000,13.35822607421875,0.279388427734375,1.3570709228515625,0.9503173828125
1772791005949258800,13.3782587890625,0.2180633544921875,1.3071136474609375,0.943328857421875
1772791005969291000,13.398291015625,0.1597900390625,0.9942169189453125,0.7841796875
1772791005989323800,13.41832373046875,0.1284027099609375,0.7472381591796875,0.701690673828125
1772791006009357000,13.438357177734375,0.0894622802734375,0.5639190673828125,0.6291046142578125
1772791006029388800,13.458388916015625,0.0638885498046875,0.441925048828125,0.5703125
1772791006049421800,13.478421875,0.0653076171875,0.45562744140625,0.577606201171875
1772791006069454800,13.498454833984376,0.077850341796875,0.5995330810546875,0.60302734375
1772791006089488000,13.51848779296875,0.07794189453125,0.7718658447265625,0.608673095703125
1772791006109520000,13.538519775390625,0.0815887451171875,0.8951568603515625,0.554473876953125
1772791006129553000,13.558552978515625,0.1582489013671875,0.9931488037109375,0.545257568359375
1772791006149586000,13.5785859375,0.2834320068359375,1.033203125,0.6428070068359375
1772791006169618000,13.598617919921875,0.358154296875,0.919403076171875,0.773956298828125
1772791006189650700,13.618650634765626,0.4704437255859375,0.7997589111328125,0.9553985595703125
1772791006209684000,13.63868408203125,0.57342529296875,0.7142486572265625,1.0579681396484375
1772791006229716700,13.658716796875,0.6027984619140625,0.703094482421875,1.130828857421875
1772791006249749000,13.6787490234375,0.54888916015625,0.7314453125,1.1396331787109375
1772791006269781800,13.69878173828125,0.487152099609375,0.80255126953125,1.115020751953125
1772791006289815000,13.71881494140625,0.4320068359375,0.852386474609375,1.012451171875
1772791006309846800,13.7388466796875,0.3892059326171875,0.867462158203125,0.91021728515625
1772791006329879800,13.7588798828125,0.3480377197265625,0.85308837890625,0.81689453125
1772791006349912800,13.778912841796876,0.3044281005859375,0.8398895263671875,0.7384185791015625
1772791006369945900,13.79894580078125,0.2581634521484375,0.7856597900390625,0.6585235595703125
1772791006389977900,13.818977783203126,0.2334747314453125,0.7374267578125,0.614593505859375
1772791006410011000,13.839010986328125,0.23931884765625,0.708526611328125,0.5766754150390625
1772791006430044400,13.85904443359375,0.2494659423828125,0.687042236328125,0.4921112060546875
1772791006450076400,13.879076416015625,0.256805419921875,0.6805877685546875,0.3961181640625
1772791006470109400,13.899109375,0.2849273681640625,0.6760101318359375,0.326416015625
1772791006490142500,13.919142578125,0.3044891357421875,0.6333465576171875,0.2540283203125
1772791006510175500,13.939175537109374,0.3161468505859375,0.5845794677734375,0.1949005126953125
1772791006530207500,13.95920751953125,0.367919921875,0.5583648681640625,0.162750244140625
1772791006550240500,13.979240478515624,0.4428558349609375,0.5637664794921875,0.1852264404296875
1772791006570273300,13.999273193359375,0.4604339599609375,0.5763397216796875,0.127960205078125
1772791006590305500,14.019305419921874,0.4540252685546875,0.607269287109375,0.1918792724609375
1772791006610338600,14.039338623046875,0.4811859130859375,0.6900482177734375,0.300933837890625
1772791006630371600,14.05937158203125,0.5120086669921875,0.89495849609375,0.4642333984375
1772791006650404400,14.079404296875,0.5119476318359375,1.229949951171875,0.6131439208984375
1772791006670436400,14.099436279296874,0.293609619140625,1.5478057861328125,0.665252685546875
1772791006690469400,14.119469482421875,0.1817474365234375,1.7494659423828125,0.7101898193359375
1772791006710502400,14.13950244140625,0.050994873046875,1.8902740478515625,0.7703857421875
1772791006730534700,14.15953466796875,0.044464111328125,1.932098388671875,0.8749237060546875
1772791006750567400,14.1795673828125,0.141876220703125,1.8135528564453125,1.0665435791015625
1772791006770600400,14.199600341796875,0.335601806640625,1.4547119140625,1.2837677001953125
1772791006790633500,14.219633544921875,0.6437835693359375,0.95257568359375,1.6055908203125
1772791006810665500,14.23966552734375,0.918243408203125,0.4655914306640625,1.6453704833984375
1772791006830698500,14.259698486328125,0.9221954345703125,0.2281036376953125,1.4991302490234375
1772791006850731300,14.279731201171876,0.77020263671875,0.209136962890625,1.4434356689453125
1772791006870763500,14.299763427734375,0.5949249267578125,0.322479248046875,1.2401275634765625
1772791006890796500,14.319796630859376,0.43145751953125,0.498321533203125,0.994964599609375
1772791006910829600,14.33982958984375,0.309661865234375,0.6654052734375,0.843414306640625
1772791006930862300,14.3598623046875,0.2549591064453125,0.78155517578125,0.7721710205078125
1772791006950894300,14.379894287109375,0.240386962890625,0.803253173828125,0.697662353515625
1772791006970927400,14.39992724609375,0.2062835693359375,0.7928466796875,0.5955047607421875
1772791006990960400,14.41996044921875,0.18389892578125,0.767974853515625,0.4754791259765625
1772791007010992600,14.43999267578125,0.21075439453125,0.71875,0.3821258544921875
1772791007031025400,14.460025390625,0.2149200439453125,0.66119384765625,0.3278350830078125
1772791007051058400,14.480058349609376,0.1924896240234375,0.6329193115234375,0.345062255859375
1772791007071091500,14.500091552734375,0.161407470703125,0.6317138671875,0.4160614013671875
1772791007091123500,14.52012353515625,0.13922119140625,0.6118316650390625,0.4495086669921875
1772791007111156500,14.540156494140625,0.127471923828125,0.615875244140625,0.4842987060546875
1772791007131189200,14.560189208984376,0.11932373046875,0.6534423828125,0.532501220703125
1772791007151221500,14.580221435546875,0.10321044921875,0.7193603515625,0.567230224609375
1772791007171254300,14.600254150390626,0.1076507568359375,0.7788238525390625,0.6292572021484375
1772791007191287600,14.62028759765625,0.2135009765625,0.822662353515625,0.6386871337890625
1772791007211320300,14.6403203125,0.389556884765625,0.8453521728515625,0.666839599609375
1772791007231352600,14.6603525390625,0.6133575439453125,0.807098388671875,0.700714111328125
1772791007251385300,14.68038525390625,0.7932281494140625,0.759185791015625,0.7289276123046875
1772791007271418600,14.700418701171875,0.9354248046875,0.719207763671875,0.7003631591796875
1772791007291450600,14.72045068359375,1.016265869140625,0.7013092041015625,0.6265411376953125
1772791007311483400,14.7404833984375,1.020111083984375,0.6908111572265625,0.553558349609375
1772791007331516400,14.760516357421874,0.9482574462890625,0.6758880615234375,0.49755859375
1772791007351549400,14.780549560546875,0.8183441162109375,0.6678466796875,0.4749908447265625
1772791007371581400,14.80058154296875,0.660888671875,0.661285400390625,0.4949188232421875
1772791007391614500,14.820614501953125,0.507781982421875,0.6561126708984375,0.5343170166015625
1772791007411647500,14.8406474609375,0.4048614501953125,0.75799560546875,0.6473236083984375
1772791007431678500,14.860678466796875,0.335723876953125,0.9588775634765625,0.74993896484375
1772791007451711700,14.880711669921874,0.242034912109375,1.066375732421875,0.8003997802734375
1772791007471744500,14.90074462890625,0.2030029296875,1.119720458984375,0.8530731201171875
1772791007491777500,14.920777587890624,0.1968994140625,1.10589599609375,0.8877716064453125
1772791007511809500,14.9408095703125,0.1903533935546875,0.98388671875,0.8592681884765625
1772791007531842600,14.960842529296874,0.168548583984375,0.8278350830078125,0.8600311279296875
1772791007551875600,14.98087548828125,0.148681640625,0.75152587890625,0.905364990234375
1772791007571907600,15.000907470703124,0.10968017578125,0.6941986083984375,0.9254150390625
1772791007591940600,15.020940673828125,0.08013916015625,0.6546173095703125,0.919281005859375
1772791007611973600,15.0409736328125,0.06915283203125,0.686126708984375,0.880828857421875
1772791007632006700,15.061006591796875,0.0670928955078125,0.7572174072265625,0.8312530517578125
1772791007652038700,15.08103857421875,0.079437255859375,0.8980255126953125,0.809326171875
1772791007672071700,15.10107177734375,0.08441162109375,1.0233306884765625,0.7855377197265625
1772791007692104700,15.121104736328125,0.0636138916015625,1.0922393798828125,0.7375946044921875
1772791007712136400,15.141136474609375,0.0425872802734375,1.11474609375,0.685638427734375
1772791007732169700,15.161169677734375,0.0111541748046875,1.09490966796875,0.63543701171875
1772791007752202500,15.181202392578125,-0.014801025390625,1.0565185546875,0.6005859375
1772791007772235500,15.201235595703125,-0.0133209228515625,1.021240234375,0.6016387939453125
1772791007792267500,15.221267578125,-0.0166015625,0.9616851806640625,0.6009063720703125
1772791007812300800,15.24130078125,-0.0246124267578125,0.874664306640625,0.5810394287109375
1772791007832333600,15.26133349609375,-0.00469970703125,0.8080596923828125,0.5636749267578125
1772791007852365600,15.281365478515625,0.0219573974609375,0.766876220703125,0.5529937744140625
1772791007872398600,15.301398681640626,0.04522705078125,0.7423248291015625,0.5419921875
1772791007892431600,15.321431640625,0.066192626953125,0.738311767578125,0.5323028564453125
1772791007912464600,15.341464599609376,0.071929931640625,0.7225799560546875,0.515594482421875
1772791007932496600,15.36149658203125,0.0789642333984375,0.704864501953125,0.5040435791015625
1772791007952529700,15.38152978515625,0.0848388671875,0.6852874755859375,0.5004119873046875
1772791007972562400,15.4015625,0.088836669921875,0.6707305908203125,0.50628662109375
1772791007992594400,15.421594482421876,0.0967864990234375,0.680938720703125,0.5332183837890625
1772791008012627700,15.441627685546875,0.1007080078125,0.7265472412109375,0.572998046875
1772791008032660500,15.461660400390626,0.0963287353515625,0.76800537109375,0.5909271240234375
1772791008052693500,15.481693603515625,0.1097259521484375,0.802642822265625,0.5933990478515625
1772791008072725500,15.5017255859375,0.1291656494140625,0.8399658203125,0.574432373046875
1772791008092758500,15.521758544921875,0.1737060546875,0.8519744873046875,0.5473480224609375
1772791008112791600,15.54179150390625,0.237518310546875,0.876983642578125,0.5187530517578125
1772791008132823600,15.561823486328125,0.38739013671875,0.9471588134765625,0.539093017578125
1772791008152856600,15.581856689453126,0.5987701416015625,0.938262939453125,0.378021240234375
1772791008172889300,15.601889404296875,0.7382659912109375,1.0522918701171875,0.261260986328125
1772791008192922600,15.621922607421874,0.6286773681640625,1.1253662109375,0.2930145263671875
1772791008212954600,15.64195458984375,0.5067596435546875,1.1217498779296875,0.4125213623046875
1772791008232987600,15.661987548828124,0.4836273193359375,1.0815887451171875,0.598358154296875
1772791008253020400,15.6820205078125,0.6376495361328125,0.9713897705078125,0.65777587890625
1772791008273052700,15.702052734375,0.8636016845703125,0.930084228515625,0.6702728271484375
1772791008293085700,15.722085693359375,1.0107879638671875,0.9498443603515625,0.7111053466796875
1772791008313118700,15.74211865234375,0.873779296875,0.942901611328125,0.6776123046875
1772791008333150700,15.762150634765625,0.5795135498046875,0.9316253662109375,0.6934967041015625
1772791008353183500,15.78218359375,0.358184814453125,0.9170379638671875,0.760772705078125
1772791008373216500,15.802216552734375,0.2145233154296875,0.89093017578125,0.85040283203125
1772791008393249500,15.82224951171875,0.1475830078125,0.908447265625,0.973388671875
1772791008413281800,15.84228173828125,0.0824737548828125,0.890411376953125,1.05548095703125
1772791008433315000,15.862315185546874,0.0419158935546875,0.853424072265625,1.100982666015625
1772791008453348000,15.88234814453125,0.029205322265625,0.819793701171875,1.0957183837890625
1772791008473380000,15.902380126953124,-0.0086517333984375,0.739898681640625,1.0497589111328125
1772791008493412900,15.922412841796875,-0.00250244140625,0.733673095703125,1.0478515625
1772791008513446100,15.942446044921875,-0.012603759765625,0.636627197265625,0.933685302734375
1772791008533479000,15.96247900390625,0.009490966796875,0.6298980712890625,0.8395843505859375
1772791008553511200,15.98251123046875,0.029876708984375,0.635467529296875,0.7540740966796875
1772791008573543200,16.002543212890625,0.0533905029296875,0.653045654296875,0.6836395263671875
1772791008593576200,16.022576171875,0.072540283203125,0.662872314453125,0.610443115234375
1772791008613608200,16.042608154296875,0.0986785888671875,0.6793670654296875,0.5652923583984375
1772791008633641000,16.062640869140626,0.127166748046875,0.6819000244140625,0.5504913330078125
1772791008653674200,16.08267431640625,0.1664886474609375,0.6508026123046875,0.49273681640625
1772791008673707000,16.10270703125,0.21368408203125,0.6321868896484375,0.4441986083984375
1772791008693739300,16.1227392578125,0.254058837890625,0.6269683837890625,0.387420654296875
1772791008713772000,16.14277197265625,0.346710205078125,0.6112823486328125,0.22998046875
1772791008733805000,16.16280517578125,0.441192626953125,0.636749267578125,0.169647216796875
1772791008753837000,16.182837158203125,0.4908599853515625,0.6191558837890625,0.197723388671875
1772791008773870000,16.2028701171875,0.4850921630859375,0.666748046875,0.2580108642578125
1772791008793903000,16.222903076171875,0.377349853515625,0.8090972900390625,0.349365234375
1772791008813935900,16.242935791015626,0.2242279052734375,0.9854583740234375,0.496826171875
1772791008833968000,16.262968017578125,0.169647216796875,1.0630035400390625,0.5444183349609375
1772791008854001200,16.283001220703124,0.388214111328125,1.018646240234375,0.6971893310546875
1772791008874034200,16.3030341796875,0.728485107421875,0.9373931884765625,0.936431884765625
1772791008894066200,16.323066162109374,0.94476318359375,0.7367706298828125,1.0849456787109375
1772791008914099000,16.343098876953125,0.9832000732421875,0.7305145263671875,1.113250732421875
1772791008934132200,16.36313232421875,0.7503662109375,0.8115081787109375,1.06951904296875
1772791008954165000,16.3831650390625,0.6270904541015625,0.90576171875,1.1707305908203125
1772791008974198000,16.403197998046874,0.5015869140625,0.9145355224609375,1.24383544921875
1772791008994231000,16.42323095703125,0.4308319091796875,0.8624114990234375,1.25958251953125
1772791009014264000,16.44326416015625,0.33599853515625,0.746337890625,1.197540283203125
1772791009034296000,16.463296142578123,0.2393341064453125,0.675018310546875,1.0863800048828125
1772791009054329000,16.4833291015625,0.179290771484375,0.646575927734375,0.967376708984375
1772791009074362000,16.503362060546873,0.130950927734375,0.643890380859375,0.85919189453125
1772791009094395100,16.52339501953125,0.0893402099609375,0.654296875,0.7584381103515625
1772791009114427100,16.54342724609375,0.0629425048828125,0.667327880859375,0.6977691650390625
1772791009134460000,16.5634599609375,0.0740966796875,0.6944732666015625,0.6870880126953125
1772791009154493200,16.5834931640625,0.1254119873046875,0.7427520751953125,0.7393798828125
1772791009174525000,16.60352490234375,0.1955108642578125,0.773681640625,0.6982421875
1772791009194558200,16.62355810546875,0.305023193359375,0.8325958251953125,0.637603759765625
1772791009214591000,16.643591064453126,0.396697998046875,0.899017333984375,0.622528076171875
1772791009234624300,16.663624267578125,0.412322998046875,0.9484710693359375,0.610321044921875
1772791009254656000,16.683656005859376,0.2891693115234375,0.932373046875,0.64593505859375
1772791009274689300,16.703689208984375,0.1826171875,0.9454498291015625,0.7267303466796875
1772791009294722000,16.72372216796875,0.081451416015625,0.95098876953125,0.7940673828125
1772791009314754000,16.743754150390625,-0.023223876953125,0.9304962158203125,0.81103515625
1772791009334787000,16.763787109375,-0.0944061279296875,0.887237548828125,0.796539306640625
1772791009354820000,16.783820068359375,-0.1207122802734375,0.8526458740234375,0.774871826171875
1772791009374853000,16.80385302734375,-0.105194091796875,0.8335723876953125,0.75244140625
1772791009394885000,16.823885009765625,-0.0075531005859375,0.8314666748046875,0.713226318359375
1772791009414918100,16.843918212890625,0.0789794921875,0.8355712890625,0.667388916015625
1772791009434950700,16.86395068359375,0.139801025390625,0.8358154296875,0.624298095703125
1772791009454982400,16.883982421875,0.206268310546875,0.8330535888671875,0.5586090087890625
1772791009475015700,16.904015625,0.283447265625,0.8254547119140625,0.4876861572265625
1772791009495048400,16.92404833984375,0.3578338623046875,0.796478271484375,0.4306793212890625
1772791009515081700,16.944081787109376,0.4186248779296875,0.7670440673828125,0.4066314697265625
1772791009535113500,16.964113525390626,0.456817626953125,0.7523956298828125,0.4202728271484375
1772791009555146800,16.984146728515626,0.4535064697265625,0.739532470703125,0.425628662109375
1772791009575179500,17.004179443359376,0.440185546875,0.734405517578125,0.4571685791015625
1772791009595211500,17.02421142578125,0.4384765625,0.742889404296875,0.4650421142578125
1772791009615244500,17.04424462890625,0.4467010498046875,0.765716552734375,0.4718017578125
1772791009635277600,17.064277587890626,0.448150634765625,0.7961578369140625,0.4909515380859375
1772791009655310600,17.084310546875,0.4324951171875,0.8238983154296875,0.4984283447265625
1772791009675342600,17.104342529296876,0.4516754150390625,0.88671875,0.540924072265625
1772791009695375600,17.124375732421875,0.4481201171875,1.0187835693359375,0.5959625244140625
1772791009715408600,17.14440869140625,0.3785858154296875,1.1399078369140625,0.6263275146484375
1772791009735440400,17.1644404296875,0.2840423583984375,1.243896484375,0.62091064453125
1772791009755473700,17.1844736328125,0.184967041015625,1.3207550048828125,0.6775360107421875
1772791009775506400,17.20450634765625,0.0375213623046875,1.364837646484375,0.829833984375
1772791009795539700,17.224539794921874,-0.2007598876953125,1.2786102294921875,0.928192138671875
1772791009815571500,17.244571533203125,-0.31414794921875,1.02899169921875,1.0438079833984375
1772791009835604700,17.264604736328124,-0.390960693359375,0.872955322265625,1.1309051513671875
1772791009855637500,17.284637451171875,-0.46356201171875,0.7701263427734375,1.184539794921875
1772791009875669500,17.30466943359375,-0.5304107666015625,0.67388916015625,1.172210693359375
1772791009895702500,17.32470263671875,-0.55145263671875,0.575042724609375,1.15728759765625
1772791009915735600,17.344735595703124,-0.4863739013671875,0.52392578125,1.1268157958984375
1772791009935768600,17.3647685546875,-0.505828857421875,0.4946136474609375,1.1525726318359375
1772791009955800600,17.384800537109374,-0.5932769775390625,0.5430908203125,1.1281890869140625
1772791009975833600,17.40483349609375,-0.6931610107421875,0.5906829833984375,1.0625
1772791009995866600,17.42486669921875,-0.712371826171875,0.5708160400390625,0.9742279052734375
1772791010015898400,17.4448984375,-0.6923675537109375,0.52325439453125,0.859222412109375
1772791010035931600,17.464931640625,-0.7270355224609375,0.457122802734375,0.76507568359375
1772791010055964400,17.48496435546875,-0.8214111328125,0.396453857421875,0.7209625244140625
1772791010075997700,17.504997802734376,-0.8620147705078125,0.35394287109375,0.6258392333984375
1772791010096029400,17.525029541015623,-0.88458251953125,0.2681121826171875,0.548736572265625
1772791010116062700,17.545062744140626,-0.8868865966796875,0.2408294677734375,0.442291259765625
1772791010136095500,17.565095458984374,-0.8818206787109375,0.1822967529296875,0.35009765625
1772791010156127700,17.585127685546876,-0.8883819580078125,0.1386871337890625,0.334503173828125
1772791010176160500,17.605160400390623,-0.969940185546875,0.088134765625,0.323577880859375
1772791010196193800,17.62519384765625,-0.995269775390625,0.0697784423828125,0.2084197998046875
1772791010216226600,17.6452265625,-0.96563720703125,0.0491180419921875,0.100311279296875
1772791010236258600,17.665258544921876,-0.9564056396484375,0.0725250244140625,0.0920867919921875
1772791010256291600,17.68529150390625,-0.9581756591796875,-0.0050048828125,-0.0123443603515625
1772791010276324600,17.70532470703125,-0.9974365234375,-0.01165771484375,-0.0174713134765625
1772791010296356600,17.725356689453125,-1.10791015625,-0.030487060546875,-0.0420684814453125
1772791010316389600,17.7453896484375,-1.149749755859375,0.034576416015625,0.066864013671875
1772791010336422700,17.765422607421876,-1.075439453125,0.01788330078125,0.0849761962890625
1772791010356455700,17.78545556640625,-1.0329132080078125,0.0159454345703125,0.0938262939453125
1772791010376487400,17.8054873046875,-1.087921142578125,0.008453369140625,0.1184539794921875
1772791010396520700,17.825520751953125,-1.0939788818359375,-0.0342254638671875,0.113189697265625
1772791010416553500,17.845553466796876,-0.975372314453125,-0.0923309326171875,0.0388031005859375
1772791010436585700,17.865585693359375,-0.9236907958984375,-0.0489654541015625,0.1545257568359375
1772791010456618800,17.88561865234375,-0.8763275146484375,-0.1083526611328125,0.094451904296875
1772791010476651800,17.90565185546875,-0.902313232421875,-0.056640625,0.135406494140625
1772791010496684800,17.925684814453124,-0.9550628662109375,-0.0518951416015625,0.11199951171875
1772791010516716800,17.945716796875,-0.8640289306640625,-0.1149139404296875,0.092620849609375
1772791010536749800,17.965749755859374,-0.8024139404296875,-0.164276123046875,0.0707244873046875
1772791010556782800,17.985782958984377,-0.70135498046875,-0.1492919921875,0.1459197998046875
1772791010576814600,18.005814697265624,-0.7686767578125,-0.2427520751953125,0.084716796875
1772791010596847900,18.025847900390627,-0.8056793212890625,-0.2367095947265625,0.0338592529296875
1772791010616880600,18.045880615234374,-0.9044189453125,-0.1830902099609375,0.04010009765625
1772791010636913700,18.06591357421875,-1.0851593017578125,-0.1197967529296875,0.12579345703125
1772791010656945700,18.085945556640624,-1.0745849609375,-0.0933990478515625,0.1076202392578125
1772791010676979000,18.10597900390625,-0.941375732421875,-0.0742340087890625,-0.0205535888671875
1772791010697011700,18.12601171875,-0.779144287109375,-0.1590728759765625,-0.08251953125
1772791010717043700,18.146043701171877,-0.89593505859375,-0.1024627685546875,0.1317291259765625
1772791010737076700,18.16607666015625,-1.014404296875,-0.1971588134765625,0.1427764892578125
1772791010757109800,18.18610986328125,-0.88568115234375,-0.300018310546875,0.1714019775390625
1772791010777142800,18.206142822265626,-0.8448944091796875,-0.4223785400390625,0.06884765625
1772791010797174800,18.2261748046875,-0.7315826416015625,-0.3759918212890625,0.174652099609375
1772791010817207800,18.246207763671876,-0.7400054931640625,-0.429229736328125,0.135223388671875
1772791010837240600,18.266240478515623,-0.8267822265625,-0.3964691162109375,0.11541748046875
1772791010857273900,18.28627392578125,-0.870025634765625,-0.281494140625,0.01373291015625
1772791010877305900,18.306305908203125,-0.7930755615234375,-0.2279815673828125,-0.0377655029296875
1772791010897338600,18.326338623046876,-0.927032470703125,-0.2268829345703125,0.060333251953125
1772791010917371600,18.34637158203125,-0.988128662109375,-0.2852630615234375,0.07666015625
1772791010937403600,18.366403564453126,-1.0551300048828125,-0.2861175537109375,0.0214996337890625
1772791010957437000,18.38643701171875,-1.02294921875,-0.2791748046875,-0.0348968505859375
1772791010977469700,18.4064697265625,-1.0392608642578125,-0.2787322998046875,-0.0738983154296875
1772791010997502700,18.426502685546875,-1.1306610107421875,-0.203460693359375,-0.02459716796875
1772791011017534700,18.44653466796875,-1.1172637939453125,-0.162628173828125,-0.0404052734375
1772791011037567700,18.466567626953125,-0.9279022216796875,-0.1578521728515625,-0.0799407958984375
1772791011057600800,18.486600830078125,-0.81207275390625,-0.1784515380859375,-0.1356353759765625
1772791011077632800,18.5066328125,-0.8490142822265625,-0.13897705078125,-0.1858367919921875
1772791011097665800,18.526665771484375,-1.084747314453125,-0.126708984375,-0.16943359375
1772791011117698600,18.546698486328125,-1.039031982421875,-0.168701171875,-0.144989013671875
1772791011137731800,18.56673193359375,-0.8201751708984375,-0.216064453125,-0.1376800537109375
1772791011157763800,18.586763916015624,-0.677459716796875,-0.2094573974609375,-0.15716552734375
1772791011177796900,18.606796875,-0.748046875,-0.22979736328125,-0.0998992919921875
1772791011197829600,18.62682958984375,-0.90533447265625,-0.3028411865234375,0.044036865234375
1772791011217861600,18.646861572265625,-1.12249755859375,-0.3434600830078125,0.21990966796875
1772791011237894700,18.666894775390624,-1.2467041015625,-0.38934326171875,0.2335662841796875
1772791011257927700,18.686927734375,-1.1930389404296875,-0.416473388671875,0.2845458984375
1772791011277960700,18.706960693359374,-1.133148193359375,-0.3423309326171875,0.2182769775390625
1772791011297992700,18.72699267578125,-1.1869354248046875,-0.2844390869140625,0.1096954345703125
1772791011318025700,18.747025634765624,-1.2013702392578125,-0.24053955078125,0.0919952392578125
1772791011338058800,18.767058837890627,-1.135650634765625,-0.2202911376953125,0.06024169921875
1772791011358091800,18.787091796875,-1.1190032958984375,-0.2303009033203125,0.0451812744140625
1772791011378123800,18.807123779296877,-1.0594940185546875,-0.2423248291015625,0.0898284912109375
1772791011398156500,18.827156494140624,-0.964996337890625,-0.2879180908203125,0.0942840576171875
1772791011418189800,18.84718994140625,-0.8289337158203125,-0.3250274658203125,0.1384124755859375
1772791011438221600,18.8672216796875,-0.85302734375,-0.28887939453125,0.2154388427734375
1772791011458254800,18.8872548828125,-0.8914947509765625,-0.4154815673828125,0.0858154296875
1772791011478287600,18.90728759765625,-0.8333282470703125,-0.3886566162109375,0.06658935546875
1772791011498321000,18.92732080078125,-0.9665985107421875,-0.388519287109375,0.016510009765625
1772791011518352600,18.9473525390625,-1.05853271484375,-0.368438720703125,0.0436248779296875
1772791011538385700,18.9673857421875,-1.1473388671875,-0.35406494140625,0.1032867431640625
1772791011558418700,18.987418701171876,-1.332611083984375,-0.335906982421875,0.123626708984375
1772791011578450700,19.00745068359375,-1.26043701171875,-0.3059844970703125,0.033355712890625
1772791011598483700,19.027483642578126,-1.12713623046875,-0.28375244140625,-0.0368804931640625
1772791011618516700,19.047516845703125,-0.9694976806640625,-0.2235565185546875,-0.0635986328125
1772791011638549800,19.0675498046875,-0.90167236328125,-0.2236175537109375,-0.0613250732421875
1772791011658581800,19.087581787109375,-0.8217010498046875,-0.24981689453125,0.06793212890625
1772791011678614800,19.10761474609375,-0.66748046875,-0.269805908203125,0.1298675537109375
1772791011698647800,19.127647705078125,-0.6451263427734375,-0.27740478515625,0.1775054931640625
1772791011718679600,19.147679443359376,-0.7790985107421875,-0.290802001953125,0.243377685546875
1772791011738712800,19.167712890625,-0.76824951171875,-0.2797088623046875,0.238372802734375
1772791011758745600,19.18774560546875,-0.76007080078125,-0.260162353515625,0.239105224609375
1772791011778779000,19.20777880859375,-0.8656158447265625,-0.2465667724609375,0.268524169921875
1772791011798810600,19.227810546875,-0.86151123046875,-0.2677764892578125,0.2568206787109375
1772791011818844000,19.247843994140624,-0.8629302978515625,-0.2726593017578125,0.3179168701171875
1772791011838876700,19.267876708984375,-0.9013671875,-0.2904510498046875,0.2641754150390625
1772791011858910000,19.287909912109374,-0.87261962890625,-0.2929534912109375,0.2717742919921875
1772791011878941700,19.307941650390624,-0.873809814453125,-0.2747955322265625,0.2835540771484375
1772791011898974700,19.327974609375,-0.8392791748046875,-0.3140716552734375,0.3092498779296875
1772791011919007700,19.3480078125,-0.755889892578125,-0.3277587890625,0.2534637451171875
1772791011939039700,19.368039794921874,-0.7070465087890625,-0.303070068359375,0.1756439208984375
1772791011959072800,19.38807275390625,-0.6872406005859375,-0.400238037109375,0.1756134033203125
1772791011979105800,19.408105712890624,-0.8093414306640625,-0.38665771484375,0.1405792236328125
1772791011999138800,19.428138916015627,-0.9030303955078125,-0.398040771484375,0.0776824951171875
1772791012019170800,19.4481708984375,-1.030242919921875,-0.4158172607421875,0.00396728515625
1772791012039203600,19.46820361328125,-1.1062469482421875,-0.477874755859375,0.0367584228515625
1772791012059236900,19.48823681640625,-1.0766143798828125,-0.430267333984375,0.01934814453125
1772791012079268600,19.5082685546875,-0.982421875,-0.409454345703125,0.0236358642578125
1772791012099302000,19.528302001953126,-0.8720703125,-0.3657989501953125,0.05340576171875
1772791012119334700,19.548334716796877,-0.89996337890625,-0.3795013427734375,0.217926025390625
1772791012139368000,19.568367919921876,-0.8725433349609375,-0.3067474365234375,0.236053466796875
1772791012159399700,19.588399658203127,-0.938751220703125,-0.311492919921875,0.1599884033203125
1772791012179432700,19.6084326171875,-1.0802001953125,-0.2920379638671875,0.11456298828125
1772791012199465700,19.6284658203125,-1.205291748046875,-0.291748046875,0.0911102294921875
1772791012219497700,19.648497802734376,-1.256072998046875,-0.3115386962890625,0.076629638671875
1772791012239530800,19.66853076171875,-1.273223876953125,-0.3092803955078125,0.0579071044921875
1772791012259563800,19.688563720703126,-1.287811279296875,-0.2700958251953125,-0.02398681640625
1772791012279596800,19.7085966796875,-1.2779388427734375,-0.2177734375,-0.0894317626953125
1772791012299628800,19.72862890625,-1.2374114990234375,-0.1473541259765625,-0.10736083984375
1772791012319661800,19.748661865234375,-1.153167724609375,-0.068084716796875,-0.1765289306640625
1772791012339694800,19.76869482421875,-1.0355224609375,-0.01708984375,-0.2624053955078125
1772791012359727900,19.788727783203125,-0.9347381591796875,-0.0098724365234375,-0.1199798583984375
1772791012379759900,19.808759765625,-0.8336944580078125,0.0358734130859375,-0.002838134765625
1772791012399792600,19.828792724609375,-0.76123046875,0.04827880859375,-0.0045318603515625
1772791012419826000,19.848825927734374,-0.744598388671875,-0.00830078125,0.0423583984375
1772791012439858200,19.868858154296873,-0.73468017578125,-0.0382232666015625,0.029541015625
1772791012459891200,19.88889111328125,-0.7918853759765625,-0.1131439208984375,0.0271759033203125
1772791012479924000,19.908924072265624,-0.863983154296875,-0.079315185546875,-0.0438385009765625
1772791012499957000,19.92895703125,-1.0029144287109375,-0.18621826171875,-0.01556396484375
1772791012519989000,19.948989013671873,-1.1411590576171875,-0.1882476806640625,-0.01165771484375
1772791012540022000,19.96902197265625,-1.24530029296875,-0.220001220703125,-0.0186767578125
1772791012560055000,19.989054931640624,-1.20068359375,-0.2870941162109375,0.0090179443359375
1772791012580087300,20.00908740234375,-1.1403350830078125,-0.306793212890625,0.1427459716796875
1772791012600120000,20.0291201171875,-1.1076507568359375,-0.2965850830078125,0.3073577880859375
1772791012620153000,20.049153076171876,-1.0630950927734375,-0.276336669921875,0.33123779296875
1772791012640186000,20.06918603515625,-0.9912261962890625,-0.271453857421875,0.418731689453125
1772791012660218000,20.089218017578126,-0.9217529296875,-0.2686767578125,0.4041595458984375
1772791012680251100,20.109251220703126,-0.9385528564453125,-0.379425048828125,0.4735107421875
1772791012700284000,20.129283935546876,-0.883056640625,-0.4127044677734375,0.40142822265625
1772791012720317200,20.149317138671876,-0.863922119140625,-0.452606201171875,0.5111846923828125
1772791012740349000,20.169348876953126,-0.832763671875,-0.4555206298828125,0.507904052734375
1772791012760382200,20.18938232421875,-0.7912139892578125,-0.515594482421875,0.461517333984375
1772791012780415000,20.2094150390625,-0.812286376953125,-0.564666748046875,0.4624176025390625
1772791012800447000,20.229447021484376,-0.8244476318359375,-0.5634002685546875,0.4879302978515625
1772791012820480000,20.24947998046875,-0.7973785400390625,-0.5444488525390625,0.4519195556640625
1772791012840513000,20.269512939453126,-0.7053985595703125,-0.3958282470703125,0.316986083984375
1772791012860546000,20.289546142578125,-0.6057586669921875,-0.298095703125,0.2015533447265625
1772791012880578000,20.309578125,-0.4400482177734375,-0.33465576171875,0.2588348388671875
1772791012900611000,20.329611083984375,-0.2676544189453125,-0.3457794189453125,0.387481689453125
1772791012920644000,20.34964404296875,-0.6243743896484375,-0.2648773193359375,0.6885528564453125
1772791012940676000,20.369676025390625,-1.023712158203125,-0.3038787841796875,0.496368408203125
1772791012960709000,20.389709228515624,-1.11004638671875,-0.265411376953125,0.3118896484375
1772791012980742000,20.409741943359375,-1.3506927490234375,-0.2717132568359375,0.56097412109375
1772791013000775200,20.429775146484374,-1.221282958984375,-0.30859375,0.8383941650390625
1772791013020807000,20.449806884765625,-0.9784698486328125,-0.3160858154296875,0.60394287109375
1772791013040840200,20.469840087890624,-0.883941650390625,-0.227020263671875,0.4405517578125
1772791013060873000,20.489873046875,-1.0695648193359375,-0.16619873046875,0.472930908203125
1772791013080906200,20.50990625,-1.07159423828125,-0.044189453125,0.200469970703125
1772791013100938000,20.52993798828125,-0.9983978271484375,-0.1108245849609375,0.1074676513671875
1772791013120971000,20.549970947265624,-0.829376220703125,-0.2428131103515625,0.119842529296875
1772791013141004000,20.570004150390623,-0.967498779296875,-0.435394287109375,0.0691680908203125
1772791013161036000,20.5900361328125,-1.2153778076171875,-0.25946044921875,-0.1877288818359375
1772791013181069000,20.610069091796873,-1.113311767578125,-0.0961151123046875,-0.2758636474609375
1772791013201102000,20.63010205078125,-0.8308563232421875,-0.0698089599609375,-0.217193603515625
1772791013221135000,20.650135009765624,-0.6271514892578125,-0.2120819091796875,-0.14166259765625
1772791013241167000,20.6701669921875,-0.6275177001953125,-0.324554443359375,-0.33282470703125
1772791013261200100,20.6902001953125,-0.6031036376953125,-0.4293212890625,-0.5611419677734375
1772791013281233200,20.710233154296876,-0.3399658203125,-0.3637542724609375,-0.4547271728515625
1772791013301265000,20.730264892578123,-0.10675048828125,-0.380706787109375,-0.2684783935546875
1772791013321298200,20.750298095703126,-0.075469970703125,-0.4622955322265625,-0.0599212646484375
1772791013341331000,20.7703310546875,-0.0815887451171875,-0.355316162109375,-0.1728363037109375
1772791013361364200,20.7903642578125,-0.0339813232421875,-0.227569580078125,-0.214263916015625
1772791013381396000,20.81039599609375,0.0930023193359375,-0.134735107421875,-0.130340576171875
1772791013401429200,20.83042919921875,0.2131805419921875,0.0018310546875,-0.08551025390625
1772791013421462000,20.8504619140625,0.3228759765625,0.2458648681640625,-0.0168609619140625
1772791013441494500,20.87049462890625,0.3955230712890625,0.5426177978515625,0.0565338134765625
1772791013461527600,20.890527587890624,0.46697998046875,0.8336181640625,0.0417938232421875
1772791013481560600,20.910560546875,0.53753662109375,1.115814208984375,-0.1448974609375
1772791013501593600,20.930593505859374,0.661346435546875,1.4339141845703125,-0.47540283203125
1772791013521625600,20.95062548828125,0.7279205322265625,1.615966796875,-0.8169403076171875
1772791013541658600,20.97065869140625,0.7647552490234375,1.815216064453125,-1.2417755126953125
1772791013561691600,20.990691650390627,0.7982025146484375,2.1037750244140625,-1.6906280517578125
1772791013581723600,21.0107236328125,0.7706146240234375,2.169708251953125,-1.977813720703125
1772791013601756700,21.030756591796877,0.688720703125,1.9654998779296875,-2.0147552490234375
1772791013621789700,21.050789794921876,0.623809814453125,1.6279296875,-1.8801116943359375
1772791013641822500,21.070822509765627,0.6123809814453125,1.377410888671875,-1.7322235107421875
1772791013661854500,21.0908544921875,0.5745086669921875,1.24237060546875,-1.6026153564453125
1772791013681887700,21.1108876953125,0.5381622314453125,1.186065673828125,-1.5111846923828125
1772791013701920500,21.13092041015625,0.52886962890625,1.221160888671875,-1.4361572265625
1772791013721952800,21.150952880859375,0.4853057861328125,1.2463531494140625,-1.28082275390625
1772791013741985500,21.170985595703126,0.4133453369140625,1.204864501953125,-1.077056884765625
1772791013762018600,21.1910185546875,0.338653564453125,1.055023193359375,-0.9207000732421875
1772791013782051600,21.211051513671876,0.294219970703125,0.9146728515625,-0.859466552734375
1772791013802083600,21.23108349609375,0.2347412109375,0.784088134765625,-0.8486785888671875
1772791013822116600,21.25111669921875,0.152252197265625,0.693206787109375,-0.86590576171875
1772791013842149400,21.2711494140625,0.0959014892578125,0.62060546875,-0.8991546630859375
1772791013862181600,21.291181640625,0.0790863037109375,0.5926361083984375,-0.942626953125
1772791013882214700,21.311214599609375,0.077850341796875,0.580535888671875,-0.9494476318359375
1772791013902247700,21.33124755859375,0.061279296875,0.5825042724609375,-0.945068359375
1772791013922280400,21.351280517578125,0.0750732421875,0.56634521484375,-0.94940185546875
1772791013942312400,21.3713125,0.1110992431640625,0.5467376708984375,-0.958709716796875
1772791013962345700,21.391345703125,0.094818115234375,0.56689453125,-0.9375
1772791013982378500,21.41137841796875,0.0377960205078125,0.5628509521484375,-0.860260009765625
1772791014002410800,21.43141064453125,0.0009613037109375,0.5616455078125,-0.7601776123046875
1772791014022443500,21.451443603515624,0.0040740966796875,0.5308837890625,-0.6822052001953125
1772791014042476500,21.4714765625,0.0342559814453125,0.532989501953125,-0.6477203369140625
1772791014062509600,21.491509521484375,0.0848236083984375,0.56585693359375,-0.657501220703125
1772791014082541600,21.51154150390625,0.1263275146484375,0.5950927734375,-0.5975189208984375
1772791014102574600,21.53157470703125,0.1981964111328125,0.6268157958984375,-0.59246826171875
1772791014122607400,21.551607421875,0.2481689453125,0.6372833251953125,-0.5950775146484375
1772791014142639600,21.5716396484375,0.28314208984375,0.6183013916015625,-0.5695648193359375
1772791014162672600,21.591672607421874,0.3157806396484375,0.6097259521484375,-0.5380706787109375
1772791014182705700,21.61170556640625,0.35186767578125,0.6240386962890625,-0.4979705810546875
1772791014202738400,21.631738525390624,0.385284423828125,0.6597747802734375,-0.4568023681640625
1772791014222770700,21.651770751953126,0.462371826171875,0.6969451904296875,-0.5005950927734375
1772791014242803500,21.671803466796874,0.5750732421875,0.728759765625,-0.62554931640625
1772791014262836700,21.691836669921877,0.718048095703125,0.77642822265625,-0.7225189208984375
1772791014282868700,21.71186865234375,0.9598846435546875,0.795501708984375,-0.7612152099609375
1772791014302901500,21.731901611328126,1.15057373046875,0.9276885986328125,-0.7642974853515625
1772791014322934500,21.7519345703125,1.1465606689453125,0.959381103515625,-0.7618408203125
1772791014342966500,21.771966552734376,1.0805816650390625,0.991546630859375,-0.9138641357421875
1772791014362999600,21.79199951171875,0.9520416259765625,0.867279052734375,-1.0038909912109375
1772791014383032600,21.812032470703127,0.773590087890625,0.6865997314453125,-0.987152099609375
1772791014403065600,21.832065673828126,0.6444549560546875,0.6061248779296875,-0.94586181640625
1772791014423097600,21.85209765625,0.50567626953125,0.5809783935546875,-0.8638916015625
1772791014443130400,21.87213037109375,0.3614959716796875,0.5653533935546875,-0.7753753662109375
1772791014463163100,21.8921630859375,0.246246337890625,0.616302490234375,-0.75592041015625
1772791014483195400,21.9121953125,0.174835205078125,0.6912078857421875,-0.7797088623046875
1772791014503228200,21.932228271484377,0.1542816162109375,0.761871337890625,-0.8077545166015625
1772791014523261200,21.95226123046875,0.156005859375,0.8212738037109375,-0.8221588134765625
1772791014543294200,21.972294189453127,0.1446533203125,0.880889892578125,-0.822723388671875
1772791014563326200,21.992326171875,0.153839111328125,0.926788330078125,-0.83770751953125
1772791014583359200,22.012359130859377,0.1186676025390625,0.9434051513671875,-0.8135986328125
1772791014603392000,22.03239208984375,0.0966033935546875,0.899505615234375,-0.7919921875
1772791014623424300,22.05242431640625,0.102996826171875,0.84747314453125,-0.801483154296875
1772791014643457300,22.072457275390626,0.1077880859375,0.7857818603515625,-0.815887451171875
1772791014663489000,22.092489013671877,0.1317291259765625,0.727081298828125,-0.83660888671875
1772791014683522300,22.112522216796876,0.1379241943359375,0.702545166015625,-0.8510589599609375
1772791014703554000,22.132553955078127,0.146331787109375,0.6884918212890625,-0.8463134765625
1772791014723587300,22.15258740234375,0.1463775634765625,0.6889190673828125,-0.8207550048828125
1772791014743620000,22.1726201171875,0.1565399169921875,0.6838226318359375,-0.7753448486328125
1772791014763652000,22.192652099609376,0.1565093994140625,0.6843414306640625,-0.7285919189453125
1772791014783685000,22.21268505859375,0.1362762451171875,0.673370361328125,-0.6816558837890625
1772791014803718100,22.23271826171875,0.119110107421875,0.6674652099609375,-0.6524658203125
1772791014823751200,22.252751220703125,0.1003875732421875,0.6781005859375,-0.6289825439453125
1772791014843783200,22.272783203125,0.09332275390625,0.692047119140625,-0.6028900146484375
1772791014863816200,22.292816162109375,0.1084136962890625,0.7149200439453125,-0.56304931640625
1772791014883849200,22.31284912109375,0.13507080078125,0.7457427978515625,-0.51690673828125
1772791014903881200,22.332881103515625,0.1376800537109375,0.764984130859375,-0.4662017822265625
1772791014923914200,22.352914306640624,0.143035888671875,0.7570037841796875,-0.4306640625
1772791014943947300,22.372947265625,0.16497802734375,0.7337188720703125,-0.422821044921875
1772791014963980300,22.392980224609374,0.2123870849609375,0.716461181640625,-0.42706298828125
1772791014984012000,22.413011962890625,0.33758544921875,0.7815704345703125,-0.4878082275390625
1772791015004045300,22.43304541015625,0.40850830078125,0.8292999267578125,-0.48431396484375
1772791015024078000,22.453078125,0.429473876953125,0.8975830078125,-0.482147216796875
1772791015044110300,22.4731103515625,0.3969268798828125,0.9681396484375,-0.4812469482421875
1772791015064143000,22.49314306640625,0.4313812255859375,1.0375518798828125,-0.567047119140625
1772791015084177200,22.51317724609375,0.5660858154296875,1.0661163330078125,-0.6513519287109375
1772791015104210200,22.533210205078124,0.7690277099609375,1.0706939697265625,-0.74432373046875
1772791015124242400,22.553242431640626,0.9606781005859375,0.996124267578125,-0.795654296875
1772791015144275200,22.573275146484374,1.0174102783203125,0.8505401611328125,-0.74658203125
1772791015164308200,22.59330810546875,1.004364013671875,0.839324951171875,-0.7847442626953125
1772791015184340200,22.61334033203125,0.8643035888671875,0.739471435546875,-0.801483154296875
1772791015204373200,22.633373291015626,0.6790771484375,0.665130615234375,-0.8532562255859375
1772791015224406300,22.65340625,0.5044097900390625,0.600067138671875,-0.9319915771484375
1772791015244439000,22.67343896484375,0.3907623291015625,0.577972412109375,-1.0487060546875
1772791015264471300,22.69347119140625,0.3126373291015625,0.58050537109375,-1.16790771484375
1772791015284504000,22.713504150390627,0.28143310546875,0.5611419677734375,-1.21270751953125
1772791015304537300,22.733537353515626,0.28717041015625,0.575469970703125,-1.174957275390625
1772791015324569300,22.7535693359375,0.25799560546875,0.611358642578125,-1.08599853515625
1772791015344602000,22.77360205078125,0.2426300048828125,0.64031982421875,-0.9701995849609375
1772791015364635100,22.79363525390625,0.2169952392578125,0.6710968017578125,-0.8480224609375
1772791015384668200,22.813668212890626,0.1893157958984375,0.677276611328125,-0.7287139892578125
1772791015404700200,22.8337001953125,0.176849365234375,0.6715545654296875,-0.6238555908203125
1772791015424733200,22.853733154296876,0.1687164306640625,0.65655517578125,-0.5560455322265625
1772791015444766000,22.873765869140627,0.16357421875,0.636077880859375,-0.508819580078125
1772791015464798000,22.8937978515625,0.156341552734375,0.6240234375,-0.4902496337890625
1772791015484831000,22.9138310546875,0.1579132080078125,0.64300537109375,-0.4683837890625
1772791015504864000,22.933864013671876,0.153106689453125,0.6450958251953125,-0.4174346923828125
1772791015524896800,22.953896728515623,0.163360595703125,0.6623077392578125,-0.398529052734375
1772791015544929000,22.973928955078126,0.1485443115234375,0.67431640625,-0.3895721435546875
1772791015564961800,22.9939619140625,0.1150360107421875,0.6670989990234375,-0.3701324462890625
1772791015584995000,23.0139951171875,0.0893707275390625,0.65924072265625,-0.3316650390625
1772791015605027000,23.034027099609375,0.084808349609375,0.6445159912109375,-0.320770263671875
1772791015625059800,23.054059814453126,0.0917205810546875,0.666259765625,-0.345855712890625
1772791015645092900,23.0740927734375,0.1458892822265625,0.7301483154296875,-0.4046783447265625
1772791015665126000,23.0941259765625,0.23406982421875,0.7881317138671875,-0.48101806640625
1772791015685158000,23.114157958984375,0.3672332763671875,0.8238372802734375,-0.587188720703125
1772791015705191000,23.13419091796875,0.5655059814453125,0.9068450927734375,-0.7364959716796875
1772791015725224000,23.154223876953125,0.702545166015625,0.9991302490234375,-0.8538970947265625
1772791015745256000,23.174255859375,0.7249755859375,1.0406494140625,-0.9322967529296875
1772791015765289000,23.1942890625,0.641448974609375,1.0442352294921875,-1.055206298828125
1772791015785322000,23.214322021484374,0.5233001708984375,0.9537811279296875,-1.1563873291015625
1772791015805355000,23.23435498046875,0.4253997802734375,0.7802734375,-1.2184600830078125
1772791015825387000,23.254386962890624,0.380706787109375,0.5996551513671875,-1.200286865234375
1772791015845419800,23.274419677734375,0.3974456787109375,0.472564697265625,-1.1374969482421875
1772791015865453000,23.294453125,0.40924072265625,0.45458984375,-1.0008087158203125
1772791015885485000,23.314485107421874,0.4000396728515625,0.501708984375,-0.8734893798828125
1772791015905518000,23.33451806640625,0.3757171630859375,0.5422515869140625,-0.777801513671875
1772791015925550800,23.35455078125,0.3568115234375,0.5645294189453125,-0.719879150390625
1772791015945584000,23.374584228515626,0.359527587890625,0.614410400390625,-0.7127838134765625
1772791015965615900,23.394615966796874,0.3250274658203125,0.6795654296875,-0.718597412109375
1772791015985649000,23.41464892578125,0.2705078125,0.757476806640625,-0.71990966796875
1772791016005682000,23.434681884765624,0.1830902099609375,0.837005615234375,-0.70611572265625
1772791016025714000,23.4547138671875,0.116485595703125,0.853668212890625,-0.6977691650390625
1772791016045747000,23.474746826171874,0.082489013671875,0.8187103271484375,-0.710357666015625
1772791016065780000,23.494780029296876,0.0948028564453125,0.7675933837890625,-0.7386322021484375
1772791016085813000,23.51481298828125,0.1199188232421875,0.715057373046875,-0.7685699462890625
1772791016105845000,23.534844970703126,0.143096923828125,0.6755828857421875,-0.794952392578125
1772791016125877800,23.554877685546874,0.1688232421875,0.65765380859375,-0.8014068603515625
1772791016145911000,23.5749111328125,0.195159912109375,0.6483612060546875,-0.7969207763671875
1772791016165942800,23.59494287109375,0.2145843505859375,0.6646881103515625,-0.7941741943359375
1772791016185976000,23.61497607421875,0.2247314453125,0.6740570068359375,-0.77984619140625
1772791016206008800,23.6350087890625,0.2239990234375,0.6740570068359375,-0.7641143798828125
1772791016226042000,23.6550419921875,0.223724365234375,0.674774169921875,-0.7489776611328125
1772791016246073900,23.675073974609376,0.19732666015625,0.655487060546875,-0.7197265625
1772791016266107000,23.69510693359375,0.176239013671875,0.63726806640625,-0.697052001953125
1772791016286140000,23.715139892578126,0.1617431640625,0.63128662109375,-0.68328857421875
1772791016306172000,23.735171875,0.144775390625,0.6581878662109375,-0.67535400390625
1772791016326205000,23.755204833984376,0.1337890625,0.6980743408203125,-0.6808929443359375
1772791016346238000,23.775238037109375,0.1424560546875,0.74078369140625,-0.68310546875
1772791016366271000,23.79527099609375,0.1392822265625,0.7700347900390625,-0.6732635498046875
1772791016386303000,23.815302978515625,0.12255859375,0.8033447265625,-0.67083740234375
1772791016406336000,23.8353359375,0.125518798828125,0.8209381103515625,-0.6644134521484375
1772791016426369000,23.855369140625,0.1233673095703125,0.7913055419921875,-0.6417083740234375
1772791016446401500,23.875401611328126,0.197235107421875,0.8116302490234375,-0.66534423828125
1772791016466434800,23.895434814453125,0.248870849609375,0.811492919921875,-0.666351318359375
1772791016486467600,23.915467529296876,0.29656982421875,0.8260650634765625,-0.6896514892578125
1772791016506499600,23.93549951171875,0.2714691162109375,0.8242645263671875,-0.6954193115234375
1772791016526532600,23.95553271484375,0.2721099853515625,0.8299102783203125,-0.6841278076171875
1772791016546565600,23.975565673828125,0.3622589111328125,0.8443756103515625,-0.66937255859375
1772791016566598700,23.9955986328125,0.5501861572265625,0.8460693359375,-0.618377685546875
1772791016586630700,24.015630615234375,0.74554443359375,0.8134613037109375,-0.569488525390625
1772791016606663700,24.03566357421875,0.8270263671875,0.7212982177734375,-0.5060882568359375
1772791016626696700,24.05569677734375,0.886993408203125,0.70843505859375,-0.4815673828125
1772791016646728400,24.075728515625,0.86102294921875,0.7088470458984375,-0.4958343505859375
1772791016666761700,24.09576171875,0.7763824462890625,0.6932830810546875,-0.58575439453125
1772791016686794500,24.11579443359375,0.602752685546875,0.69232177734375,-0.684783935546875
1772791016706827500,24.13582763671875,0.5136566162109375,0.696868896484375,-0.78094482421875
1772791016726859500,24.155859619140625,0.3377227783203125,0.67620849609375,-0.8928985595703125
1772791016746892800,24.175892822265624,0.2700347900390625,0.6953887939453125,-0.9810791015625
1772791016766925600,24.195925537109375,0.2143707275390625,0.696990966796875,-1.0323028564453125
1772791016786957600,24.21595751953125,0.20660400390625,0.6684417724609375,-1.033416748046875
1772791016806990600,24.235990478515625,0.2009124755859375,0.650604248046875,-1.00006103515625
1772791016827023600,24.256023681640624,0.1966705322265625,0.6504364013671875,-0.9485321044921875
1772791016847056600,24.276056640625,0.1767120361328125,0.6518402099609375,-0.8840179443359375
1772791016867088600,24.296088623046874,0.156494140625,0.648712158203125,-0.797149658203125
1772791016887121700,24.31612158203125,0.15234375,0.639984130859375,-0.7008819580078125
1772791016907154700,24.33615478515625,0.15704345703125,0.627655029296875,-0.6281890869140625
1772791016927186700,24.356186767578127,0.1499176025390625,0.631134033203125,-0.5709228515625
1772791016947219700,24.3762197265625,0.1414794921875,0.618438720703125,-0.5112152099609375
1772791016967252700,24.396252685546877,0.1407928466796875,0.6161346435546875,-0.468658447265625
1772791016987284700,24.41628466796875,0.1396636962890625,0.6156005859375,-0.43621826171875
1772791017007317500,24.4363173828125,0.137542724609375,0.624603271484375,-0.4049835205078125
1772791017027350800,24.456350830078126,0.1265869140625,0.6427459716796875,-0.35943603515625
1772791017047383600,24.476383544921877,0.1092376708984375,0.640899658203125,-0.3180084228515625
1772791017067415800,24.496415771484376,0.078643798828125,0.6188812255859375,-0.304595947265625
1772791017087448600,24.516448486328127,0.0711822509765625,0.5936737060546875,-0.3392181396484375
1772791017107481600,24.536481689453126,0.094696044921875,0.5859832763671875,-0.3956298828125
1772791017127513600,24.556513671875,0.2011260986328125,0.6536102294921875,-0.5013580322265625
1772791017147546600,24.576546630859376,0.3799896240234375,0.93170166015625,-0.725250244140625
1772791017167579600,24.59657958984375,0.5146636962890625,1.203582763671875,-0.960174560546875
1772791017187612400,24.6166123046875,0.5858001708984375,1.2743988037109375,-1.174530029296875
1772791017207644700,24.636644775390625,0.697418212890625,1.1760406494140625,-1.2716522216796875
1772791017227677700,24.656677734375,0.7828216552734375,0.9113006591796875,-1.1887664794921875
1772791017247710700,24.676710693359375,0.7686767578125,0.6123199462890625,-1.0512542724609375
1772791017267742700,24.69674267578125,0.76458740234375,0.487701416015625,-1.0471954345703125
1772791017287775500,24.716775390625,0.7206268310546875,0.4651336669921875,-0.9537353515625
1772791017307808500,24.73680859375,0.7161407470703125,0.480865478515625,-0.8264923095703125
1772791017327841500,24.756841552734375,0.6661376953125,0.487762451171875,-0.696624755859375
1772791017347873800,24.776873779296874,0.57586669921875,0.4996337890625,-0.642120361328125
1772791017367906600,24.796906494140625,0.5056610107421875,0.569793701171875,-0.7458953857421875
1772791017387939600,24.816939697265624,0.3354034423828125,0.7116241455078125,-0.7860260009765625
1772791017407971600,24.8369716796875,0.20721435546875,0.790252685546875,-0.807159423828125
1772791017428004600,24.857004638671874,0.1407470703125,0.8412628173828125,-0.8003387451171875
1772791017448037400,24.877037353515625,0.1031951904296875,0.86993408203125,-0.796905517578125
1772791017468070100,24.897070068359376,0.082000732421875,0.8398895263671875,-0.77764892578125
1772791017488102400,24.917102294921875,0.0673065185546875,0.787109375,-0.7650299072265625
1772791017508135400,24.937135498046874,0.041595458984375,0.7225341796875,-0.772003173828125
1772791017528168400,24.95716845703125,0.106292724609375,0.68182373046875,-0.8205413818359375
1772791017548200400,24.977200439453124,0.1558685302734375,0.6360626220703125,-0.821929931640625
1772791017568233200,24.997233154296875,0.1562347412109375,0.6035614013671875,-0.8109283447265625
1772791017588266500,25.0172666015625,0.1576080322265625,0.585113525390625,-0.7843170166015625
1772791017608298200,25.03729833984375,0.1797332763671875,0.5817413330078125,-0.7525482177734375
1772791017628331500,25.05733154296875,0.2127532958984375,0.578582763671875,-0.7230682373046875
1772791017648364300,25.0773642578125,0.20343017578125,0.5805511474609375,-0.6836395263671875
1772791017668397300,25.097397216796875,0.174346923828125,0.5861968994140625,-0.6706085205078125
1772791017688429300,25.11742919921875,0.1440887451171875,0.578338623046875,-0.66497802734375
1772791017708462300,25.13746240234375,0.1350250244140625,0.60089111328125,-0.652435302734375
1772791017728495400,25.157495361328124,0.1269989013671875,0.6216278076171875,-0.6346282958984375
1772791017748527400,25.17752734375,0.1296844482421875,0.660491943359375,-0.6017608642578125
1772791017768560400,25.197560302734374,0.1301422119140625,0.684783935546875,-0.5893707275390625
1772791017788593400,25.217593505859377,0.145416259765625,0.7077484130859375,-0.6087799072265625
1772791017808626400,25.23762646484375,0.1920928955078125,0.7093658447265625,-0.598419189453125
1772791017828658400,25.257658447265626,0.20465087890625,0.68511962890625,-0.5480804443359375
1772791017848691200,25.277691162109374,0.2050018310546875,0.6494293212890625,-0.5271453857421875
1772791017868724200,25.29772412109375,0.221160888671875,0.678253173828125,-0.588409423828125
1772791017888756200,25.317756103515624,0.28594970703125,0.777496337890625,-0.6717987060546875
1772791017908789500,25.33778955078125,0.3435211181640625,0.849639892578125,-0.6984710693359375
1772791017928822300,25.357822265625,0.436614990234375,0.9441375732421875,-0.6933441162109375
1772791017948855300,25.377855224609377,0.5314178466796875,1.0284576416015625,-0.682830810546875
1772791017968887300,25.39788720703125,0.6497650146484375,1.0497589111328125,-0.711639404296875
1772791017988920300,25.41792041015625,0.7232666015625,0.9965362548828125,-0.76953125
1772791018008953300,25.437953369140626,0.7265472412109375,0.900390625,-0.81121826171875
1772791018028985300,25.4579853515625,0.6683502197265625,0.8033447265625,-0.8113555908203125
1772791018049018400,25.478018310546876,0.5603790283203125,0.7362518310546875,-0.8178558349609375
1772791018069051400,25.498051513671875,0.38067626953125,0.7048797607421875,-0.810577392578125
1772791018089083400,25.51808349609375,0.32440185546875,0.6680755615234375,-0.8787078857421875
1772791018109116400,25.538116455078125,0.2472381591796875,0.6219024658203125,-0.885345458984375
1772791018129149400,25.5581494140625,0.202484130859375,0.5688018798828125,-0.9039306640625
1772791018149182200,25.57818212890625,0.205474853515625,0.54443359375,-0.935028076171875
1772791018169214200,25.598214111328126,0.2268829345703125,0.531005859375,-0.9669647216796875
1772791018189247500,25.61824755859375,0.2373046875,0.5391845703125,-1.0020751953125
1772791018209280300,25.6382802734375,0.2300872802734375,0.567657470703125,-1.0168304443359375
1772791018229312500,25.6583125,0.2148895263671875,0.609344482421875,-1.0025482177734375
1772791018249345300,25.67834521484375,0.1918792724609375,0.6652679443359375,-0.9576263427734375
1772791018269378300,25.69837841796875,0.1619110107421875,0.7158203125,-0.912628173828125
1772791018289411300,25.718411376953124,0.1129608154296875,0.7497406005859375,-0.8205108642578125
1772791018309443300,25.738443359375,0.0816497802734375,0.73760986328125,-0.709075927734375
1772791018329476400,25.758476318359374,0.0799102783203125,0.7394256591796875,-0.602508544921875
1772791018349509000,25.778509033203125,0.091064453125,0.705474853515625,-0.5151214599609375
1772791018369541400,25.798541259765624,0.1125640869140625,0.6908416748046875,-0.46881103515625
1772791018389574400,25.818574462890624,0.12994384765625,0.6964874267578125,-0.4579010009765625
1772791018409607400,25.838607421875,0.1337127685546875,0.6845855712890625,-0.4328765869140625
1772791018429639400,25.858639404296873,0.1352081298828125,0.675018310546875,-0.4163055419921875
1772791018449671700,25.878671630859376,0.1463775634765625,0.668670654296875,-0.4049224853515625
1772791018469705000,25.898705078125,0.16082763671875,0.65472412109375,-0.40069580078125
1772791018489737700,25.91873779296875,0.1881256103515625,0.64483642578125,-0.39483642578125
1772791018509770000,25.93877001953125,0.2060394287109375,0.6780548095703125,-0.3851776123046875
1772791018529802800,25.958802734375,0.2354278564453125,0.7593994140625,-0.4134521484375
1772791018549836000,25.9788359375,0.2940673828125,0.84136962890625,-0.4676971435546875
1772791018569867800,25.99886767578125,0.3941802978515625,0.8817291259765625,-0.520050048828125
1772791018589900800,26.01890087890625,0.508087158203125,0.8836822509765625,-0.58721923828125
1772791018609933800,26.038933837890625,0.5789642333984375,0.836090087890625,-0.6307373046875
