time,seconds_elapsed,z,y,x
1772790992623734500,0.052734619140625,0.051246143877506256,0.12418773025274277,-0.005258145276457071
1772790992643767300,0.072767333984375,-0.009456352330744267,0.08353909850120544,-0.04960403963923454
1772790992663800600,0.092800537109375,-0.13041819632053375,0.025424400344491005,-0.21999254822731018
1772790992683833300,0.112833251953125,-0.19670987129211426,0.008610532619059086,-0.33976981043815613
1772790992703865600,0.132865478515625,-0.13259398937225342,0.045999184250831604,-0.2376895248889923
1772790992723898400,0.1528984375,-0.027603665366768837,-0.07920294255018234,0.07574909180402756
1772790992743931600,0.172931640625,0.04794755205512047,-0.19052466750144958,0.3374462127685547
1772790992763964400,0.19296435546875,0.04285292327404022,-0.2232498675584793,0.35000061988830566
1772790992783996400,0.212996337890625,-0.026336532086133957,-0.3176195025444031,0.31199225783348083
1772790992804029400,0.233029541015625,-0.12878115475177765,-0.44554072618484497,0.2773381173610687
1772790992824062500,0.2530625,-0.21551896631717682,-0.5066543817520142,0.2038588523864746
1772790992844095500,0.273095458984375,-0.22507892549037933,-0.25048309564590454,0.11954264342784882
1772790992864127500,0.29312744140625,-0.20908504724502563,0.03863634169101715,0.15562820434570312
1772790992884160500,0.313160400390625,-0.2004619985818863,0.21326060593128204,0.18580129742622375
1772790992904193300,0.333193359375,-0.2787112593650818,0.0467430055141449,0.14908163249492645
1772790992924226600,0.3532265625,-0.297524094581604,-0.2139037698507309,0.19318144023418427
1772790992944259300,0.37325927734375,-0.2520167827606201,-0.35494372248649597,0.30149751901626587
1772790992964291600,0.39329150390625,-0.21537595987319946,-0.40011730790138245,0.43177005648612976
1772790992984324400,0.413324462890625,-0.19513539969921112,-0.39408764243125916,0.4987930357456207
1772790993004357400,0.433357421875,-0.17553241550922394,-0.365405410528183,0.399179071187973
1772790993024390400,0.453390380859375,-0.1771489530801773,-0.4332755208015442,0.20882964134216309
1772790993044422400,0.47342236328125,-0.24055056273937225,-0.44704967737197876,-0.028837507590651512
1772790993064455400,0.493455322265625,-0.3370020091533661,-0.4299663007259369,-0.24548380076885223
1772790993084488400,0.513488525390625,-0.4294096827507019,-0.47108229994773865,-0.41746488213539124
1772790993104521500,0.533521484375,-0.4727843403816223,-0.8226877450942993,-0.34296828508377075
1772790993124554500,0.553554443359375,-0.44432899355888367,-1.1666715145111084,-0.034031737595796585
1772790993144586500,0.57358642578125,-0.4080474078655243,-1.3717670440673828,0.22954504191875458
1772790993164619500,0.59361962890625,-0.41961669921875,-1.3970754146575928,0.22205623984336853
1772790993184652500,0.613652587890625,-0.5009467005729675,-1.4098784923553467,0.025491245090961456
1772790993204685600,0.633685546875,-0.5516831278800964,-1.073911190032959,-0.21522575616836548
1772790993224717300,0.65371728515625,-0.5702618956565857,-0.7386777997016907,-0.3935219943523407
1772790993244750600,0.67375048828125,-0.4969160258769989,-0.5926931500434875,-0.40741676092147827
1772790993264783400,0.693783447265625,-0.33760467171669006,-0.653337836265564,-0.25013500452041626
1772790993284816400,0.71381640625,-0.18749532103538513,-0.7143396735191345,-0.1237347275018692
1772790993304848400,0.733848388671875,-0.09482264518737793,-0.7949568033218384,-0.11752849072217941
1772790993324881700,0.753881591796875,-0.07777948677539825,-0.8802490234375,-0.2377941906452179
1772790993344914400,0.77391455078125,-0.07564655691385269,-0.8195515871047974,-0.46975231170654297
1772790993364947500,0.793947509765625,-0.08095157146453857,-0.7963405251502991,-0.6419965028762817
1772790993384980500,0.81398046875,-0.07513629645109177,-0.6132144331932068,-0.7475748658180237
1772790993405012200,0.83401220703125,0.0028727517928928137,-0.23316773772239685,-0.9249009490013123
1772790993425045200,0.854045166015625,0.12259196490049362,-0.0755634680390358,-1.1937366724014282
1772790993445078000,0.874078125,0.18708360195159912,-0.3504917025566101,-1.307108998298645
1772790993465111300,0.894111328125,0.190192312002182,-0.3755216896533966,-1.2253302335739136
1772790993485143300,0.914143310546875,0.17405541241168976,-0.11817324161529541,-1.054400086402893
1772790993505176300,0.93417626953125,0.09185589104890823,0.08086821436882019,-0.7251273393630981
1772790993525209000,0.954208984375,-0.008274441584944725,0.3034549653530121,-0.23576192557811737
1772790993545242400,0.974242431640625,-0.07348566502332687,0.5378538966178894,0.3043662905693054
1772790993565274000,0.994274169921875,-0.09806851297616959,0.5591248273849487,0.663791298866272
1772790993585307100,1.01430712890625,-0.04134238138794899,0.5589945912361145,0.6512728333473206
1772790993605340200,1.034340087890625,-0.059117116034030914,0.3260042071342468,0.3322352170944214
1772790993625373200,1.054373291015625,-0.2177903801202774,0.06767358630895615,-0.09008195251226425
1772790993645406200,1.07440625,-0.3896401822566986,-0.01727725751698017,-0.25759586691856384
1772790993665438200,1.094438232421875,-0.4351080656051636,0.10970492660999298,-0.08599214255809784
1772790993685471200,1.11447119140625,-0.393871933221817,0.1957836151123047,0.23138955235481262
1772790993705504300,1.134504150390625,-0.3842991888523102,0.15117274224758148,0.560839056968689
1772790993725537300,1.154537353515625,-0.38052791357040405,0.06724321842193604,0.8209041953086853
1772790993745569300,1.1745693359375,-0.37730732560157776,-0.033364880830049515,0.932698667049408
1772790993765602000,1.19460205078125,-0.3835732340812683,-0.13701830804347992,0.9386516213417053
1772790993785635300,1.21463525390625,-0.3584710657596588,-0.06456594169139862,0.9093872308731079
1772790993805668000,1.234668212890625,-0.30010443925857544,0.2172446995973587,0.8425067067146301
1772790993825700400,1.254700439453125,-0.19885024428367615,0.40426623821258545,0.7596579194068909
1772790993845733000,1.274733154296875,-0.09856145828962326,0.4300056993961334,0.6090337634086609
1772790993865766400,1.294766357421875,-0.020737502723932266,0.320197194814682,0.3356006443500519
1772790993885799200,1.314799072265625,0.05180194601416588,0.09473370015621185,0.11461473256349564
1772790993905832200,1.334832275390625,0.16668406128883362,0.07252852618694305,0.09151766449213028
1772790993925864200,1.3548642578125,0.19066208600997925,0.10787294059991837,0.14617931842803955
1772790993945897200,1.374897216796875,0.15500663220882416,0.1395035684108734,0.18203185498714447
1772790993965930200,1.39493017578125,0.15518106520175934,0.16583849489688873,0.15052692592144012
1772790993985963000,1.414962890625,0.1725158393383026,0.09488363564014435,0.10242224484682083
1772790994005995300,1.434995361328125,0.15845727920532227,0.046369362622499466,-0.04379435256123543
1772790994026028000,1.455028076171875,0.13663561642169952,-0.00535508431494236,-0.16639883816242218
1772790994046061300,1.475061279296875,0.14904460310935974,0.0009033442474901676,-0.13584572076797485
1772790994066094000,1.495093994140625,0.17244261503219604,0.07180441170930862,-0.07391683757305145
1772790994086126000,1.5151259765625,0.22451911866664886,0.18388541042804718,-0.001442900625988841
1772790994106159000,1.5351591796875,0.34226492047309875,0.38658419251441956,0.018123077228665352
1772790994126192000,1.555192138671875,0.4487548768520355,0.4336121678352356,0.060985591262578964
1772790994146225200,1.57522509765625,0.3908873200416565,0.46887508034706116,-0.041248638182878494
1772790994166257200,1.595257080078125,-0.07056152075529099,-0.02761857770383358,-0.11402697116136551
1772790994186290200,1.615290283203125,-1.3333704471588135,-0.4204369783401489,0.01299303025007248
1772790994206323200,1.6353232421875,-1.8728469610214233,-0.03994182497262955,0.3166698217391968
1772790994226356200,1.655356201171875,-1.5224405527114868,1.0403095483779907,0.5070674419403076
1772790994246388200,1.67538818359375,-0.3301917612552643,3.06868577003479,-0.4836433529853821
1772790994266421200,1.695421142578125,0.016441291198134422,3.011333703994751,-0.5906808972358704
1772790994286454300,1.715454345703125,0.11131853610277176,1.2341961860656738,-0.5181813836097717
1772790994306487300,1.7354873046875,0.3761507272720337,-0.4587939381599426,-1.0987249612808228
1772790994326520300,1.755520263671875,0.6816669702529907,-1.0096368789672852,-2.32338809967041
1772790994346552000,1.775552001953125,1.0308544635772705,-1.433687686920166,-2.8390049934387207
1772790994366585300,1.79558544921875,1.1839746236801147,-0.9990609288215637,-2.895493268966675
1772790994386618000,1.8156181640625,0.8630703091621399,-0.3359905183315277,-2.7634012699127197
1772790994406651000,1.83565087890625,-0.26064756512641907,0.5287573337554932,-2.6068408489227295
1772790994426682600,1.8556826171875,-0.662663459777832,1.1620327234268188,-2.425316095352173
1772790994446716000,1.8757158203125,-1.060173511505127,0.9000869393348694,-2.1156668663024902
1772790994466748700,1.895748779296875,-1.4010118246078491,0.9797924160957336,-1.8621879816055298
1772790994486782000,1.915781982421875,-1.149754524230957,1.200490117073059,-1.4883882999420166
1772790994506813700,1.935813720703125,-1.037461280822754,1.4586045742034912,-0.8114979267120361
1772790994526847000,1.955846923828125,-1.1465198993682861,1.6750234365463257,-0.10651659220457077
1772790994546879700,1.975879638671875,-1.2952486276626587,1.8124808073043823,0.2885497808456421
1772790994566912800,1.995912841796875,-1.6557061672210693,1.547977328300476,0.5367750525474548
1772790994586944800,2.01594482421875,-1.8679590225219727,0.9659913778305054,0.41147568821907043
1772790994606978000,2.03597802734375,-1.9846051931381226,0.5707617402076721,0.19330234825611115
1772790994627010800,2.0560107421875,-1.847848653793335,0.2627381384372711,0.2245659977197647
1772790994647043800,2.0760439453125,-1.479640007019043,0.2692820727825165,0.5207601189613342
1772790994667075800,2.096075927734375,-1.1878334283828735,0.45242151618003845,0.905728280544281
1772790994687108900,2.11610888671875,-1.0965867042541504,0.671036422252655,1.108040690422058
1772790994707142000,2.136141845703125,-0.9556077122688293,0.7755042314529419,1.227235198020935
1772790994727174700,2.156174560546875,-0.7069624662399292,0.6401591897010803,1.3781286478042603
1772790994747207000,2.17620703125,-0.4714285135269165,0.41720256209373474,1.514060616493225
1772790994767240000,2.196239990234375,-0.37671852111816406,0.42869701981544495,1.5678061246871948
1772790994787273000,2.21627294921875,-0.2959826588630676,0.6084798574447632,1.6093722581863403
1772790994807305700,2.2363056640625,-0.1684952676296234,0.9838089942932129,1.6145437955856323
1772790994827339000,2.256339111328125,0.03665867820382118,1.264164686203003,1.6482540369033813
1772790994847370800,2.276370849609375,0.22420620918273926,1.4008445739746094,1.6269892454147339
1772790994867403800,2.29640380859375,0.3041524291038513,1.4699269533157349,1.5251606702804565
1772790994887436800,2.316436767578125,0.29015886783599854,1.6322565078735352,1.365843653678894
1772790994907469800,2.3364697265625,0.18468116223812103,1.811460018157959,1.1959052085876465
1772790994927501800,2.356501708984375,-0.04097992181777954,2.0501163005828857,1.0936622619628906
1772790994947534800,2.376534912109375,-0.33018749952316284,2.9054293632507324,1.1809720993041992
1772790994967568000,2.39656787109375,-0.7163844704627991,4.273124694824219,1.4914021492004395
1772790994987601000,2.416600830078125,-1.2898792028427124,4.992342948913574,1.924723744392395
1772790995007632600,2.436632568359375,-1.717911958694458,4.977865695953369,2.1537394523620605
1772790995027666000,2.456666015625,-2.16642427444458,4.185048580169678,2.2202036380767822
1772790995047698700,2.47669873046875,-2.3985087871551514,3.051764965057373,1.9416908025741577
1772790995067732000,2.49673193359375,-2.6024937629699707,2.426215171813965,1.3514807224273682
1772790995087763700,2.516763671875,-2.6591503620147705,2.1865246295928955,0.8646852374076843
1772790995107797000,2.536796875,-2.9610702991485596,2.0678343772888184,0.6184749603271484
1772790995127829800,2.556829833984375,-3.311582565307617,1.4999642372131348,0.6380167007446289
1772790995147862800,2.57686279296875,-3.4468867778778076,0.7268602848052979,0.7214793562889099
1772790995167894800,2.596894775390625,-3.276592969894409,0.2646345794200897,0.7145018577575684
1772790995187927800,2.616927734375,-3.220487594604492,0.6556071639060974,0.7459176182746887
1772790995207960800,2.6369609375,-3.0904338359832764,1.2450419664382935,0.7742395401000977
1772790995227993600,2.65699365234375,-2.9258649349212646,1.0230584144592285,0.6330671906471252
1772790995248025900,2.67702587890625,-2.8570668697357178,0.475274920463562,0.5154417753219604
1772790995268059000,2.697058837890625,-2.6495137214660645,0.08541876077651978,0.3345111310482025
1772790995288092000,2.717091796875,-2.240887403488159,0.33111053705215454,0.04944158345460892
1772790995308124700,2.737124755859375,-2.1079044342041016,0.5170679092407227,-0.08654367923736572
1772790995328157000,2.757156982421875,-2.448709011077881,0.06981316953897476,-0.3263613283634186
1772790995348190000,2.77718994140625,-2.793186664581299,-0.6094604134559631,-0.7927607297897339
1772790995368222700,2.79722265625,-3.004271984100342,-0.894212007522583,-1.1603446006774902
1772790995388255700,2.817255859375,-2.883173704147339,-0.8528826832771301,-1.3509023189544678
1772790995408288300,2.837288330078125,-2.602238178253174,-0.5487539172172546,-1.3109452724456787
1772790995428321300,2.8573212890625,-2.458142042160034,-0.22935836017131805,-1.0226322412490845
1772790995448354300,2.877354248046875,-2.5059635639190674,0.07952145487070084,-0.6905099749565125
1772790995468387300,2.89738720703125,-2.8008923530578613,0.33912694454193115,-0.31178557872772217
1772790995488419300,2.91741943359375,-3.151808738708496,0.5333312749862671,-0.015119831077754498
1772790995508452000,2.9374521484375,-3.378023862838745,0.6621329188346863,0.20453263819217682
1772790995528485400,2.9574853515625,-3.4275074005126953,0.6239442825317383,0.34667566418647766
1772790995548518100,2.97751806640625,-3.3344504833221436,0.45844772458076477,0.44453883171081543
1772790995568550400,2.99755029296875,-3.175156831741333,0.22438357770442963,0.5575567483901978
1772790995588583200,3.017583251953125,-3.0282082557678223,0.06647862493991852,0.6439262628555298
1772790995608616400,3.037616455078125,-2.872523784637451,-0.025598837062716484,0.7013311982154846
1772790995628649200,3.057649169921875,-2.6493425369262695,-0.05578390508890152,0.7082719206809998
1772790995648681200,3.07768115234375,-2.3506081104278564,0.045456163585186005,0.6690102815628052
1772790995668714200,3.09771435546875,-2.0008225440979004,0.20505568385124207,0.6317670345306396
1772790995688747300,3.117747314453125,-1.5288070440292358,0.37628576159477234,0.40675151348114014
1772790995708780300,3.1377802734375,-0.953472375869751,0.5911130905151367,-0.08007512986660004
1772790995728812300,3.157812255859375,-0.6654171347618103,0.6216651797294617,-0.26496535539627075
1772790995748845300,3.17784521484375,-0.5157586932182312,0.6086686849594116,-0.13899196684360504
1772790995768878300,3.19787841796875,-0.29276663064956665,0.6504637598991394,0.036200616508722305
1772790995788911400,3.217911376953125,0.07450326532125473,0.6517285108566284,0.08684781193733215
1772790995808943400,3.237943359375,0.538413941860199,0.5996876955032349,0.11168258637189865
1772790995828976000,3.25797607421875,0.9478722810745239,0.4681999683380127,0.18519195914268494
1772790995849009200,3.278009033203125,1.2008904218673706,0.32156842947006226,0.20051738619804382
1772790995869042200,3.298042236328125,1.327128529548645,0.26133784651756287,0.21423186361789703
1772790995889074400,3.318074462890625,1.3866856098175049,0.2752414345741272,0.23285029828548431
1772790995909107200,3.338107177734375,1.503477692604065,0.4234098494052887,0.2427694946527481
1772790995929140200,3.35814013671875,1.6807118654251099,0.6787212491035461,0.1590154767036438
1772790995949173200,3.37817333984375,1.8713947534561157,1.0078216791152954,0.04043450951576233
1772790995969205200,3.398205322265625,2.0272932052612305,1.2232167720794678,-0.08086315542459488
1772790995989238300,3.41823828125,2.049570083618164,1.340367078781128,-0.13747529685497284
1772790996009271000,3.43827099609375,1.9762217998504639,1.3792681694030762,-0.1198694109916687
1772790996029303300,3.45830322265625,1.8586584329605103,1.408143162727356,-0.1363258808851242
1772790996049336300,3.47833642578125,1.8004024028778076,1.4120264053344727,-0.1547115445137024
1772790996069369300,3.498369384765625,1.8264381885528564,1.3864587545394897,-0.2113889455795288
1772790996089402000,3.518402099609375,1.8964252471923828,1.2979274988174438,-0.2531062960624695
1772790996109434000,3.53843408203125,1.9763909578323364,1.1277650594711304,-0.29838135838508606
1772790996129467100,3.558467041015625,2.0119104385375977,0.8259410858154297,-0.3855266571044922
1772790996149500200,3.578500244140625,1.892222285270691,0.46687051653862,-0.42559152841567993
1772790996169533200,3.598533203125,1.67270827293396,0.14169427752494812,-0.38541266322135925
1772790996189565200,3.618565185546875,1.4242092370986938,-0.07279297709465027,-0.28841209411621094
1772790996209598200,3.63859814453125,1.2035224437713623,-0.17681579291820526,-0.16092737019062042
1772790996229631200,3.65863134765625,1.0521172285079956,-0.20967306196689606,-0.02297908440232277
1772790996249664300,3.678664306640625,0.9445172548294067,-0.19738604128360748,0.05270235985517502
1772790996269696300,3.6986962890625,0.7986260652542114,-0.1656142622232437,0.17018024623394012
1772790996289729300,3.718729248046875,0.6088953018188477,-0.13117000460624695,0.3642812967300415
1772790996309762300,3.73876220703125,0.3628343939781189,-0.09314539283514023,0.5826101303100586
1772790996329795300,3.75879541015625,0.0850088968873024,-0.08202802389860153,0.7085566520690918
1772790996349827300,3.778827392578125,-0.23434539139270782,-0.0352109856903553,0.8046216368675232
1772790996369860000,3.798860107421875,-0.48210325837135315,0.021684788167476654,0.9312485456466675
1772790996389893400,3.818893310546875,-0.6271938681602478,0.12060470879077911,1.0380120277404785
1772790996409926400,3.838926513671875,-0.7153117656707764,0.2446875125169754,1.126661777496338
1772790996429958400,3.85895849609375,-0.7517512440681458,0.33365973830223083,1.1683050394058228
1772790996449991400,3.878991455078125,-0.7511776089668274,0.3437595069408417,1.1288859844207764
1772790996470024400,3.8990244140625,-0.7171424031257629,0.24463185667991638,1.074957251548767
1772790996490057500,3.919057373046875,-0.704731822013855,-0.004318581894040108,0.9847407937049866
1772790996510089500,3.93908935546875,-0.6844608783721924,-0.25026416778564453,0.7698423862457275
1772790996530122500,3.95912255859375,-0.6874489784240723,-0.4734993875026703,0.3597901165485382
1772790996550155500,3.979155517578125,-0.754720151424408,-0.6904886960983276,-0.06544239073991776
1772790996570184400,3.999184326171875,-0.898692786693573,-0.9519213438034058,-0.24602068960666656
1772790996590217500,4.019217529296875,-1.064925193786621,-1.1450551748275757,-0.28593748807907104
1772790996610250500,4.03925048828125,-1.2502435445785522,-1.260264277458191,-0.350199818611145
1772790996630283300,4.059283203125,-1.436219334602356,-1.234484314918518,-0.48952043056488037
1772790996650315500,4.0793154296875,-1.590877652168274,-1.1699855327606201,-0.6048531532287598
1772790996670348300,4.099348388671875,-1.7094985246658325,-1.0484905242919922,-0.5871948003768921
1772790996690381600,4.119381591796875,-1.79934823513031,-0.9128857851028442,-0.41414472460746765
1772790996710414300,4.139414306640625,-1.8431061506271362,-0.7570032477378845,-0.1497865617275238
1772790996730446300,4.1594462890625,-1.8333607912063599,-0.6322517395019531,0.10538367927074432
1772790996750479400,4.179479248046875,-1.754510521888733,-0.5660482048988342,0.29946181178092957
1772790996770512400,4.199512451171875,-1.612830638885498,-0.5464242100715637,0.40861785411834717
1772790996790545400,4.21954541015625,-1.4134447574615479,-0.5342381000518799,0.41566139459609985
1772790996810577400,4.239577392578125,-1.1451411247253418,-0.5082594752311707,0.31508737802505493
1772790996830610400,4.2596103515625,-0.7489951252937317,-0.40722501277923584,0.0804666131734848
1772790996850643500,4.2796435546875,-0.2845366597175598,-0.29310086369514465,-0.22065381705760956
1772790996870676500,4.299676513671875,0.15455122292041779,-0.17804749310016632,-0.5407189130783081
1772790996890708500,4.31970849609375,0.5477126240730286,-0.0916614755988121,-0.9012795090675354
1772790996910741500,4.339741455078125,0.864488959312439,-0.1339455544948578,-1.2232729196548462
1772790996930774500,4.3597744140625,1.0923665761947632,-0.3377157151699066,-1.4498419761657715
1772790996950807600,4.3798076171875,1.2404202222824097,-0.65071702003479,-1.5686156749725342
1772790996970839600,4.399839599609375,1.331025242805481,-1.0117969512939453,-1.5980676412582397
1772790996990873300,4.419873291015625,1.3845545053482056,-1.3175393342971802,-1.524969458580017
1772790997010906400,4.43990625,1.3932137489318848,-1.6314812898635864,-1.383075475692749
1772790997030939400,4.459939453125,1.341867208480835,-1.9050211906433105,-1.2355780601501465
1772790997050971400,4.479971435546875,1.204750418663025,-2.1060678958892822,-1.0736829042434692
1772790997071004400,4.50000439453125,1.0043376684188843,-2.169206380844116,-0.9175876379013062
1772790997091037400,4.520037353515625,0.7647874355316162,-2.084397554397583,-0.781010627746582
1772790997111070500,4.540070556640625,0.47852370142936707,-1.8638743162155151,-0.6441957354545593
1772790997131102500,4.5601025390625,0.1529591828584671,-1.5123939514160156,-0.5380293726921082
1772790997151135500,4.580135498046875,-0.1727438122034073,-1.120993971824646,-0.433620423078537
1772790997171168500,4.60016845703125,-0.5499246716499329,-0.6804491281509399,-0.2368468940258026
1772790997191201500,4.620201416015625,-0.8804786205291748,-0.25551167130470276,-0.10915737599134445
1772790997211233300,4.6402333984375,-1.1635478734970093,0.11320964246988297,-0.0036037894897162914
1772790997231266600,4.6602666015625,-1.3646639585494995,0.4412575662136078,0.14114433526992798
1772790997251299300,4.68029931640625,-1.4450063705444336,0.7265681028366089,0.39997297525405884
1772790997271332600,4.70033251953125,-1.4929982423782349,0.9599329233169556,0.7907431125640869
1772790997291364400,4.7203642578125,-1.5714823007583618,1.141171932220459,1.0699790716171265
1772790997311397600,4.740397705078125,-1.5977054834365845,1.2765090465545654,0.8899192214012146
1772790997331430400,4.760430419921875,-1.653573751449585,1.2690266370773315,0.49632319808006287
1772790997351463700,4.780463623046875,-1.7016310691833496,1.1336504220962524,0.28452733159065247
1772790997371495400,4.800495361328125,-1.6138635873794556,0.8936380743980408,0.2792412340641022
1772790997391528400,4.820528564453125,-1.3319240808486938,0.570913553237915,0.19060936570167542
1772790997411561000,4.84056103515625,-0.8572918176651001,0.19490396976470947,-0.02171941101551056
1772790997431593000,4.860593017578125,-0.23414671421051025,-0.2564123570919037,-0.32622310519218445
1772790997451626000,4.8806259765625,0.31237441301345825,-0.7187373638153076,-0.5680772662162781
1772790997471659000,4.900658935546875,0.6124034523963928,-1.2248541116714478,-0.6961127519607544
1772790997491692000,4.920692138671875,0.7696085572242737,-1.563822865486145,-0.7093598246574402
1772790997511724000,4.94072412109375,0.9116783142089844,-1.6326522827148438,-0.6607126593589783
1772790997531756800,4.9607568359375,1.0540157556533813,-1.3726071119308472,-0.5856949090957642
1772790997551790000,4.9807900390625,1.1514768600463867,-0.865973949432373,-0.4213424324989319
1772790997571822800,5.00082275390625,1.1719826459884644,-0.21797946095466614,-0.1763332188129425
1772790997591855000,5.020855224609375,1.1076065301895142,0.5214999318122864,0.14335262775421143
1772790997611887900,5.040887939453125,0.9568077325820923,1.3443392515182495,0.5391825437545776
1772790997631921200,5.060921142578125,0.7658646702766418,2.2246224880218506,0.9929484128952026
1772790997651954000,5.080953857421875,0.6001327037811279,3.0397443771362305,1.4482600688934326
1772790997671986000,5.10098583984375,0.5439807176589966,3.7316691875457764,1.8359270095825195
1772790997692019000,5.12101904296875,0.5727436542510986,4.295698642730713,2.1480302810668945
1772790997712052000,5.141052001953125,0.7304528951644897,4.662399768829346,2.3258352279663086
1772790997732085000,5.1610849609375,1.0782235860824585,4.827386379241943,2.429696559906006
1772790997752117000,5.181116943359375,1.4461385011672974,4.729851722717285,2.4418745040893555
1772790997772150000,5.20114990234375,1.8711851835250854,4.371434211730957,2.2447237968444824
1772790997792183000,5.22118310546875,2.208606719970703,3.835522413253784,1.8366626501083374
1772790997812216000,5.241216064453125,2.305574893951416,3.0117645263671875,1.2372667789459229
1772790997832248000,5.261248046875,2.157318592071533,1.8273659944534302,0.2637275159358978
1772790997852280800,5.28128076171875,1.9511066675186157,0.41163522005081177,-0.9405422210693359
1772790997872313900,5.30131396484375,1.8052085638046265,-0.9817796349525452,-1.8807778358459473
1772790997892345900,5.321345947265625,1.8959978818893433,-1.957226037979126,-2.5450451374053955
1772790997912379100,5.341379150390625,2.1539814472198486,-2.5948898792266846,-2.933009624481201
1772790997932412000,5.361411865234375,2.459440231323242,-3.0263619422912598,-3.048532724380493
1772790997952445000,5.38144482421875,2.646066188812256,-3.34134840965271,-2.8996376991271973
1772790997972477000,5.401476806640625,2.6628012657165527,-3.479964017868042,-2.533984661102295
1772790997992510000,5.421510009765625,2.6086132526397705,-3.257824420928955,-2.2388510704040527
1772790998012543000,5.44154296875,2.5315074920654297,-2.8786582946777344,-2.2272021770477295
1772790998032575700,5.46157568359375,2.3825836181640625,-2.4691553115844727,-2.2344131469726562
1772790998052608000,5.48160791015625,2.029999256134033,-2.116018772125244,-2.025722026824951
1772790998072640800,5.501640869140625,1.5071403980255127,-1.7239712476730347,-1.6986017227172852
1772790998092674000,5.521674072265625,0.5656466484069824,-1.5416096448898315,-1.01242995262146
1772790998112706800,5.541706787109375,-0.7083103060722351,-1.2583308219909668,0.0412137508392334
1772790998132739000,5.561739013671875,-1.8922499418258667,-0.6868937015533447,1.2029701471328735
1772790998152771800,5.581771728515625,-2.748208999633789,0.055692024528980255,2.1133530139923096
1772790998172805000,5.60180517578125,-3.2608020305633545,0.896454393863678,2.6271274089813232
1772790998192838000,5.621837890625,-3.5318925380706787,1.6877961158752441,2.7958831787109375
1772790998212870000,5.641869873046875,-3.7466952800750732,2.1725146770477295,2.702209234237671
1772790998232903000,5.66190283203125,-3.827322006225586,2.6517579555511475,2.2789974212646484
1772790998252936000,5.68193603515625,-3.846881866455078,3.0273020267486572,1.6831084489822388
1772790998272968000,5.701968017578125,-3.895953893661499,3.214519739151001,1.1243480443954468
1772790998293001000,5.7220009765625,-3.9211552143096924,3.1777024269104004,0.6431986689567566
1772790998313034000,5.742033935546875,-3.815330743789673,2.870128870010376,0.20051951706409454
1772790998333067000,5.76206689453125,-3.503324031829834,2.2449393272399902,-0.26234960556030273
1772790998353098800,5.7820986328125,-2.85854434967041,1.1992336511611938,-0.6858089566230774
1772790998373132000,5.802132080078125,-2.06376576423645,-0.02690538391470909,-0.9988340139389038
1772790998393164800,5.822164794921875,-1.3043127059936523,-1.1599560976028442,-1.1118724346160889
1772790998413198000,5.842197998046875,-0.6037349104881287,-2.12064790725708,-1.0959392786026
1772790998433229800,5.862229736328125,-0.016583504155278206,-2.8807005882263184,-0.9787540435791016
1772790998453263000,5.88226318359375,0.3698320984840393,-3.549678087234497,-0.8164380788803101
1772790998473296000,5.9022958984375,0.5953217148780823,-4.146094799041748,-0.7394745945930481
1772790998493329200,5.9223291015625,0.6083219051361084,-4.66271448135376,-0.6791151165962219
1772790998513361000,5.94236083984375,0.3102492094039917,-5.005545616149902,-0.7036945223808289
1772790998533394200,5.962394287109375,-0.3295312821865082,-5.1192145347595215,-0.9212545156478882
1772790998553427000,5.982427001953125,-1.1290364265441895,-4.924474716186523,-1.357696771621704
1772790998573460200,6.002460205078125,-1.7454378604888916,-4.2706780433654785,-1.7119699716567993
1772790998593492000,6.022491943359375,-2.2808279991149902,-3.048232078552246,-1.7477588653564453
1772790998613525000,6.04252490234375,-2.610257863998413,-1.373666763305664,-1.5790050029754639
1772790998633558000,6.06255810546875,-2.51462459564209,0.5473533868789673,-1.4299720525741577
1772790998653590000,6.082590087890625,-2.052056312561035,2.310669183731079,-1.1944085359573364
1772790998673623000,6.102623046875,-1.6283371448516846,3.7088654041290283,-0.6531996130943298
1772790998693656000,6.122656005859375,-1.264535665512085,4.369801044464111,0.06612628698348999
1772790998713689000,6.142689208984375,-0.903268039226532,4.30794620513916,0.7375962734222412
1772790998733721000,6.16272119140625,-0.39281678199768066,3.5778465270996094,1.1681032180786133
1772790998753753900,6.18275390625,0.34457656741142273,2.3509891033172607,1.17941153049469
1772790998773787100,6.202787109375,1.183298945426941,0.8692280650138855,0.6315739750862122
1772790998793820000,6.22281982421875,1.8659321069717407,-0.42414620518684387,-0.2025754749774933
1772790998813852200,6.24285205078125,2.432767868041992,-1.0045461654663086,-0.7384029626846313
1772790998833885000,6.262885009765625,2.9579527378082275,-0.8356815576553345,-0.7645639777183533
1772790998853918000,6.28291796875,3.376915693283081,-0.16585980355739594,-0.29615870118141174
1772790998873950000,6.302949951171875,3.4853498935699463,0.9318959712982178,0.39694201946258545
1772790998893983000,6.32298291015625,3.235682725906372,1.976410150527954,1.0720940828323364
1772790998914016000,6.34301611328125,2.7099740505218506,2.8620517253875732,1.6107594966888428
1772790998934048800,6.363048828125,2.131815195083618,3.574157953262329,2.024735689163208
1772790998954081000,6.3830810546875,1.6900651454925537,4.137874603271484,2.287889003753662
1772790998974114000,6.403114013671875,1.4385347366333008,4.579580307006836,2.4472169876098633
1772790998994147000,6.42314697265625,1.302856206893921,4.826045513153076,2.5253705978393555
1772790999014179800,6.443179931640625,1.2094287872314453,4.823714256286621,2.429062843322754
1772790999034212000,6.463212158203125,1.1231309175491333,4.447586536407471,2.078950881958008
1772790999054245000,6.4832451171875,1.0597895383834839,3.674511432647705,1.5090352296829224
1772790999074278000,6.50327783203125,1.042003870010376,2.736459732055664,0.7657690644264221
1772790999094311000,6.523310791015625,1.0854333639144897,1.7436892986297607,0.01900351792573929
1772790999114343000,6.543343017578125,1.106551170349121,0.852904736995697,-0.5199435949325562
1772790999134376000,6.5633759765625,1.0733050107955933,0.1690675914287567,-0.8597639799118042
1772790999154409000,6.583408935546875,1.0105516910552979,-0.36189988255500793,-1.1209295988082886
1772790999174441200,6.603441162109375,0.9255635142326355,-0.8040293455123901,-1.3667411804199219
1772790999194474000,6.623473876953125,0.7931026816368103,-1.1094061136245728,-1.6918542385101318
1772790999214507000,6.643507080078125,0.6850912570953369,-1.289099097251892,-2.124091148376465
1772790999234540000,6.6635400390625,0.7044199705123901,-1.3973510265350342,-2.57122540473938
1772790999254572000,6.683572021484375,0.8612942695617676,-1.5196809768676758,-2.903141736984253
1772790999274605000,6.70360498046875,1.0803065299987793,-1.6289381980895996,-3.0430595874786377
1772790999294637800,6.723637939453125,1.4115792512893677,-1.488725185394287,-3.206373929977417
1772790999314671000,6.743671142578125,1.6972200870513916,-1.4364336729049683,-3.372324228286743
1772790999334702800,6.763702880859375,1.7552255392074585,-1.5719614028930664,-3.2584269046783447
1772790999354736000,6.783736083984375,1.3880549669265747,-1.771852731704712,-2.706976890563965
1772790999374769000,6.803768798828125,0.7027163505554199,-1.8221795558929443,-1.7782155275344849
1772790999394802200,6.82380224609375,-0.21755123138427734,-1.7077744007110596,-0.7257761359214783
1772790999414833700,6.843833740234375,-0.9761452078819275,-1.493065595626831,0.21991771459579468
1772790999434866700,6.86386669921875,-1.3588606119155884,-1.2177858352661133,0.9951929450035095
1772790999454899500,6.8838994140625,-1.4719102382659912,-0.9263776540756226,1.6681963205337524
1772790999474931500,6.903931396484375,-1.530827283859253,-0.6299856901168823,2.11173415184021
1772790999494964500,6.923964599609375,-1.6226171255111694,-0.3965345621109009,2.1830785274505615
1772790999514997500,6.94399755859375,-1.9009952545166016,-0.2797895669937134,1.9184027910232544
1772790999535030500,6.964030517578125,-2.441128969192505,-0.10993688553571701,1.3304811716079712
1772790999555062500,6.9840625,-2.9780433177948,0.10554639995098114,0.4968337416648865
1772790999575095600,7.004095458984375,-3.3148083686828613,0.3881229758262634,-0.336300253868103
1772790999595128600,7.024128662109375,-3.4490368366241455,0.5404973030090332,-0.8379313945770264
1772790999615161600,7.04416162109375,-3.3686158657073975,0.5103668570518494,-0.9960461854934692
1772790999635193600,7.064193603515625,-3.1196775436401367,0.16812562942504883,-0.8690952062606812
1772790999655226400,7.084226318359375,-2.761326789855957,-0.2832133173942566,-0.5607344508171082
1772790999675259600,7.104259765625,-2.3194596767425537,-0.5996732711791992,-0.20323380827903748
1772790999695292400,7.12429248046875,-1.8540914058685303,-0.763096034526825,0.13553066551685333
1772790999715324700,7.14432470703125,-1.4140986204147339,-0.9026126861572266,0.3721908628940582
1772790999735357400,7.164357421875,-1.0432515144348145,-1.0475836992263794,0.4816366732120514
1772790999755390700,7.184390625,-0.7750158309936523,-1.2345978021621704,0.40175649523735046
1772790999775422500,7.20442236328125,-0.6446226835250854,-1.4053455591201782,0.16207651793956757
1772790999795455700,7.224455810546875,-0.6367695331573486,-1.592844843864441,-0.19544751942157745
1772790999815488500,7.244488525390625,-0.7417113780975342,-1.7435818910598755,-0.587052583694458
1772790999835521800,7.264521728515625,-0.9472853541374207,-1.8492372035980225,-0.9662273526191711
1772790999855553500,7.284553466796875,-1.1320064067840576,-1.8708328008651733,-1.3467615842819214
1772790999875586600,7.304586669921875,-1.3423346281051636,-1.775671124458313,-1.5231691598892212
1772790999895619600,7.32461962890625,-1.5662691593170166,-1.5316356420516968,-1.518568754196167
1772790999915652600,7.344652587890625,-1.8399169445037842,-1.1519562005996704,-1.3639280796051025
1772790999935684600,7.3646845703125,-2.103250741958618,-0.7278752326965332,-1.1044845581054688
1772790999955717600,7.384717529296875,-2.2646572589874268,-0.2730885148048401,-0.8300178050994873
1772790999975750700,7.404750732421875,-2.098470449447632,0.22514604032039642,-0.6472600102424622
1772790999995782700,7.42478271484375,-1.8037645816802979,0.7153530120849609,-0.3386898934841156
1772791000015815400,7.4448154296875,-1.3768832683563232,1.1722904443740845,0.13710857927799225
1772791000035848700,7.4648486328125,-0.7826074361801147,1.5840116739273071,0.544989287853241
1772791000055881500,7.484881591796875,-0.034033067524433136,1.8569254875183105,0.8502988815307617
1772791000075913700,7.504913818359375,0.8902723789215088,1.7961671352386475,0.9168283343315125
1772791000095946500,7.524946533203125,1.8082098960876465,1.3403983116149902,0.7307295799255371
1772791000115979800,7.544979736328125,2.4780232906341553,0.631812334060669,0.4091891050338745
1772791000136012500,7.565012451171875,2.9617598056793213,-0.14755882322788239,0.03959507867693901
1772791000156044500,7.58504443359375,3.2001583576202393,-0.753223180770874,-0.15300872921943665
1772791000176077600,7.60507763671875,3.195188045501709,-1.0883196592330933,-0.14391961693763733
1772791000196110600,7.625110595703125,3.0777769088745117,-1.0490684509277344,-0.017112407833337784
1772791000216142600,7.645142578125,2.959383726119995,-0.6199511289596558,0.172599196434021
1772791000236175600,7.665175537109375,2.8410181999206543,0.0920415073633194,0.3942277431488037
1772791000256208600,7.685208740234375,2.6758179664611816,0.9736495614051819,0.6764391660690308
1772791000276241700,7.70524169921875,2.525843858718872,1.9001134634017944,1.0823084115982056
1772791000296273400,7.7252734375,2.5202560424804688,2.8118269443511963,1.6657990217208862
1772791000316306700,7.745306640625,2.6886820793151855,3.615570068359375,2.3260674476623535
1772791000336339500,7.76533935546875,2.922818660736084,4.247147560119629,2.743274211883545
1772791000356372500,7.78537255859375,3.0617592334747314,4.644811630249023,2.7359883785247803
1772791000376404500,7.805404541015625,3.0706276893615723,4.5715227127075195,2.3506336212158203
1772791000396437800,7.825437744140625,2.883568286895752,3.9468753337860107,1.8363348245620728
1772791000416471300,7.84547119140625,2.5627052783966064,2.943939685821533,1.2140491008758545
1772791000436503300,7.86550341796875,2.174999952316284,1.7110631465911865,0.3978152871131897
1772791000456536300,7.885536376953125,1.77610182762146,0.4889068305492401,-0.4581878185272217
1772791000476569000,7.905569091796875,1.4482187032699585,-0.5388157963752747,-1.2476710081100464
1772791000496602400,7.925602294921875,1.2752131223678589,-1.3086321353912354,-1.8531233072280884
1772791000516634000,7.945634033203125,1.247580647468567,-1.8298214673995972,-2.1864073276519775
1772791000536667100,7.965667236328125,1.3148393630981445,-2.1640167236328125,-2.2520790100097656
1772791000556699400,7.985699462890625,1.3574947118759155,-2.3074800968170166,-2.061880350112915
1772791000576732200,8.005732177734375,1.3502655029296875,-2.210728883743286,-1.8153376579284668
1772791000596764200,8.02576416015625,1.3417530059814453,-2.0245766639709473,-1.5953927040100098
1772791000616797200,8.045797119140625,1.3267213106155396,-1.8975554704666138,-1.287299633026123
1772791000636830200,8.065830322265626,1.2533658742904663,-1.8212207555770874,-0.8215695023536682
1772791000656862200,8.0858623046875,1.054558277130127,-1.775437831878662,-0.19077341258525848
1772791000676895200,8.105895263671876,0.6452839374542236,-1.619336724281311,0.6414337754249573
1772791000696928300,8.12592822265625,-0.14302879571914673,-1.300684928894043,1.4363058805465698
1772791000716961000,8.1459609375,-1.103224277496338,-0.9246497750282288,1.8667579889297485
1772791000736993300,8.1659931640625,-1.964692234992981,-0.6618538498878479,1.8668700456619263
1772791000757026300,8.1860263671875,-2.541963577270508,-0.4667498767375946,1.6938655376434326
1772791000777059300,8.206059326171875,-2.8819189071655273,-0.23925653100013733,1.435106635093689
1772791000797092000,8.226092041015624,-3.032130479812622,0.031738489866256714,0.926429033279419
1772791000817124000,8.2461240234375,-3.1086363792419434,0.2821163833141327,0.1023828312754631
1772791000837157400,8.266157470703124,-3.218886137008667,0.5144572257995605,-0.9080721735954285
1772791000857190100,8.286190185546875,-3.3383352756500244,0.787457287311554,-1.8704876899719238
1772791000877222400,8.306222412109374,-3.455889940261841,0.984545886516571,-2.5890698432922363
1772791000897255200,8.326255126953125,-3.580779552459717,0.999565839767456,-2.95731258392334
1772791000917288200,8.3462880859375,-3.6617212295532227,0.8446910381317139,-2.89860463142395
1772791000937321200,8.3663212890625,-3.645754337310791,0.5159059762954712,-2.481280565261841
1772791000957353200,8.386353271484374,-3.533379077911377,0.196339413523674,-1.920240879058838
1772791000977388000,8.406387939453126,-3.2134780883789062,-0.1336965411901474,-1.4356073141098022
1772791000997421300,8.42642138671875,-2.584162712097168,-0.7148403525352478,-1.0023126602172852
1772791001017454000,8.4464541015625,-1.8801683187484741,-1.3861253261566162,-0.6310165524482727
1772791001037486300,8.466486328125,-1.2666798830032349,-1.9302791357040405,-0.38659510016441345
1772791001057519000,8.48651904296875,-0.8125245571136475,-2.3629226684570312,-0.37314295768737793
1772791001077552400,8.506552490234375,-0.5037667155265808,-2.6806139945983887,-0.5428800582885742
1772791001097585200,8.526585205078124,-0.3504546880722046,-2.9085278511047363,-0.7812960743904114
1772791001117617200,8.5466171875,-0.33850961923599243,-3.0015838146209717,-1.0570133924484253
1772791001137650200,8.566650146484376,-0.45254644751548767,-3.0090205669403076,-1.3570661544799805
1772791001157683200,8.58668310546875,-0.6904442310333252,-2.917184591293335,-1.6516778469085693
1772791001177716200,8.60671630859375,-1.0690429210662842,-2.753976821899414,-1.8991392850875854
1772791001197748200,8.626748291015625,-1.6382843255996704,-2.5110223293304443,-2.086911678314209
1772791001217781200,8.64678125,-2.306483030319214,-2.091383218765259,-2.2376508712768555
1772791001237814300,8.666814208984375,-2.8262834548950195,-1.4769337177276611,-2.38794207572937
1772791001257846000,8.686845947265626,-3.1556403636932373,-0.7064902782440186,-2.354288339614868
1772791001277879300,8.70687939453125,-3.1904518604278564,0.03379977494478226,-1.9954040050506592
1772791001297912000,8.726912109375,-2.978219509124756,0.5550174117088318,-1.381601333618164
1772791001317945300,8.7469453125,-2.4765701293945312,0.8940511345863342,-0.8275967240333557
1772791001337977000,8.76697705078125,-1.9611603021621704,1.024688720703125,-0.2512631118297577
1772791001358010400,8.78701025390625,-1.5908291339874268,1.0355499982833862,0.5041523575782776
1772791001378043100,8.807043212890624,-1.2916115522384644,1.008384346961975,0.9975112080574036
1772791001398076400,8.827076416015625,-0.6964507102966309,0.6871525645256042,1.1470905542373657
1772791001418108000,8.84710791015625,0.34123268723487854,-0.011492072604596615,0.9693256616592407
1772791001438141000,8.867140869140625,1.5049291849136353,-0.8574875593185425,0.5582547783851624
1772791001458174000,8.887174072265625,2.3595950603485107,-1.645886778831482,0.26818403601646423
1772791001478206000,8.9072060546875,2.8504416942596436,-2.1339271068573,0.29083824157714844
1772791001498239000,8.927239013671874,3.0241310596466064,-2.283569812774658,0.5077694654464722
1772791001518272000,8.94727197265625,3.036794424057007,-2.0730948448181152,0.7906355261802673
1772791001538305000,8.967304931640625,2.857264757156372,-1.4419512748718262,1.1578902006149292
1772791001558337000,8.9873369140625,2.6163995265960693,-0.4836564064025879,1.4189153909683228
1772791001578369800,9.007369873046875,2.417811870574951,0.6501745581626892,1.5523360967636108
1772791001598403000,9.027403076171876,2.2408676147460938,1.8535404205322266,1.6566483974456787
1772791001618435800,9.047435791015625,2.1102519035339355,2.9099862575531006,1.806208610534668
1772791001638468000,9.067468017578125,2.1330604553222656,3.7089195251464844,2.1484203338623047
1772791001658500900,9.0875009765625,2.39699125289917,4.405710697174072,2.638024091720581
1772791001678534100,9.1075341796875,2.9411990642547607,4.979130268096924,3.100656270980835
1772791001698566000,9.12756591796875,3.513601303100586,5.403878688812256,3.282806634902954
1772791001718599000,9.147598876953126,3.6721694469451904,5.505072116851807,3.004404067993164
1772791001738632000,9.1676318359375,3.3158609867095947,5.021315574645996,2.3537938594818115
1772791001758665000,9.1876650390625,2.703474998474121,3.788461685180664,1.3447927236557007
1772791001778697000,9.207697021484375,2.123823642730713,2.0349035263061523,0.14767707884311676
1772791001798730000,9.22772998046875,1.7829437255859375,0.28048837184906006,-0.9564905166625977
1772791001818763000,9.247762939453125,1.6751954555511475,-1.0440267324447632,-1.7377879619598389
1772791001838795800,9.267795654296876,1.704382300376892,-1.897650122642517,-2.1658692359924316
1772791001858828000,9.287828125,1.7497191429138184,-2.3835768699645996,-2.2562735080718994
1772791001878861000,9.307861083984376,1.6840864419937134,-2.575748920440674,-2.1369822025299072
1772791001898894000,9.32789404296875,1.5153487920761108,-2.5712764263153076,-1.9407490491867065
1772791001918926000,9.347926025390626,1.2859432697296143,-2.3676774501800537,-1.729880452156067
1772791001938958800,9.367958740234375,1.0624667406082153,-2.015648126602173,-1.5130521059036255
1772791001958992100,9.3879921875,0.9000328779220581,-1.5471165180206299,-1.2475937604904175
1772791001979025000,9.40802490234375,0.7932661771774292,-1.0226248502731323,-0.9055227041244507
1772791001999057200,9.42805712890625,0.7121822834014893,-0.5079050064086914,-0.454245001077652
1772791002019090000,9.44808984375,0.6161273717880249,-0.0403631366789341,0.05890486016869545
1772791002039123000,9.468123046875,0.5293453335762024,0.36990347504615784,0.31432971358299255
1772791002059156000,9.488156005859375,0.2921200096607208,0.5344876646995544,0.20146174728870392
1772791002079188000,9.50818798828125,-0.22174571454524994,0.4148366153240204,0.03129001334309578
1772791002099221000,9.528220947265625,-0.9131457209587097,0.19719749689102173,-0.14819000661373138
1772791002119253800,9.548253662109374,-1.7232074737548828,-0.1420154571533203,-0.40179696679115295
1772791002139286000,9.5682861328125,-2.644286632537842,-0.5279091000556946,-0.6691974997520447
1772791002159319000,9.588319091796874,-3.4958078861236572,-0.8219231367111206,-0.8847380876541138
1772791002179352000,9.60835205078125,-4.136741638183594,-0.9341327548027039,-1.0278384685516357
1772791002199384800,9.628384765625,-4.544321537017822,-0.8300857543945312,-1.0306528806686401
1772791002219416800,9.648416748046875,-4.775683879852295,-0.531090259552002,-0.9434559941291809
1772791002239449900,9.668449951171874,-4.821533679962158,-0.10910198837518692,-0.7588080763816833
1772791002259483000,9.68848291015625,-4.700773239135742,0.39279574155807495,-0.36575719714164734
1772791002279515100,9.70851513671875,-4.493532657623291,1.001936912536621,0.32004404067993164
1772791002299548000,9.7285478515625,-4.1830644607543945,1.7160909175872803,1.1317803859710693
1772791002319581000,9.748580810546875,-3.655036211013794,2.3517041206359863,1.754653811454773
1772791002339614000,9.768614013671876,-2.854154109954834,2.5012717247009277,2.007654905319214
1772791002359646000,9.78864599609375,-1.8731138706207275,1.9448362588882446,1.7790815830230713
1772791002379679000,9.808678955078125,-0.9292120337486267,0.8677375316619873,1.048135757446289
1772791002399711700,9.828711669921875,-0.1863240748643875,-0.4995288550853729,0.013307549990713596
1772791002419745000,9.8487451171875,0.25844672322273254,-1.7747238874435425,-0.9924986362457275
1772791002439777000,9.868777099609375,0.45122045278549194,-2.968912363052368,-1.7489455938339233
1772791002459809800,9.888809814453126,0.3948919177055359,-4.0210700035095215,-2.180032253265381
1772791002479842800,9.9088427734375,0.09818648546934128,-4.783169746398926,-2.292480230331421
1772791002499874800,9.928874755859376,-0.3367215692996979,-5.061034202575684,-2.194410800933838
1772791002519907800,9.948907958984375,-0.7401334643363953,-4.8428144454956055,-1.9929898977279663
1772791002539940900,9.96894091796875,-0.9797157049179077,-4.219274997711182,-1.7714804410934448
1772791002559974000,9.988973876953125,-1.0479676723480225,-3.265993595123291,-1.615991473197937
1772791002580006000,10.009005859375,-1.0968843698501587,-2.126138210296631,-1.4544163942337036
1772791002600038700,10.02903857421875,-1.221617341041565,-0.8883381485939026,-1.1392238140106201
1772791002620072000,10.049072021484376,-1.3695460557937622,0.25859880447387695,-0.7349573373794556
1772791002640104000,10.06910400390625,-1.509735107421875,1.1889762878417969,-0.22022344172000885
1772791002660137000,10.089136962890626,-1.5932137966156006,1.9452208280563354,0.30555006861686707
1772791002680169700,10.109169677734375,-1.5228980779647827,2.4602012634277344,0.7780145406723022
1772791002700203000,10.129203125,-1.3017560243606567,2.587533950805664,1.2732837200164795
1772791002720234800,10.14923486328125,-0.9324539303779602,2.324943780899048,1.694909691810608
1772791002740267800,10.169267822265626,-0.3817465603351593,1.870012879371643,1.7564224004745483
1772791002760300800,10.18930078125,0.16387122869491577,1.4627829790115356,1.486710786819458
1772791002780333800,10.209333740234374,0.5459221601486206,1.2648049592971802,1.060829520225525
1772791002800365800,10.22936572265625,0.8209449648857117,1.181442379951477,0.6192107796669006
1772791002820398800,10.24939892578125,1.167468547821045,1.1044946908950806,0.14870984852313995
1772791002840431900,10.269431884765625,1.5881931781768799,0.9263057708740234,-0.2799810469150543
1772791002860463900,10.2894638671875,2.0159554481506348,0.6272455453872681,-0.553433895111084
1772791002880497000,10.309496826171875,2.378086566925049,0.2781123220920563,-0.6490355134010315
1772791002900530000,10.329530029296874,2.6083624362945557,-0.04609346017241478,-0.5843185782432556
1772791002920563000,10.34956298828125,2.732510805130005,-0.16640788316726685,-0.36300429701805115
1772791002940595000,10.369594970703124,2.8438682556152344,-0.04469902813434601,-0.07513709366321564
1772791002960627700,10.389627685546875,2.97507905960083,0.3069319725036621,0.202671617269516
1772791002980661000,10.409660888671874,3.051215410232544,0.7790960669517517,0.49235057830810547
1772791003000692700,10.429692626953125,2.965301990509033,1.378090739250183,0.8215585350990295
1772791003020726000,10.44972607421875,2.7804346084594727,2.0802907943725586,1.1817511320114136
1772791003040758800,10.4697587890625,2.6583712100982666,2.951274871826172,1.4805718660354614
1772791003060792000,10.4897919921875,2.5585825443267822,3.908088207244873,1.870927095413208
1772791003080823800,10.50982373046875,2.3880600929260254,4.77589750289917,2.3137905597686768
1772791003100856800,10.52985693359375,2.2646026611328125,5.3542022705078125,2.6076138019561768
1772791003120889900,10.549889892578125,2.160243511199951,5.455943584442139,2.5803074836730957
1772791003140921900,10.569921875,2.0066592693328857,5.019547462463379,2.2505319118499756
1772791003160955000,10.589954833984375,1.8578834533691406,4.170452117919922,1.6657031774520874
1772791003180988000,10.60998779296875,1.7811686992645264,3.0906789302825928,0.9489465951919556
1772791003201021000,10.63002099609375,1.7688878774642944,1.9164596796035767,0.13993526995182037
1772791003221053000,10.650052978515625,1.7266101837158203,0.8004985451698303,-0.6759036183357239
1772791003241085700,10.670085693359376,1.5787492990493774,-0.22601422667503357,-1.4086953401565552
1772791003261119000,10.690118896484375,1.4050648212432861,-1.1168363094329834,-2.028409719467163
1772791003281151700,10.71015185546875,1.2316688299179077,-1.9012296199798584,-2.392981767654419
1772791003301184000,10.73018408203125,1.069642424583435,-2.5271055698394775,-2.5775508880615234
1772791003321216800,10.750216796875,0.9173426032066345,-2.9290771484375,-2.5895185470581055
1772791003341250000,10.77025,0.8073865175247192,-3.12918758392334,-2.3986763954162598
1772791003361281800,10.79028173828125,0.7255457639694214,-3.089841604232788,-2.094177722930908
1772791003381314800,10.810314697265625,0.6736249923706055,-2.846970558166504,-1.8569189310073853
1772791003401347800,10.830347900390626,0.6781124472618103,-2.540841579437256,-1.688303828239441
1772791003421381000,10.850381103515625,0.6287766098976135,-2.2842166423797607,-1.3920692205429077
1772791003441413400,10.870413330078126,0.4900312125682831,-2.037235736846924,-0.9498339891433716
1772791003461446400,10.8904462890625,0.16022323071956635,-1.7162680625915527,-0.3351875841617584
1772791003481479400,10.9104794921875,-0.40552833676338196,-1.203407883644104,0.4041338860988617
1772791003501511400,10.930511474609375,-1.1823111772537231,-0.6283566355705261,1.13906991481781
1772791003521544200,10.950544189453124,-1.969017744064331,-0.1254577934741974,1.7124154567718506
1772791003541577200,10.9705771484375,-2.583270311355591,0.2147807478904724,2.0879151821136475
1772791003561610200,10.9906103515625,-3.017578125,0.3003225326538086,2.5243020057678223
1772791003581642500,11.010642578125,-3.4112558364868164,0.19056302309036255,2.8662948608398438
1772791003601675300,11.03067529296875,-3.7789013385772705,-0.09477870911359787,2.761349678039551
1772791003621708300,11.050708251953125,-4.11851692199707,-0.42289987206459045,2.0959181785583496
1772791003641741300,11.0707412109375,-4.335380554199219,-0.46888813376426697,0.7688455581665039
1772791003661773600,11.090773681640625,-4.316035747528076,-0.028205005452036858,-0.8565990924835205
1772791003681806300,11.110806396484374,-4.13994836807251,0.4844985008239746,-2.0110859870910645
1772791003701839400,11.13083935546875,-3.8345491886138916,0.8306705355644226,-2.5135295391082764
1772791003721871400,11.150871337890624,-3.526198625564575,0.8306079506874084,-2.38183331489563
1772791003741904400,11.170904296875,-3.2747554779052734,0.6011998057365417,-1.7832963466644287
1772791003761937400,11.1909375,-2.79681396484375,0.29532405734062195,-1.168672800064087
1772791003781970200,11.21097021484375,-1.8632230758666992,-0.4533155560493469,-0.6590002775192261
1772791003802002400,11.23100244140625,-0.7131516337394714,-1.402605414390564,-0.35851767659187317
1772791003822035200,11.25103515625,0.23741415143013,-2.257847309112549,-0.24996162950992584
1772791003842068500,11.271068359375,0.9420948028564453,-3.0256197452545166,-0.3997468650341034
1772791003862100500,11.2911005859375,1.4189351797103882,-3.6383883953094482,-0.6772690415382385
1772791003882133200,11.31113330078125,1.6545718908309937,-4.006248950958252,-1.0058034658432007
1772791003902166300,11.331166259765626,1.69130277633667,-4.111933708190918,-1.397948145866394
1772791003922199300,11.35119921875,1.5728600025177002,-4.031324863433838,-1.8942097425460815
1772791003942231300,11.371231201171875,1.3689063787460327,-3.779392957687378,-2.3868720531463623
1772791003962264300,11.391264404296875,1.1342051029205322,-3.405705690383911,-2.7845723628997803
1772791003982297300,11.41129736328125,0.9186837673187256,-2.942643404006958,-3.069392204284668
1772791004002330400,11.431330322265625,0.7259358763694763,-2.359128952026367,-3.2455759048461914
1772791004022362000,11.451362060546876,0.5061212182044983,-1.7051544189453125,-3.352480888366699
1772791004042395400,11.4713955078125,0.2151743620634079,-1.0302971601486206,-3.3255834579467773
1772791004062428200,11.49142822265625,-0.25756576657295227,-0.3847077190876007,-2.97711443901062
1772791004082460400,11.51146044921875,-0.8297491073608398,0.27194443345069885,-2.315528154373169
1772791004102493200,11.5314931640625,-1.523936152458191,0.9521424174308777,-1.4819321632385254
1772791004122526500,11.5515263671875,-2.1689436435699463,1.651627540588379,-0.6872833371162415
1772791004161340200,11.590340087890626,-2.563119411468506,2.144772529602051,0.3434061110019684
1772791004181373400,11.61037353515625,-2.198122024536133,1.7886545658111572,0.5066940784454346
1772791004201406200,11.63040625,-1.8098483085632324,1.416724681854248,0.4916059374809265
1772791004221438500,11.6504384765625,-1.5020371675491333,1.3645094633102417,-0.012089420109987259
1772791004241471200,11.67047119140625,-0.9161958694458008,1.4563994407653809,-1.093954086303711
1772791004261504500,11.69050439453125,-0.08729282766580582,0.7543771266937256,-2.0329997539520264
1772791004281537300,11.710537353515624,0.3657441735267639,-0.790435254573822,-2.5304603576660156
1772791004301569300,11.7305693359375,0.7186098098754883,-1.9561046361923218,-2.419818639755249
1772791004321602300,11.750602294921874,1.08540940284729,-1.762578010559082,-1.4197524785995483
1772791004341635300,11.77063525390625,1.4730186462402344,-0.7156878113746643,-0.21299056708812714
1772791004361668400,11.79066845703125,1.8125135898590088,0.23759683966636658,0.4521610736846924
1772791004381700400,11.810700439453125,2.014390707015991,0.536545991897583,0.6879661679267883
1772791004401733400,11.8307333984375,2.127415657043457,0.2522663474082947,0.8453952074050903
1772791004421765600,11.850765625,2.1622507572174072,-0.171400249004364,1.0548045635223389
1772791004441797600,11.870797607421874,1.9399948120117188,-0.2093082219362259,1.207977056503296
1772791004461830700,11.89083056640625,1.5999150276184082,-0.04754328355193138,1.2909702062606812
1772791004481863700,11.91086376953125,1.2103923559188843,0.3091844916343689,1.2443865537643433
1772791004501896700,11.930896728515625,0.9732090830802917,0.47944915294647217,0.9797993302345276
1772791004521928400,11.950928466796874,0.7811967730522156,0.4084082543849945,0.5837097764015198
1772791004541961700,11.970961669921875,0.5592864751815796,0.179973766207695,0.07625429332256317
1772791004561991700,11.99099169921875,0.4475407600402832,-0.2243873029947281,-0.5324140787124634
1772791004582023700,12.011023681640625,0.4899667799472809,-0.620979368686676,-1.0480436086654663
1772791004602056400,12.031056396484376,0.7225353121757507,-0.9593481421470642,-1.356662392616272
1772791004622089700,12.05108984375,1.0785123109817505,-1.2555416822433472,-1.398394227027893
1772791004642121500,12.07112158203125,1.4552830457687378,-1.481701374053955,-1.219023585319519
1772791004662154800,12.09115478515625,1.7494821548461914,-1.644739031791687,-0.8880822062492371
1772791004682187500,12.1111875,1.9520422220230103,-1.7095707654953003,-0.5451794266700745
1772791004702220800,12.131220703125,2.065068006515503,-1.666796088218689,-0.20524077117443085
1772791004722252500,12.15125244140625,2.098201036453247,-1.5339112281799316,0.10840263962745667
1772791004742285800,12.171285888671875,2.0360264778137207,-1.3209161758422852,0.4940544664859772
1772791004762318600,12.191318603515626,1.908738374710083,-0.950329601764679,0.8301248550415039
1772791004782351600,12.2113515625,1.7473630905151367,-0.4688548445701599,1.0752334594726562
1772791004802383600,12.231383544921876,1.564289927482605,0.07983198016881943,1.215133547782898
1772791004822416600,12.251416748046875,1.2427209615707397,0.6883254051208496,1.3023267984390259
1772791004842449700,12.27144970703125,0.7798513174057007,1.183603286743164,1.3111774921417236
1772791004862481700,12.291481689453125,0.11969417333602905,1.5953171253204346,1.3656729459762573
1772791004882514700,12.3115146484375,-0.7354732155799866,1.911339282989502,1.3291301727294922
1772791004902547700,12.331547607421875,-1.4943026304244995,1.7518845796585083,1.2257797718048096
1772791004922580700,12.351580810546874,-2.019474983215332,1.3393840789794922,0.9788344502449036
1772791004942612700,12.37161279296875,-2.3116486072540283,0.76629239320755,0.4190337359905243
1772791004962645500,12.3916455078125,-2.4497804641723633,-0.040040627121925354,-0.4180680811405182
1772791004982679600,12.411679443359375,-2.7128565311431885,-0.8017784357070923,-1.1878383159637451
1772791005002711600,12.431711669921874,-3.0498361587524414,-1.3955224752426147,-1.7054129838943481
1772791005022744600,12.45174462890625,-3.4739158153533936,-1.6531870365142822,-1.7908434867858887
1772791005042777600,12.471777587890625,-3.7518434524536133,-1.533576488494873,-1.623911738395691
1772791005062810600,12.491810546875,-3.7946970462799072,-1.1460977792739868,-1.6415834426879883
1772791005082842600,12.511842529296874,-3.8322064876556396,-0.6170011758804321,-1.5399012565612793
1772791005102875600,12.531875732421875,-3.8177154064178467,-0.08530957251787186,-1.1126383543014526
1772791005122908700,12.55190869140625,-3.7692410945892334,0.3616410195827484,-0.49838051199913025
1772791005142941700,12.571941650390626,-3.7132585048675537,0.6225922107696533,-0.11991841346025467
1772791005162973700,12.5919736328125,-3.564324140548706,0.6189503073692322,0.006442719139158726
1772791005183006500,12.61200634765625,-3.2563092708587646,0.26663780212402344,-0.019781161099672318
1772791005203039700,12.632039794921875,-2.8816113471984863,-0.2402043491601944,-0.15470223128795624
1772791005223071500,12.652071533203125,-2.5385618209838867,-0.7378974556922913,-0.3076704740524292
1772791005243104800,12.672104736328125,-2.215200901031494,-1.1681727170944214,-0.4507155120372772
1772791005263137500,12.692137451171876,-1.897753119468689,-1.4484338760375977,-0.5319568514823914
1772791005283170800,12.7121708984375,-1.4978454113006592,-1.564353585243225,-0.6208385229110718
1772791005303202600,12.73220263671875,-1.0061979293823242,-1.4887597560882568,-0.7181709408760071
1772791005323235600,12.752235595703125,-0.5037071108818054,-1.2679027318954468,-0.7302595376968384
1772791005343268600,12.7722685546875,-0.02298387885093689,-1.0132023096084595,-0.6502208709716797
1772791005363300600,12.792300537109375,0.3062315583229065,-0.7876865863800049,-0.5478604435920715
1772791005383333600,12.812333740234376,0.3093802332878113,-0.6541301608085632,-0.41111430525779724
1772791005403366700,12.83236669921875,0.13035161793231964,-0.7161929607391357,-0.25890159606933594
1772791005423400000,12.85239990234375,-0.031002923846244812,-0.9667021632194519,-0.11086446791887283
1772791005443432000,12.872431884765625,-0.1244998499751091,-1.2990798950195312,0.0960216075181961
1772791005463465000,12.89246484375,-0.13328509032726288,-1.7059413194656372,0.31412598490715027
1772791005483498000,12.912498046875,-0.11565602570772171,-2.010812282562256,0.4949847161769867
1772791005503531000,12.932531005859374,-0.08315667510032654,-2.177825689315796,0.5749083161354065
1772791005523563000,12.95256298828125,-0.058697134256362915,-2.128727674484253,0.6283352971076965
1772791005543595800,12.972595703125,-0.11236222833395004,-1.8473587036132812,0.8036512136459351
1772791005563628800,12.99262890625,-0.2007879614830017,-1.3087286949157715,1.027280569076538
1772791005583660800,13.012660888671874,-0.20871353149414062,-0.6953867673873901,1.1732406616210938
1772791005603694000,13.032694091796875,-0.11364880204200745,-0.11623579263687134,1.1935694217681885
1772791005623726800,13.052726806640624,0.015323562547564507,0.357668399810791,1.1399648189544678
1772791005643759900,13.072759765625,0.19905318319797516,0.6271722912788391,0.8761435151100159
1772791005663791900,13.0927919921875,0.2866632044315338,0.7470041513442993,0.39609673619270325
1772791005683825000,13.112824951171875,0.24992594122886658,0.6633300185203552,-0.18444333970546722
1772791005703858000,13.13285791015625,0.12291020900011063,0.5147128701210022,-0.6228939294815063
1772791005723890000,13.152889892578125,-0.04459676146507263,0.3678874671459198,-0.8210262060165405
1772791005743923000,13.1729228515625,-0.18225902318954468,0.2610425055027008,-0.8870882987976074
1772791005763955700,13.192955810546875,-0.24472932517528534,0.14022928476333618,-0.9039263725280762
1772791005783989000,13.212989013671875,-0.24382145702838898,0.007228085305541754,-0.9033623337745667
1772791005804021000,13.23302099609375,-0.15561755001544952,-0.15184839069843292,-0.9117246866226196
1772791005824053800,13.2530537109375,-0.043124035000801086,-0.32245421409606934,-0.9106277227401733
1772791005844086800,13.273086669921875,0.06562774628400803,-0.48908206820487976,-0.8740627765655518
1772791005864118800,13.293118896484375,0.1968717873096466,-0.5776023268699646,-0.8600529432296753
1772791005884151800,13.31315185546875,0.5102344751358032,-0.502692699432373,-1.0536402463912964
1772791005904184800,13.333184814453125,0.6961058378219604,-0.4685496389865875,-1.1106241941452026
1772791005924217900,13.3532177734375,0.7152044177055359,-0.4222377836704254,-0.7089904546737671
1772791005944249900,13.373249755859375,0.7619788646697998,-0.44034382700920105,-0.07238897681236267
1772791005964283000,13.393282958984376,0.7538599371910095,-0.4086724519729614,0.474531352519989
1772791005984316000,13.41331591796875,0.8385021090507507,-0.4393256902694702,0.8514922261238098
1772791006004348000,13.433347900390626,1.0360695123672485,-0.49866679310798645,1.1462258100509644
1772791006024381000,13.453380859375,1.319732904434204,-0.44489598274230957,1.4581589698791504
1772791006044413700,13.47341357421875,1.6851948499679565,-0.16835252940654755,1.810780644416809
1772791006064447000,13.493447021484375,2.1172826290130615,0.38197773694992065,2.208704710006714
1772791006084479000,13.51347900390625,2.4504663944244385,1.139817714691162,2.698629856109619
1772791006104512000,13.533511962890625,2.4324569702148438,2.0706253051757812,3.2881999015808105
1772791006124544800,13.553544677734376,2.010301351547241,2.938408374786377,3.7680985927581787
1772791006144576800,13.57357666015625,1.513410210609436,3.4993038177490234,3.854327917098999
1772791006164609800,13.59360986328125,1.2786376476287842,3.7285969257354736,3.6929612159729004
1772791006184642800,13.613642822265625,1.4239685535430908,3.4919769763946533,3.141288995742798
1772791006204675800,13.63367578125,1.7895944118499756,2.7467429637908936,2.001447916030884
1772791006224707800,13.653707763671875,2.2653815746307373,1.5634115934371948,0.5880888104438782
1772791006244740900,13.673740966796874,2.7300336360931396,0.11258140206336975,-0.5705689191818237
1772791006264774000,13.69377392578125,3.145339250564575,-1.1650406122207642,-1.2592307329177856
1772791006284806000,13.713805908203126,3.412870407104492,-1.9141103029251099,-1.5641107559204102
1772791006304839000,13.7338388671875,3.4881608486175537,-2.1050381660461426,-1.597466230392456
1772791006324871700,13.75387158203125,3.4016008377075195,-1.9073618650436401,-1.4700156450271606
1772791006344905000,13.773905029296875,3.1886720657348633,-1.4590871334075928,-1.2098647356033325
1772791006364936700,13.793936767578124,2.8845088481903076,-0.8080970644950867,-0.8205915689468384
1772791006384970000,13.813969970703125,2.563530445098877,-0.15553952753543854,-0.38024720549583435
1772791006405002800,13.834002685546874,2.283034086227417,0.33238300681114197,0.013491307385265827
1772791006425036500,13.85403662109375,1.9449461698532104,0.6248377561569214,0.27698925137519836
1772791006445068300,13.874068359375,1.4873727560043335,0.694729745388031,0.4248887002468109
1772791006465101600,13.8941015625,0.9513136148452759,0.5921759605407715,0.44156941771507263
1772791006485134300,13.91413427734375,0.38091617822647095,0.37209898233413696,0.3399927318096161
1772791006505166600,13.93416650390625,-0.19087648391723633,0.17622563242912292,0.20544449985027313
1772791006525199400,13.954199462890625,-0.7727992534637451,0.13684865832328796,-0.00989470910280943
1772791006545232600,13.974232666015626,-1.2930728197097778,0.24862898886203766,-0.4403776526451111
1772791006565265400,13.994265380859375,-1.820030927658081,0.363203227519989,-0.9806898832321167
1772791006585297400,14.01429736328125,-2.359968662261963,0.39876362681388855,-1.4676786661148071
1772791006605330400,14.034330322265625,-2.714083194732666,0.5546261668205261,-1.9894417524337769
1772791006625363500,14.054363525390626,-2.8657522201538086,0.8164053559303284,-2.6355597972869873
1772791006645395500,14.0743955078125,-2.9419620037078857,0.8963555693626404,-3.4606220722198486
1772791006665428500,14.094428466796876,-3.405465602874756,0.8095802068710327,-3.910069704055786
1772791006685461500,14.11446142578125,-4.125444412231445,0.8896111249923706,-3.56021785736084
1772791006705494500,14.13449462890625,-5.120128631591797,1.0651369094848633,-2.5892770290374756
1772791006725526500,14.154526611328125,-6.1858110427856445,1.2255808115005493,-1.306061863899231
1772791006745559600,14.1745595703125,-6.884647369384766,1.2494810819625854,-0.05845052748918533
1772791006765592300,14.19459228515625,-6.744076251983643,0.91453617811203,0.7868410348892212
1772791006785624600,14.21462451171875,-5.446017265319824,0.8063388466835022,0.872551679611206
1772791006805657300,14.2346572265625,-3.452157735824585,1.1177539825439453,0.1055714339017868
1772791006825690600,14.254690673828126,-2.1417510509490967,1.240325689315796,-0.9751960635185242
1772791006845722400,14.274722412109375,-1.1409882307052612,0.7623876333236694,-1.6736806631088257
1772791006865755600,14.294755615234376,-0.1892508864402771,0.05999596044421196,-1.9235674142837524
1772791006885788400,14.314788330078125,0.4372710883617401,-0.24899597465991974,-1.879428505897522
1772791006905821400,14.334821533203124,0.658711314201355,-0.3811710476875305,-1.5388426780700684
1772791006925853400,14.354853515625,0.6638789176940918,-0.7016577124595642,-1.0939229726791382
1772791006945886500,14.374886474609376,0.6059154868125916,-1.2405710220336914,-0.6468613147735596
1772791006965919500,14.39491943359375,0.4420008361339569,-1.7496984004974365,-0.20957240462303162
1772791006985952300,14.4149521484375,0.08604300767183304,-2.1487338542938232,0.24543851613998413
1772791007005984500,14.434984619140625,-0.40475282073020935,-2.427525043487549,0.5256073474884033
1772791007026017500,14.455017578125,-0.9559352993965149,-2.700497627258301,0.6034501791000366
1772791007046050600,14.475050537109375,-1.4511332511901855,-3.0162649154663086,0.5936058163642883
1772791007066082600,14.49508251953125,-1.7790608406066895,-3.2791881561279297,0.5610483884811401
1772791007086115300,14.515115234375,-1.96200430393219,-3.3078010082244873,0.5348761677742004
1772791007106148600,14.535148681640624,-2.039047956466675,-3.051150321960449,0.5481802821159363
1772791007126181400,14.555181396484375,-1.9868409633636475,-2.5301361083984375,0.633307695388794
1772791007146213600,14.575213623046874,-1.8487824201583862,-1.7475497722625732,0.8772782683372498
1772791007166246400,14.595246337890625,-1.6250137090682983,-0.6261701583862305,1.3805222511291504
1772791007186279400,14.615279541015624,-1.4114521741867065,0.6859275102615356,2.1240556240081787
1772791007206311400,14.6353115234375,-1.1877282857894897,2.0074119567871094,2.925713062286377
1772791007226344400,14.655344482421874,-0.798959493637085,2.9454004764556885,3.2572827339172363
1772791007246377500,14.67537744140625,-0.30301767587661743,3.377919912338257,3.106154203414917
1772791007266410200,14.69541015625,0.08778497576713562,3.063405752182007,2.5934064388275146
1772791007286442500,14.7154423828125,0.28138986229896545,2.0478951930999756,1.7232553958892822
1772791007306475500,14.7354755859375,0.2969440519809723,0.6529104113578796,0.6749366521835327
1772791007326508500,14.755508544921875,0.21510139107704163,-0.670963704586029,-0.3162493109703064
1772791007346540500,14.77554052734375,0.12143614888191223,-1.5575976371765137,-1.0621000528335571
1772791007366573600,14.795573486328125,0.11259578913450241,-2.0716543197631836,-1.4824179410934448
1772791007386606300,14.8156064453125,0.22614285349845886,-2.3166472911834717,-1.6249698400497437
1772791007406639400,14.835639404296876,0.4727502465248108,-2.259864091873169,-1.5635855197906494
1772791007426670600,14.855670654296874,0.8142617344856262,-1.9378867149353027,-1.4431928396224976
1772791007446703600,14.87570361328125,0.9796757698059082,-1.3098526000976562,-1.0234333276748657
1772791007466736600,14.895736572265625,0.9335055947303772,-0.37518665194511414,-0.442776620388031
1772791007486768400,14.915768310546875,0.7013860940933228,0.6960360407829285,0.12144014239311218
1772791007506801700,14.9358017578125,0.31419655680656433,1.6118968725204468,0.4784616529941559
1772791007526834400,14.95583447265625,0.11210630089044571,2.120150566101074,0.5775418877601624
1772791007546867700,14.97586767578125,0.2513169050216675,2.2505009174346924,0.5178428888320923
1772791007566899500,14.9958994140625,0.6955987811088562,2.050597906112671,0.42064762115478516
1772791007586932700,15.0159326171875,1.3394829034805298,1.7452021837234497,0.3658413589000702
1772791007606965500,15.035965576171876,2.01279616355896,1.5280001163482666,0.30952855944633484
1772791007626997500,15.05599755859375,2.5736005306243896,1.46596097946167,0.2636769115924835
1772791007647030500,15.076030517578126,2.942131996154785,1.4670480489730835,0.20521040260791779
1772791007667063600,15.0960634765625,3.1348114013671875,1.4803662300109863,0.1264791190624237
1772791007687096600,15.1160966796875,3.1167502403259277,1.4541016817092896,0.09103323519229889
1772791007707128600,15.136128662109375,2.9482176303863525,1.4158437252044678,0.0917791873216629
1772791007727161600,15.15616162109375,2.672959804534912,1.3657795190811157,0.16612745821475983
1772791007747194600,15.176194580078125,2.294064521789551,1.3352452516555786,0.3192155361175537
1772791007767226600,15.1962265625,1.9346909523010254,1.232154369354248,0.4554769694805145
1772791007787259600,15.216259765625,1.669783592224121,0.9681461453437805,0.5938625335693359
1772791007807292400,15.23629248046875,1.4726604223251343,0.6722188591957092,0.7758608460426331
1772791007827325700,15.25632568359375,1.3327096700668335,0.4334172010421753,0.9500539302825928
1772791007847357400,15.276357421875,1.2618818283081055,0.2457519769668579,1.0746086835861206
1772791007867390700,15.296390625,1.2299164533615112,0.12836675345897675,1.1534438133239746
1772791007887423500,15.316423583984376,1.1932722330093384,0.05224829167127609,1.18710458278656
1772791007907455700,15.336455810546875,1.1323044300079346,0.06977295875549316,1.1944564580917358
1772791007927488500,15.356488525390626,1.053587794303894,0.19707684218883514,1.1936495304107666
1772791007947521800,15.376521728515625,0.9865241050720215,0.3970051407814026,1.1555988788604736
1772791007967554600,15.396554443359374,0.9382694363594055,0.6187534928321838,1.0864921808242798
1772791007987586600,15.416586669921875,0.9483817219734192,0.7921785712242126,0.9703221917152405
1772791008007619600,15.43661962890625,1.0244613885879517,0.8766425848007202,0.8444039821624756
1772791008027652600,15.456652587890625,1.133098840713501,0.7758911848068237,0.8118864893913269
1772791008047684600,15.4766845703125,1.1959947347640991,0.5317736268043518,0.8482567667961121
1772791008067717600,15.496717529296875,1.189357876777649,0.1190510243177414,0.9160333871841431
1772791008087750700,15.516750732421874,1.0810058116912842,-0.4255041778087616,0.899531364440918
1772791008107783700,15.53678369140625,0.8519241809844971,-1.0393646955490112,0.7882629036903381
1772791008127815400,15.5568154296875,0.5241135358810425,-1.4204856157302856,0.42528924345970154
1772791008147848700,15.5768486328125,-0.0803089514374733,-1.3622063398361206,-0.22924010455608368
1772791008167881500,15.596881591796874,-1.048604965209961,-1.1869914531707764,-1.2565206289291382
1772791008187913700,15.616913818359375,-2.0595591068267822,-1.0406168699264526,-1.863889455795288
1772791008207946500,15.636946533203124,-2.8000693321228027,-0.7545425295829773,-1.5917264223098755
1772791008227979800,15.656979736328125,-3.1281840801239014,-0.42006438970565796,-0.6607744693756104
1772791008248011500,15.677011474609374,-3.2678966522216797,-0.1665721982717514,0.19719615578651428
1772791008268044500,15.69704443359375,-3.44435977935791,-0.17449697852134705,0.2202892303466797
1772791008288077600,15.71707763671875,-3.477339744567871,-0.23615100979804993,-0.7906789183616638
1772791008308110600,15.737110595703125,-3.559295654296875,-0.25100773572921753,-2.081484317779541
1772791008328142600,15.757142578125,-3.748565673828125,-0.24738875031471252,-2.7602169513702393
1772791008348175600,15.777175537109375,-3.8196516036987305,-0.13981088995933533,-2.9465527534484863
1772791008368208600,15.797208740234375,-3.7853806018829346,0.06797931343317032,-2.8440496921539307
1772791008388240600,15.81724072265625,-3.5772998332977295,0.20759287476539612,-2.657353401184082
1772791008408273700,15.837273681640625,-3.2758915424346924,0.11451779305934906,-2.343165874481201
1772791008428307000,15.857306884765626,-2.8815958499908447,-0.16743800044059753,-1.9944608211517334
1772791008448340200,15.87734033203125,-2.38678240776062,-0.7464401125907898,-1.7008392810821533
1772791008468372200,15.897372314453126,-1.8266911506652832,-1.3532594442367554,-1.4585715532302856
1772791008488405000,15.917405029296875,-0.9931704998016357,-2.1885907649993896,-1.1635257005691528
1772791008508438000,15.93743798828125,-0.20518110692501068,-2.7139036655426025,-0.937627375125885
1772791008528470000,15.957469970703125,0.4710511267185211,-3.0269601345062256,-0.6768549084663391
1772791008548503000,15.9775029296875,1.0063332319259644,-3.1454286575317383,-0.4580431878566742
1772791008568535000,15.99753515625,1.369289517402649,-3.083280324935913,-0.27715277671813965
1772791008588568000,16.017568115234376,1.5879817008972168,-2.9546139240264893,-0.15213601291179657
1772791008608600000,16.03760009765625,1.7029266357421875,-2.763627767562866,-0.08920364826917648
1772791008628633000,16.057633056640626,1.773638367652893,-2.691784143447876,-0.03806855529546738
1772791008648666000,16.077666015625,1.6818748712539673,-2.7041871547698975,-0.013322463259100914
1772791008668698000,16.097697998046876,1.4961295127868652,-2.6842658519744873,-0.18007442355155945
1772791008688731100,16.117731201171875,1.2266684770584106,-2.6517879962921143,-0.4051477611064911
1772791008708764200,16.13776416015625,0.5933741331100464,-2.482207775115967,-0.7324950098991394
1772791008728797200,16.157797119140625,-0.2469906061887741,-2.3267791271209717,-1.2051448822021484
1772791008748829200,16.1778291015625,-0.9453899264335632,-2.165537118911743,-1.7289623022079468
1772791008768862000,16.197862060546875,-1.463107943534851,-1.8355669975280762,-2.317265510559082
1772791008788895200,16.217895263671874,-1.7929800748825073,-1.4065349102020264,-2.579787254333496
1772791008808927000,16.237927001953125,-2.013633966445923,-0.9139489531517029,-1.6120244264602661
1772791008828960300,16.257960205078124,-2.623434543609619,-0.16956984996795654,0.5732864141464233
1772791008848993000,16.277992919921875,-3.383287191390991,0.5647187829017639,2.72938871383667
1772791008869026300,16.2980263671875,-3.5107038021087646,0.843338668346405,3.4765660762786865
1772791008889058000,16.31805810546875,-2.796858787536621,1.0301605463027954,2.831156015396118
1772791008909091000,16.338091064453124,-1.9679516553878784,1.662593126296997,1.5583041906356812
1772791008929124000,16.3581240234375,-1.6209793090820312,1.9651827812194824,0.7525265216827393
1772791008949156000,16.378156005859374,-1.4057424068450928,2.141475200653076,0.40807536244392395
1772791008969189000,16.398189208984373,-1.1373852491378784,2.047083616256714,0.2412930428981781
1772791008989223000,16.418222900390624,-0.6770013570785522,1.7511948347091675,-0.008237956091761589
1772791009009256200,16.438256103515624,0.0035742283798754215,1.3351256847381592,-0.37706711888313293
1772791009029288000,16.458287841796874,0.6817737817764282,0.7838109135627747,-0.6725741624832153
1772791009049321200,16.4783212890625,1.2275034189224243,0.11372390389442444,-0.895035445690155
1772791009069354000,16.49835400390625,1.581481695175171,-0.6307129859924316,-1.0268614292144775
1772791009089386000,16.518385986328123,1.7383747100830078,-1.4316661357879639,-1.0194867849349976
1772791009109419000,16.5384189453125,1.8048546314239502,-2.0425922870635986,-0.7716437578201294
1772791009129452000,16.5584521484375,1.8548141717910767,-2.252117872238159,-0.3499052822589874
1772791009149485000,16.578485107421876,2.0513455867767334,-2.0915181636810303,0.12792733311653137
1772791009169517000,16.59851708984375,2.1811459064483643,-1.5950886011123657,0.5884177088737488
1772791009189550000,16.618550048828126,2.0477285385131836,-0.8563104271888733,0.6777044534683228
1772791009209583000,16.6385830078125,1.8596054315567017,-0.14775004982948303,0.2508162558078766
1772791009229614800,16.65861474609375,1.5686702728271484,0.3343934416770935,-0.5148699879646301
1772791009249648000,16.678648193359376,1.243685245513916,0.6152442693710327,-1.1980104446411133
1772791009269681000,16.698680908203126,1.0518015623092651,0.7956308126449585,-1.5589351654052734
1772791009289714200,16.718714111328126,1.0697529315948486,0.8826104402542114,-1.604568600654602
1772791009309746000,16.738745849609376,1.18831467628479,0.8909506797790527,-1.302184820175171
1772791009329779200,16.758779296875,1.431010127067566,0.912741482257843,-0.7324430346488953
1772791009349812000,16.77881201171875,1.709385871887207,0.848419189453125,-0.012224175967276096
1772791009369844200,16.79884423828125,1.9831234216690063,0.674091100692749,0.7571476101875305
1772791009389877000,16.818876953125,2.185295343399048,0.4080785810947418,1.3326793909072876
1772791009409910000,16.838909912109376,2.3036718368530273,-0.0011528824688866735,1.6074213981628418
1772791009429942500,16.858942626953127,2.3127410411834717,-0.44891682267189026,1.711255669593811
1772791009449974500,16.878974609375,2.1478524208068848,-0.8938130736351013,1.7326443195343018
1772791009470007600,16.899007568359377,1.803680419921875,-1.249721884727478,1.6307063102722168
1772791009490040600,16.91904052734375,1.3808447122573853,-1.4096190929412842,1.337227463722229
1772791009510072600,16.939072509765627,0.9848894476890564,-1.396782398223877,0.9727869629859924
1772791009530105600,16.959105712890626,0.6369034647941589,-1.3146326541900635,0.5477485656738281
1772791009550138400,16.979138427734377,0.3745059669017792,-1.126078724861145,0.1158810630440712
1772791009570171600,16.999171630859376,0.21034285426139832,-0.9017096161842346,-0.25828373432159424
1772791009590203600,17.01920361328125,0.06202608719468117,-0.6965135335922241,-0.6133942008018494
1772791009610236700,17.039236572265626,-0.10099638998508453,-0.5623642802238464,-1.010786771774292
1772791009630269400,17.05926953125,-0.24932806193828583,-0.5681939125061035,-1.422542691230774
1772791009650301700,17.0793017578125,-0.43517330288887024,-0.6686499714851379,-1.8396533727645874
1772791009670334500,17.09933447265625,-0.5986285209655762,-0.6445038914680481,-2.348783254623413
1772791009690367700,17.11936767578125,-0.755459189414978,-0.5405215620994568,-3.0738625526428223
1772791009710400500,17.139400390625,-1.0513960123062134,-0.5600193738937378,-3.732963800430298
1772791009730432500,17.1594326171875,-1.547692060470581,-0.7807427048683167,-4.265812873840332
1772791009750465500,17.179465576171875,-2.038795232772827,-1.2962441444396973,-4.675247669219971
1772791009770498600,17.19949853515625,-2.389932632446289,-1.9270013570785522,-4.873216152191162
1772791009790530600,17.219530517578125,-2.5759243965148926,-2.4900319576263428,-4.705225467681885
1772791009810563600,17.2395634765625,-2.4138801097869873,-2.812225818634033,-4.451382160186768
1772791009830596600,17.2595966796875,-1.9115312099456787,-3.0460658073425293,-4.344139575958252
1772791009850629600,17.279629638671874,-1.3012657165527344,-3.420095920562744,-4.238131523132324
1772791009870661400,17.299661376953125,-0.6960224509239197,-3.9905788898468018,-3.9587337970733643
1772791009890694700,17.319694580078124,-0.18341164290905,-4.4018402099609375,-3.613861322402954
1772791009910727400,17.3397275390625,0.3944903314113617,-4.595512866973877,-3.392286539077759
1772791009930759700,17.359759765625,0.9845794439315796,-4.304267406463623,-3.1549837589263916
1772791009950792400,17.37979248046875,1.573478102684021,-4.057547569274902,-2.766770362854004
1772791009970825700,17.39982568359375,2.0624959468841553,-3.927462339401245,-2.273320198059082
1772791009990858500,17.4198583984375,2.2793266773223877,-4.228995323181152,-1.919577717781067
1772791010010890500,17.439890380859374,2.3349192142486572,-4.7606987953186035,-1.805553913116455
1772791010030923500,17.459923583984374,2.3931167125701904,-5.196938514709473,-1.7505208253860474
1772791010050956500,17.47995654296875,2.5030014514923096,-5.393630504608154,-1.5123196840286255
1772791010070988500,17.499988525390624,2.5494916439056396,-5.2728447914123535,-1.054560899734497
1772791010091021600,17.520021484375,2.4590296745300293,-5.123744964599609,-0.5414139628410339
1772791010111054600,17.5400546875,2.280237913131714,-4.9864959716796875,-0.13406193256378174
1772791010131087600,17.560087646484376,2.0431032180786133,-4.741608142852783,0.10268456488847733
1772791010151119400,17.580119384765624,1.9231791496276855,-4.262233734130859,0.2932792901992798
1772791010171152600,17.600152587890626,1.620378017425537,-3.7337310314178467,0.6209120154380798
1772791010191185400,17.620185302734374,1.06197190284729,-3.6094894409179688,1.0455999374389648
1772791010211217700,17.6402177734375,0.33067911863327026,-3.70961856842041,1.2915953397750854
1772791010231250400,17.66025048828125,-0.36341148614883423,-3.668558359146118,1.2576967477798462
1772791010251283700,17.68028369140625,-1.0576304197311401,-3.521848201751709,1.0401393175125122
1772791010271316500,17.70031640625,-1.5421979427337646,-3.315781831741333,0.8710494041442871
1772791010291348700,17.7203486328125,-1.8960421085357666,-3.028263568878174,1.0000900030136108
1772791010311381500,17.740381591796876,-2.2334182262420654,-2.755652666091919,1.3282235860824585
1772791010331414500,17.76041455078125,-2.71989369392395,-2.445603132247925,1.5293232202529907
1772791010351446500,17.780446533203126,-3.0105817317962646,-1.9838714599609375,1.550989031791687
1772791010371479600,17.8004794921875,-3.0069804191589355,-1.4357455968856812,1.599114179611206
1772791010391512600,17.8205126953125,-2.843371629714966,-1.3456127643585205,1.7412586212158203
1772791010411545600,17.840545654296875,-2.7154510021209717,-1.461997151374817,1.6720441579818726
1772791010431577600,17.86057763671875,-2.520876169204712,-1.7182544469833374,1.484781265258789
1772791010451611000,17.88061083984375,-2.3127808570861816,-1.7508870363235474,1.2651349306106567
1772791010471643600,17.9006435546875,-2.0192453861236572,-1.5148142576217651,1.1514757871627808
1772791010491676000,17.920676025390627,-1.8081334829330444,-1.4621635675430298,1.2486052513122559
1772791010511708700,17.940708740234374,-1.8005239963531494,-1.5149588584899902,1.3041821718215942
1772791010531742000,17.960741943359373,-1.8211917877197266,-1.9785417318344116,1.1464176177978516
1772791010551774700,17.980774658203124,-1.6016554832458496,-1.5120022296905518,0.7040148973464966
1772791010571806700,18.000806640625,-1.4168440103530884,-1.0521368980407715,0.41312846541404724
1772791010591839700,18.02083984375,-1.2407193183898926,-0.3393610119819641,0.15497173368930817
1772791010611872800,18.040872802734373,-0.9300530552864075,0.47879108786582947,0.04020920395851135
1772791010631904800,18.06090478515625,-0.6991724371910095,0.7893966436386108,0.2920142710208893
1772791010651937800,18.080937744140623,-0.5468955636024475,0.5937879681587219,0.5668847560882568
1772791010671970800,18.100970703125,-0.6595086455345154,0.3164900541305542,0.44542941451072693
1772791010692003800,18.12100390625,-1.1187864542007446,-0.04114929959177971,0.01888420805335045
1772791010712035600,18.14103564453125,-1.1473268270492554,0.18527744710445404,-0.20416805148124695
1772791010732068900,18.16106884765625,-0.9564037322998047,-0.15045422315597534,0.09595689177513123
1772791010752101600,18.1811015625,-0.6823833584785461,-0.17490656673908234,0.18392562866210938
1772791010772134000,18.2011337890625,-0.6303667426109314,-0.3468562364578247,0.16002163290977478
1772791010792166700,18.221166748046876,-0.4292387068271637,-0.21386834979057312,-0.13841725885868073
1772791010812200000,18.241199951171875,0.08256624639034271,0.3698486387729645,-0.4250152111053467
1772791010832232700,18.261232666015626,0.7113484144210815,0.8585157990455627,-0.23833321034908295
1772791010852264700,18.2812646484375,0.9954313039779663,1.2032315731048584,0.07458502054214478
1772791010872297700,18.301297607421876,0.7093902230262756,1.489507794380188,0.095096156001091
1772791010892330800,18.321330810546876,0.4200119376182556,1.4191993474960327,0.06267429888248444
1772791010912362800,18.34136279296875,0.3638557195663452,1.020580530166626,0.07845912128686905
1772791010932395800,18.361395751953125,0.41638922691345215,0.3337441384792328,-0.19192150235176086
1772791010952428800,18.3814287109375,0.47098907828330994,0.08235639333724976,-0.7090860605239868
1772791010972461800,18.4014619140625,0.5592861771583557,0.2623189687728882,-0.806567370891571
1772791010992493600,18.42149365234375,0.7574227452278137,0.458730548620224,-0.6351958513259888
1772791011012526800,18.44152685546875,0.7933165431022644,0.05870911851525307,-0.3787161409854889
1772791011032559600,18.4615595703125,0.5778215527534485,-0.22632475197315216,-0.5948526859283447
1772791011052591900,18.481591796875,0.31078583002090454,-0.5716531276702881,-1.0676548480987549
1772791011072624600,18.501624755859375,0.18890281021595,-0.27196601033210754,-1.421731948852539
1772791011092658000,18.521657958984374,0.12335362285375595,-0.08093027025461197,-0.9082074165344238
1772791011112690700,18.541690673828125,-0.14501550793647766,0.1372598558664322,-0.1759880781173706
1772791011132723000,18.561722900390624,-0.3555631637573242,0.24678608775138855,-0.05531811714172363
1772791011152755700,18.581755615234375,-0.3399959206581116,0.14580833911895752,-0.5256206393241882
1772791011172788700,18.601788818359374,-0.29393547773361206,0.1903558224439621,-0.9669980406761169
1772791011192821800,18.62182177734375,-0.2801501750946045,0.21332105994224548,-0.9755856990814209
1772791011212853800,18.641853759765624,0.09077943861484528,-0.3222406208515167,-1.1202377080917358
1772791011232886800,18.66188671875,0.5778329968452454,0.20991674065589905,-0.03979268670082092
1772791011252919600,18.68191943359375,0.7294557690620422,0.20071153342723846,0.20614011585712433
1772791011272951800,18.701951904296877,0.9057674407958984,-0.008580438792705536,0.2340356707572937
1772791011292984800,18.72198486328125,1.067328929901123,0.14268390834331512,0.3460756540298462
1772791011313017900,18.742017822265623,1.0405899286270142,0.242250457406044,0.7261694669723511
1772791011333050600,18.762050537109374,0.9272596836090088,0.5195646286010742,1.0681962966918945
1772791011353082600,18.78208251953125,0.8717266321182251,0.8518903851509094,1.3374903202056885
1772791011373116000,18.802115966796876,0.8760026097297668,0.8302037119865417,1.5187948942184448
1772791011393148700,18.822148681640623,0.8696129322052002,0.7518652081489563,1.4710073471069336
1772791011413181700,18.842181640625,0.8634839057922363,0.5302217602729797,1.0709524154663086
1772791011433213700,18.862213623046873,1.0260895490646362,0.1238018348813057,0.7679813504219055
1772791011453246700,18.882246826171876,0.8633919954299927,0.4025799334049225,0.784902036190033
1772791011473279700,18.90227978515625,0.749495804309845,0.9223182201385498,0.622178316116333
1772791011493311700,18.922311767578126,0.8173209428787231,1.1101136207580566,0.4057784080505371
1772791011513344800,18.9423447265625,0.8774604201316833,1.0298715829849243,0.09342368692159653
1772791011533377500,18.96237744140625,0.9738088250160217,0.8484420776367188,-0.06708023697137833
1772791011553410800,18.982410888671875,1.0606236457824707,0.556350588798523,0.20893457531929016
1772791011573442800,19.00244287109375,0.9894000291824341,0.5823350548744202,0.5454630851745605
1772791011593475800,19.022475830078125,0.6980084180831909,0.7017397284507751,0.6753869652748108
1772791011613508600,19.042508544921876,0.34152910113334656,0.727442741394043,0.5661054849624634
1772791011633540600,19.06254052734375,-0.005947637837380171,0.8309153318405151,0.46377086639404297
1772791011653573600,19.08257373046875,-0.15601329505443573,0.76906818151474,0.512040376663208
1772791011673606700,19.102606689453125,-0.1625092774629593,0.6881855726242065,0.4264802038669586
1772791011693639700,19.1226396484375,0.0005006743012927473,0.8254744410514832,0.1174914762377739
1772791011713671700,19.142671630859375,0.3249985873699188,0.8676688075065613,0.048711612820625305
1772791011733704700,19.16270458984375,0.5696709156036377,0.8405503630638123,0.0295480377972126
1772791011753737700,19.18273779296875,0.6123350262641907,0.8139885067939758,-0.1662622094154358
1772791011773769700,19.202769775390625,0.6475063562393188,0.6492736339569092,-0.27226772904396057
1772791011793802800,19.222802734375,0.7596443295478821,0.5875481963157654,-0.30907610058784485
1772791011813835800,19.242835693359375,1.0643459558486938,0.5799112915992737,-0.40434056520462036
1772791011833868800,19.262868896484374,1.1797186136245728,0.5580030679702759,-0.3376123905181885
1772791011853900500,19.282900634765625,1.0913623571395874,0.688521683216095,-0.2571265995502472
1772791011873933800,19.302933837890624,1.1626527309417725,0.43118947744369507,-0.17525756359100342
1772791011893966600,19.322966552734375,1.365378975868225,0.3611811101436615,-0.1686936765909195
1772791011913998800,19.342998779296874,1.45773184299469,0.29799947142601013,-0.23360636830329895
1772791011934031600,19.363031494140625,1.4447230100631714,0.2974175810813904,-0.4361671805381775
1772791011954065000,19.38306494140625,1.6784522533416748,-0.28763365745544434,-0.6873437762260437
1772791011974097700,19.40309765625,1.870050072669983,-0.6828722953796387,-0.8713237047195435
1772791011994129700,19.423129638671874,1.7106375694274902,-0.7392224073410034,-0.9486967921257019
1772791012014162700,19.44316259765625,1.2875555753707886,-0.044742971658706665,-0.9873400926589966
1772791012034195700,19.46319580078125,0.8252736926078796,0.6457510590553284,-0.7925865650177002
1772791012054228700,19.483228759765623,0.24563400447368622,1.3684096336364746,-0.48551928997039795
1772791012074260700,19.5032607421875,-0.29967033863067627,1.9337515830993652,-0.3106745183467865
1772791012094293800,19.523293701171873,-0.5217965841293335,1.7470320463180542,-0.4730791449546814
1772791012114326800,19.543326904296876,-0.3228488862514496,0.6597270369529724,-0.4806675612926483
1772791012134358500,19.563358642578127,0.00577879324555397,-0.25256460905075073,-0.49600470066070557
1772791012154391800,19.583391845703126,0.26457199454307556,-0.8840917348861694,-0.6420204639434814
1772791012174424600,19.603424560546873,0.4796946942806244,-0.9877030849456787,-0.7587960958480835
1772791012194457900,19.623457763671876,0.5632258057594299,-0.7002190947532654,-0.7868794202804565
1772791012214489600,19.643489501953123,0.4997381865978241,-0.2724387049674988,-0.8713356852531433
1772791012234523000,19.66352294921875,0.2766193449497223,-0.1848452091217041,-0.9520058035850525
1772791012254555600,19.6835556640625,-0.04984505474567413,-0.2926979064941406,-0.9625433683395386
1772791012274587600,19.703587646484376,-0.3493462800979614,-0.3473536968231201,-0.8310953378677368
1772791012294620700,19.72362060546875,-0.507631778717041,-0.3709535598754883,-0.5185816287994385
1772791012314653700,19.74365380859375,-0.6149467825889587,-0.12016689032316208,-0.06061088293790817
1772791012334686700,19.763686767578125,-0.7154792547225952,0.4750802516937256,0.5098347663879395
1772791012354718700,19.78371875,-0.7075513005256653,0.7501274943351746,1.0694018602371216
1772791012374751700,19.803751708984375,-0.816439151763916,0.7445124983787537,1.4001688957214355
1772791012394784800,19.82378466796875,-0.9518369436264038,0.5796875953674316,1.4174443483352661
1772791012414816800,19.843816650390625,-0.9077877402305603,0.29127630591392517,1.1310179233551025
1772791012434850000,19.86385009765625,-0.6888023614883423,0.03299150615930557,0.6805607080459595
1772791012454883000,19.883883056640624,-0.3698379695415497,-0.5689585208892822,0.23502449691295624
1772791012474916000,19.903916015625,-0.16737514734268188,-0.7477256059646606,0.004607268609106541
1772791012494948000,19.923947998046874,-0.22712236642837524,-0.5728118419647217,-0.01780429668724537
1772791012514981000,19.943981201171876,-0.4722604751586914,-0.18100200593471527,0.10053406655788422
1772791012535014100,19.96401416015625,-0.9520715475082397,0.6911233067512512,0.3153718113899231
1772791012555047000,19.984046875,-1.518489956855774,1.5536636114120483,0.42335498332977295
1772791012575079000,20.004078857421874,-1.9537303447723389,1.7407472133636475,0.40685057640075684
1772791012595112200,20.0241123046875,-2.0541622638702393,1.3017613887786865,0.5970772504806519
1772791012615145000,20.04414501953125,-1.936086893081665,0.790894627571106,0.8063846826553345
1772791012635177200,20.06417724609375,-1.6463770866394043,0.38540521264076233,0.854912281036377
1772791012655210000,20.0842099609375,-1.3668043613433838,0.486517995595932,0.8614795804023743
1772791012675243300,20.1042431640625,-1.1572364568710327,0.3224254548549652,0.9284021854400635
1772791012695276000,20.124276123046876,-1.0504848957061768,0.3333958089351654,1.0133633613586426
1772791012715308300,20.144308349609375,-0.9277209639549255,-0.36778149008750916,1.031996488571167
1772791012735341000,20.164341064453126,-0.6687769889831543,-1.096764087677002,0.8836360573768616
1772791012755374000,20.1843740234375,-0.4071211516857147,-0.5365803241729736,0.6124823093414307
1772791012775406000,20.204406005859376,-0.17856042087078094,0.39259999990463257,0.4140685498714447
1772791012795439000,20.224439208984375,-0.08148474246263504,0.6465747356414795,0.4852553904056549
1772791012815472000,20.24447216796875,-0.09106413275003433,0.21154473721981049,0.6645897030830383
1772791012835505000,20.2645048828125,-0.3575887680053711,-0.06831008195877075,0.7934728860855103
1772791012855537200,20.284537109375,-1.0405223369598389,0.40354666113853455,0.8511905074119568
1772791012875570200,20.304570068359375,-1.4330003261566162,0.6295142769813538,0.34936705231666565
1772791012895603200,20.324603271484374,-2.029723882675171,-1.0795283317565918,-1.076675534248352
1772791012915636000,20.344635986328125,-2.321657180786133,-3.645916700363159,-1.8979318141937256
1772791012935668000,20.36466796875,-1.9415690898895264,-5.074132442474365,-1.3598214387893677
1772791012955701000,20.384700927734375,-1.6504048109054565,-5.044200897216797,0.16834214329719543
1772791012975734000,20.404734130859374,-1.4185668230056763,-4.1583967208862305,1.8790905475616455
1772791012995766300,20.424766357421873,-1.4257261753082275,-4.000352382659912,2.49312162399292
1772791013015799000,20.444799072265624,-1.235007882118225,-3.033419609069824,1.9495787620544434
1772791013035832000,20.46483203125,-0.3584548234939575,-2.6273481845855713,1.3826309442520142
1772791013055865000,20.484864990234374,0.4465082585811615,-2.1868128776550293,1.128225564956665
1772791013075897000,20.50489697265625,1.120622992515564,-1.672540545463562,1.209459900856018
1772791013095930000,20.52493017578125,1.402523159980774,-1.3474910259246826,1.2019336223602295
1772791013115963000,20.544962890625,1.4117177724838257,-1.5394575595855713,0.9268168210983276
1772791013135995100,20.5649951171875,1.3205899000167847,-2.0726850032806396,0.8102622032165527
1772791013156028200,20.585028076171874,1.1743496656417847,-2.1201632022857666,1.3940784931182861
1772791013176061200,20.605061279296876,1.16476571559906,-1.562251329421997,2.1137795448303223
1772791013196094000,20.625093994140624,1.1818690299987793,-2.1209490299224854,2.2023937702178955
1772791013216126000,20.6451259765625,1.082884430885315,-3.35318922996521,1.9354538917541504
1772791013236159000,20.665158935546874,0.9734828472137451,-4.130300045013428,2.143333911895752
1772791013256192000,20.68519189453125,0.37090083956718445,-3.501095771789551,2.845944404602051
1772791013276225000,20.70522509765625,-0.2955988943576813,-2.9636006355285645,3.1735358238220215
1772791013296257000,20.725257080078126,-0.4748368263244629,-3.012237310409546,2.887183427810669
1772791013316290000,20.7452900390625,0.05854879692196846,-2.87494158744812,2.717796564102173
1772791013336323000,20.765322998046877,0.8363601565361023,-2.714468479156494,3.0954973697662354
1772791013356355000,20.78535498046875,0.9414111971855164,-2.6872522830963135,3.696197032928467
1772791013376388000,20.80538818359375,0.7469027042388916,-3.0264759063720703,4.5461225509643555
1772791013396421000,20.825421142578126,0.45981207489967346,-3.7643890380859375,5.433067798614502
1772791013416454100,20.8454541015625,0.427534282207489,-4.201301097869873,6.313918113708496
1772791013436486400,20.865486328125,0.7900533676147461,-4.350348949432373,7.0830302238464355
1772791013456519700,20.885519775390627,1.5932071208953857,-4.297035217285156,7.7465362548828125
1772791013476552400,20.905552490234374,2.5616509914398193,-3.6394925117492676,8.287928581237793
1772791013496584700,20.925584716796877,3.7072930335998535,-2.553205728530884,8.401185035705566
1772791013516617500,20.945617431640624,4.749959945678711,-1.108502984046936,7.899646282196045
1772791013536650800,20.965650634765623,5.646562099456787,0.12681999802589417,6.879715442657471
1772791013556683500,20.98568359375,6.201435565948486,1.2209852933883667,5.653354167938232
1772791013576715500,21.005715576171873,6.135726451873779,2.2233941555023193,4.516920566558838
1772791013596748500,21.02574853515625,5.583564281463623,2.96467661857605,3.7470250129699707
1772791013616781600,21.045781494140623,4.813900470733643,3.477357864379883,3.1796553134918213
1772791013636813600,21.0658134765625,3.9661612510681152,3.709012031555176,2.3684027194976807
1772791013656846600,21.0858466796875,3.1837525367736816,3.8508241176605225,1.188515305519104
1772791013676879600,21.105879638671876,2.4657154083251953,4.195353031158447,-0.14505653083324432
1772791013696911600,21.12591162109375,1.9200201034545898,4.908238887786865,-1.361854076385498
1772791013716944600,21.145944580078126,1.850976586341858,5.81163215637207,-2.2523069381713867
1772791013736977700,21.165977783203125,2.389180898666382,6.459664821624756,-2.749577760696411
1772791013757010700,21.1860107421875,3.073359489440918,6.656557559967041,-2.9282169342041016
1772791013777042700,21.206042724609375,3.4677894115448,6.070158004760742,-3.0896170139312744
1772791013797075500,21.226075439453126,3.5236926078796387,4.826517105102539,-3.1212220191955566
1772791013817108700,21.246108642578125,3.319521903991699,3.3236637115478516,-2.834934949874878
1772791013837140500,21.266140380859376,2.8959333896636963,1.8484960794448853,-2.345863103866577
1772791013857173800,21.286173828125,2.2727534770965576,0.5319211483001709,-1.9839990139007568
1772791013877206500,21.30620654296875,1.6964458227157593,-0.46682098507881165,-1.8034154176712036
1772791013897239800,21.32623974609375,1.2804063558578491,-0.9675490260124207,-1.734424352645874
1772791013917271600,21.346271484375,0.8676043748855591,-0.9527666568756104,-1.8250446319580078
1772791013937304600,21.3663046875,0.43367260694503784,-0.6612067222595215,-2.111720085144043
1772791013957337600,21.386337646484375,0.19307145476341248,-0.1146666631102562,-2.368943929672241
1772791013977369600,21.40636962890625,0.1910810023546219,0.7794579863548279,-2.4424874782562256
1772791013997402600,21.426402587890625,0.2738107740879059,1.7708455324172974,-2.3977982997894287
1772791014017435600,21.446435546875,0.3743664026260376,2.6985549926757812,-2.304408073425293
1772791014037468700,21.46646875,0.4623095691204071,3.461900234222412,-2.201404333114624
1772791014057500700,21.486500732421874,0.4963727295398712,4.035417079925537,-2.036162853240967
1772791014077533400,21.506533447265625,0.6789076924324036,4.376476764678955,-1.7399065494537354
1772791014097566700,21.526566650390624,0.8152875900268555,4.42708158493042,-1.5018513202667236
1772791014117599500,21.546599609375,0.7901998162269592,4.235711097717285,-1.3236241340637207
1772791014137631700,21.5666318359375,0.7599726915359497,3.8408241271972656,-1.0488688945770264
1772791014157664500,21.58666455078125,0.7336640954017639,3.2363736629486084,-0.6488965153694153
1772791014177697500,21.606697509765624,0.7372907996177673,2.40334153175354,-0.1374819576740265
1772791014197729500,21.6267294921875,0.9399552345275879,1.383397102355957,0.5709037184715271
1772791014217762600,21.646762451171874,1.0868738889694214,0.26379621028900146,1.5041719675064087
1772791014237795600,21.666795654296877,0.8842227458953857,-0.922010064125061,2.6286041736602783
1772791014257827600,21.68682763671875,0.5176157355308533,-1.8996837139129639,3.9629781246185303
1772791014277860600,21.706860595703127,0.08800256252288818,-2.5230867862701416,4.992778301239014
1772791014297893600,21.7268935546875,-0.21946604549884796,-2.992673397064209,4.903336524963379
1772791014317926700,21.7469267578125,-0.11152119934558868,-3.0760676860809326,4.255704402923584
1772791014337958700,21.766958740234376,-0.003835484618321061,-2.777658700942993,3.2447187900543213
1772791014357991700,21.78699169921875,-0.1357003003358841,-2.147031784057617,2.0082693099975586
1772791014378024700,21.807024658203126,-0.39202263951301575,-1.3254587650299072,0.8592718243598938
1772791014398056400,21.827056396484377,-0.7530508637428284,-0.5193217396736145,-0.07762209326028824
1772791014418089700,21.84708984375,-1.2145575284957886,-0.07568038254976273,-0.7943650484085083
1772791014438122200,21.867122314453123,-1.648344874382019,-0.013229252770543098,-1.1714646816253662
1772791014458155300,21.8871552734375,-1.9408800601959229,-0.2022859901189804,-1.183239221572876
1772791014478187300,21.907187255859377,-2.1665046215057373,-0.49428507685661316,-0.8963292241096497
1772791014498220300,21.92722021484375,-2.412290573120117,-0.9372931718826294,-0.5430949926376343
1772791014518253000,21.947253173828123,-2.656876802444458,-1.5056287050247192,-0.24591761827468872
1772791014538285300,21.967285400390626,-2.780677080154419,-2.093815326690674,0.031560588628053665
1772791014558318000,21.987318115234373,-2.736002206802368,-2.6420204639434814,0.28945258259773254
1772791014578351400,22.007351318359376,-2.4319469928741455,-3.008035898208618,0.5385710597038269
1772791014598384000,22.027384033203123,-2.040109395980835,-3.1114392280578613,0.7772464752197266
1772791014618416400,22.04741650390625,-1.7546292543411255,-3.1101338863372803,0.8411519527435303
1772791014638449200,22.06744921875,-1.6022663116455078,-2.9828290939331055,0.7939764857292175
1772791014658481200,22.087481201171876,-1.5911002159118652,-2.7642648220062256,0.6511284708976746
1772791014678513400,22.107513427734375,-1.6828911304473877,-2.4159433841705322,0.40908896923065186
1772791014698546200,22.127546142578126,-1.812878131866455,-1.9037108421325684,0.11279525607824326
1772791014718579200,22.1475791015625,-1.8912155628204346,-1.2446820735931396,-0.20232221484184265
1772791014738612200,22.1676123046875,-1.893703818321228,-0.5502706170082092,-0.533785343170166
1772791014758644200,22.187644287109375,-1.846262812614441,0.07532351464033127,-0.871425986289978
1772791014778677200,22.20767724609375,-1.7528526782989502,0.5825864672660828,-1.1149967908859253
1772791014798710000,22.2277099609375,-1.664419174194336,0.9595116376876831,-1.2353626489639282
1772791014818742300,22.2477421875,-1.5840245485305786,1.222208023071289,-1.225744605064392
1772791014838775000,22.267775146484375,-1.5154156684875488,1.3553506135940552,-1.0920792818069458
1772791014858808300,22.287808349609374,-1.380021572113037,1.4133752584457397,-0.8372917175292969
1772791014878841000,22.307841064453125,-1.155584692955017,1.3630844354629517,-0.599453330039978
1772791014898873000,22.327873046875,-0.8297427296638489,1.2639498710632324,-0.3489886224269867
1772791014918906000,22.347906005859375,-0.4752514660358429,1.1621071100234985,-0.06021513789892197
1772791014938939100,22.367939208984374,-0.15336932241916656,1.0454661846160889,0.22252841293811798
1772791014958971100,22.38797119140625,0.12051443010568619,0.909091591835022,0.47853410243988037
1772791014979004200,22.408004150390624,0.37136849761009216,0.6064143180847168,0.5799342393875122
1772791014999037200,22.428037109375,0.6867445707321167,0.1972491592168808,0.4882887303829193
1772791015019070200,22.4480703125,1.1231945753097534,-0.16170288622379303,0.36956900358200073
1772791015039102200,22.468102294921874,1.6981862783432007,-0.26368144154548645,0.6157047152519226
1772791015059135200,22.48813525390625,2.1851511001586914,-0.1256791055202484,1.325618028640747
1772791015079169300,22.508169189453124,2.5133705139160156,0.15753689408302307,2.2006378173828125
1772791015099201300,22.528201171875,2.7511298656463623,0.42222076654434204,2.784911632537842
1772791015119234300,22.548234375,2.9330697059631348,0.6822834610939026,2.8374826908111572
1772791015139267300,22.568267333984377,3.1452972888946533,0.9702149033546448,2.344041109085083
1772791015159300000,22.588300048828124,3.3577935695648193,1.0009413957595825,1.463030219078064
1772791015179332400,22.608332275390627,3.407611608505249,0.6877802610397339,0.3710656762123108
1772791015199365000,22.628365234375,3.3332409858703613,0.30357587337493896,-0.41357558965682983
1772791015219398100,22.648398193359377,3.1757516860961914,-0.027791684493422508,-0.7027198076248169
1772791015239430100,22.66843017578125,2.8126378059387207,-0.4667312204837799,-0.789092481136322
1772791015259463400,22.68846337890625,2.216679811477661,-0.7320582270622253,-0.7940648794174194
1772791015279496200,22.70849609375,1.4118237495422363,-0.6322594881057739,-0.8114212155342102
1772791015299529200,22.728529296875,0.6037993431091309,-0.2803160846233368,-1.0459445714950562
1772791015319561200,22.748561279296876,-0.0569213405251503,0.30017420649528503,-1.4425640106201172
1772791015339594200,22.76859423828125,-0.5263426303863525,0.9589334726333618,-1.9213846921920776
1772791015359627300,22.788627197265626,-0.7852959036827087,1.6129533052444458,-2.3581490516662598
1772791015379659300,22.8086591796875,-0.8669524192810059,2.2800240516662598,-2.629728078842163
1772791015399692300,22.8286923828125,-0.8000372648239136,2.84545636177063,-2.783039093017578
1772791015419725000,22.84872509765625,-0.6990547180175781,3.235567808151245,-2.868098497390747
1772791015439758000,22.868758056640626,-0.6126556992530823,3.398139476776123,-2.8861634731292725
1772791015459790000,22.8887900390625,-0.5756438374519348,3.394853353500366,-2.823268175125122
1772791015479822800,22.90882275390625,-0.49586859345436096,3.241028308868408,-2.615192174911499
1772791015499856000,22.92885595703125,-0.29162973165512085,2.9731180667877197,-2.303311586380005
1772791015519888000,22.948887939453126,-0.08500809967517853,2.5059027671813965,-2.0491690635681152
1772791015539921200,22.968921142578125,0.1128527820110321,1.981741189956665,-1.7528108358383179
1772791015559954000,22.988953857421876,0.32783886790275574,1.5061970949172974,-1.3339738845825195
1772791015579987000,23.008987060546875,0.6188504695892334,1.1316934823989868,-0.8403562307357788
1772791015600019000,23.02901904296875,0.9560993313789368,0.8237535357475281,-0.35160303115844727
1772791015620052000,23.049052001953125,1.2890751361846924,0.5482045412063599,0.21595226228237152
1772791015640085000,23.0690849609375,1.6426198482513428,0.3490879535675049,0.8783808350563049
1772791015660117000,23.089116943359375,1.9557973146438599,0.22798976302146912,1.600826382637024
1772791015680150000,23.10914990234375,2.1453561782836914,0.10713071376085281,2.214644432067871
1772791015700183000,23.12918310546875,2.2394063472747803,-0.20841684937477112,2.4564476013183594
1772791015720216000,23.149216064453125,2.272488594055176,-0.7586970329284668,2.1648542881011963
1772791015740248000,23.169248046875,2.3136098384857178,-1.36127769947052,1.6164964437484741
1772791015760280800,23.18928076171875,2.2579538822174072,-1.8235266208648682,1.2041141986846924
1772791015780313900,23.20931396484375,2.062687397003174,-2.0224297046661377,1.1371431350708008
1772791015800345900,23.229345947265625,1.623315453529358,-1.7615820169448853,1.286942720413208
1772791015820379100,23.249379150390624,0.9708945155143738,-1.2964146137237549,1.3999603986740112
1772791015840412000,23.269411865234375,0.10662710666656494,-0.8265858292579651,1.243014931678772
1772791015860445000,23.28944482421875,-0.737538754940033,-0.3875160217285156,0.8100547790527344
1772791015880477000,23.309476806640625,-1.2721043825149536,0.12011122703552246,0.305778831243515
1772791015900510000,23.329510009765624,-1.4799844026565552,0.6343127489089966,-0.06869916617870331
1772791015920543000,23.34954296875,-1.5214998722076416,0.8280143141746521,-0.2795022130012512
1772791015940575000,23.369574951171874,-1.5887457132339478,0.5319626927375793,-0.44408610463142395
1772791015960608000,23.38960791015625,-1.7431148290634155,-0.08022905886173248,-0.5382123589515686
1772791015980640800,23.409640869140624,-1.8531156778335571,-0.8034453392028809,-0.4750322997570038
1772791016000674000,23.429674072265627,-1.7787466049194336,-1.5238884687423706,-0.16534608602523804
1772791016020706000,23.4497060546875,-1.5699763298034668,-2.1547861099243164,0.32025256752967834
1772791016040739000,23.469739013671877,-1.3631317615509033,-2.6705942153930664,0.8229532837867737
1772791016060771800,23.489771728515624,-1.2619529962539673,-3.0408785343170166,1.2026207447052002
1772791016080803800,23.509803955078127,-1.2955740690231323,-3.326155662536621,1.4243866205215454
1772791016100837000,23.529837158203126,-1.4447696208953857,-3.4795422554016113,1.513914704322815
1772791016120870000,23.549869873046877,-1.6093440055847168,-3.4789717197418213,1.4719421863555908
1772791016140903000,23.56990283203125,-1.7315833568572998,-3.3110175132751465,1.2998383045196533
1772791016160935000,23.589934814453127,-1.753931999206543,-2.955693483352661,0.9656971096992493
1772791016180968000,23.609968017578126,-1.67414128780365,-2.410665273666382,0.5309008955955505
1772791016201001000,23.6300009765625,-1.591841697692871,-1.7423323392868042,0.01725994609296322
1772791016221033000,23.650032958984376,-1.495461344718933,-1.0653879642486572,-0.5456923842430115
1772791016241066000,23.67006591796875,-1.3936148881912231,-0.4193762242794037,-1.00105619430542
1772791016261098800,23.6900986328125,-1.3285655975341797,0.10904259979724884,-1.3563429117202759
1772791016281131000,23.710131103515625,-1.305393934249878,0.5274824500083923,-1.6300303936004639
1772791016301164000,23.7301640625,-1.2852774858474731,0.8419266939163208,-1.807259202003479
1772791016321197000,23.750197021484375,-1.2730309963226318,1.0366392135620117,-1.86531400680542
1772791016341229800,23.770229736328126,-1.2473598718643188,1.1208174228668213,-1.8358604907989502
1772791016361261800,23.79026171875,-1.1597768068313599,1.1349122524261475,-1.717829942703247
1772791016381294800,23.810294921875,-0.946296751499176,1.1195391416549683,-1.4024659395217896
1772791016401327900,23.830327880859375,-0.7438246011734009,1.0116254091262817,-1.100493311882019
1772791016421360000,23.850360107421874,-0.5120036602020264,0.9510899186134338,-0.7366095781326294
1772791016441393700,23.8703935546875,-0.1937020868062973,0.8832749128341675,-0.3510192632675171
1772791016461426700,23.8904267578125,0.11667255312204361,0.7216503620147705,-0.11537612974643707
1772791016481459700,23.910459716796876,0.36014699935913086,0.5030117630958557,-0.04977474734187126
1772791016501491500,23.930491455078126,0.5614438652992249,0.49640151858329773,0.1767505407333374
1772791016521524700,23.950524658203125,0.7178665399551392,0.7431207299232483,0.858502209186554
1772791016541557500,23.9705576171875,0.8401636481285095,1.0344399213790894,1.8261327743530273
1772791016561589800,23.99058984375,1.1076645851135254,1.1920170783996582,2.6613736152648926
1772791016581622500,24.01062255859375,1.506434679031372,1.250465989112854,3.0073585510253906
1772791016601655800,24.03065576171875,1.9341819286346436,1.271321177482605,2.797184705734253
1772791016621688600,24.0506884765625,2.3852412700653076,1.0677827596664429,2.18878436088562
1772791016641720600,24.070720458984376,2.800408363342285,0.5799390077590942,1.175302267074585
1772791016661753600,24.090753662109375,3.010237455368042,-0.08093905448913574,0.15546122193336487
1772791016681786600,24.11078662109375,3.126985788345337,-0.42662933468818665,-0.515926718711853
1772791016701818600,24.130818603515625,3.0965800285339355,-0.8918050527572632,-0.9404162168502808
1772791016721851600,24.1508515625,2.7650227546691895,-1.225078821182251,-1.1173512935638428
1772791016741884700,24.170884765625,2.3616702556610107,-1.319145679473877,-1.1737014055252075
1772791016761917700,24.190917724609374,1.9005249738693237,-1.102002501487732,-1.2466975450515747
1772791016781949400,24.210949462890625,1.4185864925384521,-0.5959009528160095,-1.4532997608184814
1772791016801982700,24.230982666015624,0.9330552816390991,0.19077767431735992,-1.815418004989624
1772791016822015500,24.251015380859375,0.4778536558151245,1.0608673095703125,-2.1868631839752197
1772791016842047700,24.2710478515625,0.07940641045570374,1.8737678527832031,-2.435663938522339
1772791016862080500,24.29108056640625,-0.2161722481250763,2.5825846195220947,-2.516251564025879
1772791016882113800,24.31111376953125,-0.40093329548835754,3.062591314315796,-2.495389223098755
1772791016902145500,24.3311455078125,-0.4907265901565552,3.3075616359710693,-2.4428508281707764
1772791016922178600,24.351178466796874,-0.49359506368637085,3.3539206981658936,-2.321305990219116
1772791016942211600,24.371211669921873,-0.42898279428482056,3.2427053451538086,-2.130873203277588
1772791016962244600,24.39124462890625,-0.30342113971710205,2.9968984127044678,-1.9141179323196411
1772791016982276600,24.411276611328127,-0.1736101359128952,2.6346628665924072,-1.6773605346679688
1772791017002309600,24.4313095703125,0.010042513720691204,2.225349187850952,-1.4241424798965454
1772791017022342700,24.4513427734375,0.3142934739589691,1.829215407371521,-1.1690454483032227
1772791017042374700,24.471374755859376,0.6919475793838501,1.452811598777771,-0.9294336438179016
1772791017062407700,24.49140771484375,1.0953946113586426,1.0952225923538208,-0.646533191204071
1772791017082440700,24.511440673828126,1.4376596212387085,0.7242240309715271,-0.25061437487602234
1772791017102473700,24.5314736328125,1.675844669342041,0.381995290517807,0.2933972477912903
1772791017122505700,24.551505615234376,1.8417870998382568,-0.02851020358502865,0.843708872795105
1772791017142538500,24.57153857421875,1.948422908782959,-0.5216256380081177,1.1924892663955688
1772791017162571800,24.59157177734375,2.0134005546569824,-0.9648784399032593,1.5954004526138306
1772791017182603500,24.611603515625,1.911133885383606,-1.2161064147949219,2.3690786361694336
1772791017202636800,24.63163671875,1.6525098085403442,-1.243287205696106,3.201857089996338
1772791017222669600,24.651669677734375,1.2800883054733276,-1.3152949810028076,3.4245595932006836
1772791017242702800,24.671702880859375,0.7460803389549255,-1.5977911949157715,3.026144027709961
1772791017262734600,24.691734619140625,0.02303767390549183,-1.8981693983078003,2.256441593170166
1772791017282767600,24.711767578125,-0.702279806137085,-1.5736559629440308,1.292324423789978
1772791017302800600,24.731800537109375,-1.0751538276672363,-0.7291535139083862,0.16506698727607727
1772791017322832600,24.75183251953125,-1.0831853151321411,0.19931016862392426,-0.9882620573043823
1772791017342865700,24.77186572265625,-0.9918959140777588,0.7724863290786743,-2.042980432510376
1772791017362898700,24.791898681640625,-1.1877062320709229,0.7985403537750244,-2.7329206466674805
1772791017382931700,24.811931640625,-1.50405752658844,0.5212346911430359,-3.0000288486480713
1772791017402963700,24.831963623046875,-1.7391717433929443,0.014522749930620193,-2.6764976978302
1772791017422996500,24.85199658203125,-1.8214248418807983,-0.49760499596595764,-2.096649408340454
1772791017443029500,24.872029541015625,-1.8047128915786743,-0.9759907126426697,-1.525062084197998
1772791017463061200,24.892061279296875,-1.6967231035232544,-1.3647429943084717,-1.0389763116836548
1772791017483094300,24.91209423828125,-1.4692676067352295,-1.4738327264785767,-0.5585120320320129
1772791017503127300,24.932127197265626,-1.259211540222168,-1.268713116645813,-0.11758521944284439
1772791017523159300,24.9521591796875,-1.1627614498138428,-0.9590849876403809,0.127803236246109
1772791017543192300,24.9721923828125,-1.2011932134628296,-0.5977238416671753,0.08370581269264221
1772791017563225300,24.992225341796875,-1.312412977218628,-0.3239953815937042,-0.07885513454675674
1772791017583258400,25.01225830078125,-1.3868789672851562,0.014539794065058231,-0.2138212025165558
1772791017603290400,25.032290283203125,-1.3875359296798706,0.4201679825782776,-0.36353933811187744
1772791017623323400,25.052323486328124,-1.3707268238067627,0.6898833513259888,-0.5819395780563354
1772791017643356400,25.0723564453125,-1.3172333240509033,0.8767581582069397,-0.7547067999839783
