time,seconds_elapsed,z,y,x
1772791502861896200,0.157896240234375,5.440131664276123,2.00321888923645,3.1165175437927246
1772791502902093000,0.198093017578125,5.3598833084106445,2.012202024459839,4.183104515075684
1772791502922191600,0.218191650390625,6.796571731567383,3.936969041824341,8.423101425170898
1772791502942290000,0.2382900390625,9.746004104614258,5.059250831604004,5.951566219329834
1772791502962388500,0.258388427734375,11.329415321350098,3.3398959636688232,2.1319758892059326
1772791502982487000,0.278487060546875,10.005913734436035,1.3486543893814087,4.450798988342285
1772791503002585300,0.29858544921875,7.614627361297607,1.9217727184295654,6.424673557281494
1772791503022684000,0.318683837890625,7.3451361656188965,2.188868522644043,6.931916236877441
1772791503042782500,0.338782470703125,10.40296459197998,1.2145075798034668,7.6535539627075195
1772791503062880800,0.358880859375,13.205674171447754,0.40303927659988403,6.893588542938232
1772791503082979300,0.378979248046875,13.342815399169922,0.44615787267684937,4.230415344238281
1772791503103077600,0.39907763671875,10.82816219329834,0.5605419874191284,2.585919141769409
1772791503123176200,0.41917626953125,8.971067428588867,-0.5090391635894775,1.36721932888031
1772791503143274800,0.439274658203125,9.481304168701172,0.8426095843315125,3.0877718925476074
1772791503163375900,0.4593759765625,7.935621738433838,2.7907323837280273,3.871692180633545
1772791503183477500,0.4794775390625,4.981996536254883,4.290900707244873,3.135681390762329
1772791503203579100,0.4995791015625,4.46636962890625,3.7938392162323,2.7200658321380615
1772791503223680500,0.519680419921875,6.380956172943115,2.222405195236206,3.910019874572754
1772791503243782100,0.5397822265625,7.264288902282715,0.7515813708305359,4.168132781982422
1772791503263883800,0.5598837890625,7.335554122924805,-0.6048583388328552,4.057940483093262
1772791503283985200,0.579985107421875,6.243814945220947,-2.1475465297698975,7.022345542907715
1772791503304086800,0.600086669921875,7.018752098083496,-0.38986414670944214,7.557734966278076
1772791503324188400,0.6201884765625,8.971067428588867,1.7067784070968628,4.082494258880615
1772791503344290000,0.6402900390625,9.863982200622559,1.4534566402435303,0.42519745230674744
1772791503364391400,0.660391357421875,10.081371307373047,2.743421792984009,-4.092076301574707
1772791503384493000,0.6804931640625,7.86974573135376,2.1655125617980957,-1.7834337949752808
1772791503404594700,0.7005947265625,6.016843318939209,1.1049144268035889,3.618370294570923
1772791503424696300,0.7206962890625,7.013961315155029,0.7994909882545471,6.668413162231445
1772791503444797700,0.740797607421875,7.108582496643066,2.0601115226745605,3.8477373123168945
1772791503464899300,0.7608994140625,3.459669828414917,1.2246884107589722,1.4289029836654663
1772791503485001000,0.7810009765625,7.056480884552002,-4.440019607543945,3.986675262451172
1772791503505102300,0.801102294921875,20.04476547241211,-7.472695350646973,7.065464019775391
1772791503525204000,0.821203857421875,26.643110275268555,-7.4008307456970215,14.54654312133789
1772791503545305600,0.8413056640625,21.576074600219727,-7.057079792022705,19.95313835144043
1772791503565407000,0.861406982421875,17.13365936279297,-10.863494873046875,21.42096710205078
1772791503585508600,0.881508544921875,25.731033325195312,-14.006362915039062,21.693452835083008
1772791503605610200,0.9016103515625,31.94131088256836,-16.537784576416016,24.412919998168945
1772791503625711900,0.9217119140625,24.12845802307129,-20.272336959838867,22.936107635498047
1772791503645813200,0.941813232421875,11.216229438781738,-19.417749404907227,15.387955665588379
1772791503665915100,0.9619150390625,0.506044864654541,-14.660927772521973,9.111202239990234
1772791503686017000,0.98201708984375,-4.126211643218994,-10.0945463180542,3.3842122554779053
1772791503706118700,1.00211865234375,-7.472695350646973,-6.9331135749816895,-1.4965752363204956
1772791503726220500,1.022220458984375,-10.090953826904297,-4.8268890380859375,-5.726990222930908
1772791503746322400,1.042322509765625,-10.965303421020508,-4.282516956329346,-7.524198055267334
1772791503766424000,1.062424072265625,-8.814762115478516,-5.361680030822754,-8.083541870117188
1772791503786526000,1.08252587890625,-6.186922073364258,-6.192910671234131,-8.155406951904297
1772791503806627800,1.1026279296875,-5.46348762512207,-6.6797919273376465,-6.382153511047363
1772791503826729500,1.1227294921875,-3.932178020477295,-7.071452617645264,-3.7812628746032715
1772791503846831400,1.142831298828125,-3.3087546825408936,-6.464797496795654,-1.9265636205673218
1772791503866933200,1.162933349609375,-3.8142006397247314,-4.7550249099731445,1.902608871459961
1772791503887035000,1.183034912109375,-5.099973678588867,-2.190066337585449,6.749260902404785
1772791503907136800,1.20313671875,-7.378073692321777,0.4701126515865326,8.508739471435547
1772791503927238700,1.22323876953125,-11.589324951171875,3.0488452911376953,7.327768802642822
1772791503947340300,1.24334033203125,-17.388778686523438,3.388404369354248,8.775835990905762
1772791503967442200,1.263442138671875,-23.722423553466797,0.5180222392082214,11.256952285766602
1772791503987543800,1.283543701171875,-32.22996520996094,-16.93842887878418,10.936556816101074
1772791504007645700,1.303645751953125,-21.8317928314209,-49.49657440185547,0.1664857566356659
1772791504027747600,1.32374755859375,12.09956169128418,-73.45315551757812,-6.879814147949219
1772791504047849200,1.34384912109375,51.6602897644043,-70.05277252197266,13.288318634033203
1772791504067951000,1.363951171875,56.977054595947266,-51.02009963989258,35.07759094238281
1772791504088053000,1.384052978515625,16.882734298706055,-45.670997619628906,30.297412872314453
1772791504108154600,1.404154541015625,-9.982558250427246,-44.14268112182617,13.914735794067383
1772791504128256500,1.424256591796875,-14.2075834274292,-29.972227096557617,2.227196216583252
1772791504148358400,1.4443583984375,-8.356626510620117,-14.569899559020996,-1.3821910619735718
1772791504168460000,1.4644599609375,1.7720552682876587,-8.914772987365723,-0.15390948951244354
1772791504188561700,1.484561767578125,5.449713706970215,-8.246435165405273,0.8503949046134949
1772791504208663300,1.504663330078125,3.48781681060791,-8.097915649414062,0.004192087333649397
1772791504228765000,1.524764892578125,0.9168694019317627,-8.666242599487305,-0.8276378512382507
1772791504248866800,1.54486669921875,-0.032937828451395035,-9.817270278930664,-4.905341148376465
1772791504268968400,1.564968505859375,-9.42441177368164,-11.913912773132324,-11.798929214477539
1772791504289070000,1.585070068359375,-19.492008209228516,-10.619754791259766,-19.371036529541016
1772791504309171700,1.605171630859375,-17.15701675415039,-8.107497215270996,-21.235319137573242
1772791504329273600,1.625273681640625,-10.247258186340332,-6.182730197906494,-18.649398803710938
1772791504349375200,1.645375244140625,-6.348018169403076,-4.616086959838867,-16.565332412719727
1772791504369476900,1.665476806640625,-6.248605728149414,-4.086087703704834,-17.30134391784668
1772791504389578500,1.68557861328125,-9.538196563720703,-3.651308059692383,-15.67601203918457
1772791504409680100,1.70568017578125,-19.97888946533203,-2.6961112022399902,-9.203428268432617
1772791504429782000,1.725781982421875,-32.783321380615234,-2.8392410278320312,-4.485533714294434
1772791504449883600,1.745883544921875,-37.92042541503906,-13.9434814453125,-2.5877156257629395
1772791504469985300,1.7659853515625,-31.12385368347168,-32.231163024902344,2.470337152481079
1772791504490087000,1.7860869140625,-27.22940444946289,-50.69551086425781,15.98922061920166
1772791504510188800,1.806188720703125,-0.274282306432724,-66.60448455810547,39.56132888793945
1772791504530290400,1.82629052734375,38.53486633300781,-52.17112731933594,60.66189956665039
1772791504550392000,1.84639208984375,37.509002685546875,-35.1638298034668,55.81944274902344
1772791504570493700,1.86649365234375,11.542014122009277,-34.6098747253418,30.918441772460938
1772791504590595300,1.88659521484375,-5.567690849304199,-28.74514389038086,11.2090425491333
1772791504610697200,1.906697265625,-6.67859411239624,-18.00381851196289,2.4900999069213867
1772791504630798800,1.926798828125,-2.150540828704834,-9.043530464172363,-2.52004337310791
1772791504650900200,1.946900146484375,-0.4347793459892273,-4.253171920776367,-1.9750720262527466
1772791504671000800,1.967000732421875,-1.1252760887145996,-3.4464948177337646,-1.5301119089126587
1772791504691101400,1.987101318359375,-2.6757495403289795,-3.9615225791931152,-4.180109977722168
1772791504711202000,2.0072021484375,-6.4707865715026855,-2.5811281204223633,-7.951790809631348
1772791504731302700,2.027302734375,-10.280795097351074,0.8575813174247742,-10.925178527832031
1772791504751403500,2.047403564453125,-9.56694221496582,3.355466604232788,-11.633042335510254
1772791504771504000,2.067504150390625,-7.936220645904541,4.668787479400635,-5.8054423332214355
1772791504791604700,2.087604736328125,-10.87607192993164,8.294344902038574,3.1476588249206543
1772791504811705300,2.107705322265625,-15.394542694091797,12.688250541687012,9.046525001525879
1772791504831806000,2.127805908203125,-17.493581771850586,13.108657836914062,15.227458000183105
1772791504851906600,2.147906494140625,-17.049219131469727,7.3008198738098145,25.963993072509766
1772791504872007200,2.168007080078125,-11.661189079284668,-9.333982467651367,27.780364990234375
1772791504892107800,2.188107666015625,23.42837905883789,-27.827075958251953,21.910842895507812
1772791504912208600,2.208208740234375,49.75468826293945,-30.75494956970215,26.385597229003906
1772791504932309200,2.228309326171875,27.403675079345703,-34.04094696044922,34.40206527709961
1772791504952409900,2.248409912109375,2.6649699211120605,-31.968259811401367,24.22008514404297
1772791504972510500,2.268510498046875,0.13175131380558014,-20.06632423400879,6.474978446960449
1772791504992611000,2.288611083984375,5.902459144592285,-9.353744506835938,-2.2918741703033447
1772791505012711700,2.308711669921875,2.8685855865478516,-4.047161102294922,-2.8080997467041016
1772791505032812300,2.328812255859375,-12.119324684143066,-2.8296589851379395,-1.9618968963623047
1772791505052913200,2.3489130859375,-26.586816787719727,5.141894817352295,-16.5282039642334
1772791505073013800,2.369013671875,-27.754613876342773,7.854175090789795,-15.017254829406738
1772791505093114400,2.3891142578125,-18.46674346923828,-0.9761574864387512,-6.04439115524292
1772791505113215000,2.409215087890625,-8.508140563964844,-8.493767738342285,0.5809035301208496
1772791505133315600,2.429315673828125,-4.074708938598633,-10.619156837463379,5.968933582305908
1772791505153416200,2.449416259765625,-4.92091178894043,-9.654376983642578,9.668749809265137
1772791505173516800,2.469516845703125,-5.114346504211426,-7.233147621154785,11.600105285644531
1772791505193617200,2.4896171875,-5.606018543243408,-4.725680351257324,11.566568374633789
1772791505213717800,2.5097177734375,-7.463712215423584,-6.554628372192383,9.960399627685547
1772791505233818400,2.529818359375,-7.491858959197998,-10.948534965515137,10.582026481628418
1772791505253919000,2.5499189453125,-8.181756973266602,-17.71156883239746,11.059924125671387
1772791505274019600,2.57001953125,-4.169330596923828,-27.39289665222168,9.525620460510254
1772791505294120000,2.590119873046875,13.11524486541748,-30.640565872192383,7.579893112182617
1772791505314220500,2.610220458984375,35.296775817871094,-25.086050033569336,8.516525268554688
1772791505334321200,2.630321044921875,38.434852600097656,-19.263839721679688,10.409551620483398
1772791505354421800,2.650421875,25.300445556640625,-16.159299850463867,9.118988037109375
1772791505374522400,2.6705224609375,15.20470142364502,-15.409514427185059,7.704457759857178
1772791505394622700,2.690622802734375,13.27634048461914,-15.438260078430176,7.91945219039917
1772791505414723300,2.710723388671875,12.888872146606445,-15.099300384521484,8.808174133300781
1772791505434824000,2.730823974609375,9.679530143737793,-16.107196807861328,10.2855863571167
1772791505454924500,2.750924560546875,3.4357151985168457,-19.464460372924805,14.578283309936523
1772791505475025000,2.77102490234375,-2.028371572494507,-20.424448013305664,14.492046356201172
1772791505495125500,2.79112548828125,-6.24441385269165,-16.35512924194336,5.308979511260986
1772791505515226000,2.81122607421875,-18.278100967407227,-6.616910457611084,-7.058277606964111
1772791505535326700,2.83132666015625,-19.03387451171875,-2.5475914478302,-13.339221954345703
1772791505555427000,2.851427001953125,0.9306434392929077,-20.79215431213379,-4.0944719314575195
1772791505575527700,2.871527587890625,29.40270233154297,-38.54444885253906,11.28390121459961
1772791505595628300,2.891628173828125,45.647640228271484,-31.743684768676758,14.118950843811035
1772791505615729000,2.91172900390625,34.5589714050293,-19.721975326538086,11.96781063079834
1772791505635829500,2.93182958984375,22.86604118347168,-11.173110961914062,9.797507286071777
1772791505655930000,2.95193017578125,14.12673568725586,-6.468390941619873,8.076355934143066
1772791505676031200,2.97203125,7.93023157119751,-4.8256916999816895,8.592581748962402
1772791505696132400,2.99213232421875,4.111239910125732,-5.1838154792785645,7.081633567810059
1772791505716233200,3.012233154296875,-1.806190848350525,-5.212561130523682,1.5031627416610718
1772791505736334300,3.032334228515625,-9.746603012084961,-4.629861354827881,-4.907137870788574
1772791505756435500,3.052435546875,-20.324438095092773,-2.2846877574920654,-11.217427253723145
1772791505776536300,3.072536376953125,-20.882583618164062,-1.6061683893203735,-11.930082321166992
1772791505796637400,3.092637451171875,-13.50930118560791,-2.9105064868927,-10.11311149597168
1772791505816738600,3.112738525390625,-10.058614730834961,-4.066324710845947,-10.08975601196289
1772791505836839400,3.13283935546875,-11.916308403015137,-4.615488052368164,-11.609686851501465
1772791505856940500,3.1529404296875,-11.094059944152832,-4.047161102294922,-13.101470947265625
1772791505877041700,3.173041748046875,-11.410263061523438,-4.840064525604248,-7.206797122955322
1772791505897142500,3.193142578125,-13.16854476928711,-5.628176689147949,1.2306771278381348
1772791505917243600,3.21324365234375,-14.638769149780273,-4.705917835235596,3.157240629196167
1772791505937344800,3.2333447265625,-13.849459648132324,-8.058988571166992,2.1104166507720947
1772791505957445600,3.253445556640625,-6.282142639160156,-24.994422912597656,10.585619926452637
1772791505977546800,3.273546630859375,20.677770614624023,-50.47452926635742,27.383913040161133
1772791505997648000,3.29364794921875,76.08099365234375,-64.88872528076172,29.205076217651367
1772791506017748700,3.313748779296875,83.14227294921875,-61.942283630371094,36.523860931396484
1772791506037849900,3.333849853515625,34.37032699584961,-43.148555755615234,24.817157745361328
1772791506057951000,3.353950927734375,17.874462127685547,-21.22154426574707,4.916121006011963
1772791506078051800,3.3740517578125,17.73253059387207,-13.880599975585938,7.004978179931641
1772791506098153000,3.394153076171875,22.104877471923828,-11.297077178955078,7.50683069229126
1772791506118254000,3.414254150390625,17.723546981811523,-8.665044784545898,2.6356253623962402
1772791506138355000,3.43435498046875,5.482052803039551,-5.818617343902588,-0.8539881110191345
1772791506158456600,3.45445654296875,-2.6763484477996826,-3.7986299991607666,-2.283489942550659
1772791506178558700,3.474558837890625,-5.653928279876709,-3.9178051948547363,-0.2329602837562561
1772791506198660600,3.49466064453125,-5.975521087646484,-5.235917091369629,0.11618071049451828
1772791506218762500,3.514762451171875,-4.10345458984375,-5.001759052276611,-0.792304515838623
1772791506238864400,3.534864501953125,-1.97207772731781,-3.2824044227600098,0.3407568335533142
1772791506258966500,3.554966552734375,-2.189467430114746,-2.628438949584961,2.381704568862915
1772791506279068400,3.575068359375,-2.4350039958953857,-3.2153310775756836,2.5535800457000732
1772791506299170300,3.59517041015625,1.0246659517288208,-5.412583827972412,-0.5252086520195007
1772791506319272200,3.615272216796875,3.9830820560455322,-9.820862770080566,-1.8972190618515015
1772791506339374300,3.635374267578125,-0.6204289197921753,-13.526668548583984,-2.5709474086761475
1772791506359476200,3.655476318359375,-7.109780311584473,-13.454804420471191,-3.976494312286377
1772791506379578000,3.675578125,-8.546468734741211,-10.006512641906738,-6.558221340179443
1772791506399680000,3.695679931640625,-10.14425277709961,-5.918628692626953,-6.0994873046875
1772791506419782100,3.7157822265625,-21.667102813720703,-2.1307780742645264,-6.0994873046875
1772791506439884000,3.735884033203125,-21.74795150756836,-2.2745068073272705,-8.092525482177734
1772791506459986000,3.75598583984375,-8.418909072875977,-2.2026424407958984,-9.077666282653809
1772791506480087800,3.776087890625,-7.255904674530029,3.0266871452331543,-9.702286720275879
1772791506500189700,3.796189697265625,-15.262791633605957,5.648538589477539,0.7713440656661987
1772791506520291800,3.816291748046875,-0.29404500126838684,-4.830482482910156,33.70378494262695
1772791506540393700,3.836393798828125,26.36823081970215,-8.45064926147461,64.44615936279297
1772791506560495600,3.85649560546875,47.80297088623047,-5.9096455574035645,57.98794937133789
1772791506580597500,3.876597412109375,66.01399993896484,-5.350900173187256,44.18220520019531
1772791506600699600,3.89669970703125,59.12759780883789,-3.779466152191162,39.64576721191406
1772791506640903400,3.9369033203125,15.76703929901123,1.9798630475997925,11.274319648742676
1772791506661005800,3.957005859375,6.011453628540039,2.55298113822937,5.046075344085693
1772791506681108500,3.9771083984375,0.5096380710601807,1.2929595708847046,1.6415016651153564
1772791506701211000,3.9972109375,-2.997342586517334,-1.0905416011810303,-1.0929371118545532
1772791506721313500,4.0173134765625,-4.6562113761901855,-4.280720233917236,-3.5932178497314453
1772791506741416200,4.037416259765625,-4.287906646728516,-6.1575775146484375,-6.73907995223999
1772791506761518600,4.0575185546875,-4.907137870788574,-6.439645290374756,-8.493168830871582
1772791506781621200,4.077621337890625,-3.8531272411346436,-6.334244251251221,-8.268592834472656
1772791506801724000,4.097723876953125,-0.5114346742630005,-5.264662742614746,-7.5325822830200195
1772791506821826300,4.117826416015625,1.4875922203063965,-3.459070920944214,-5.70183801651001
1772791506841929000,4.137928955078125,2.7074897289276123,-2.94344425201416,0.6803159117698669
1772791506862031600,4.158031494140625,7.55653715133667,-3.8651046752929688,7.181644439697266
1772791506882134000,4.178134033203125,12.538533210754395,-3.4117603302001953,8.24763298034668
1772791506902236700,4.198236572265625,7.27806282043457,-2.260732889175415,3.481827974319458
1772791506922339000,4.218339111328125,-4.377737045288086,-0.034734439104795456,-1.0599992275238037
1772791506942441700,4.238441650390625,-11.694127082824707,1.09233820438385,-2.5368118286132812
1772791506962544400,4.25854443359375,-7.814051151275635,2.5775349140167236,-2.833252191543579
1772791506982646800,4.278646728515625,-2.250552177429199,3.8195905685424805,-3.0434556007385254
1772791507002749400,4.29874951171875,6.11026668548584,6.102481365203857,-0.28086987137794495
1772791507022852000,4.31885205078125,4.796347141265869,11.499494552612305,4.575963020324707
1772791507042954500,4.33895458984375,-0.034135568886995316,18.65359115600586,-0.013175131753087044
1772791507063057200,4.35905712890625,13.668002128601074,20.841262817382812,8.05659294128418
1772791507083159800,4.379159912109375,31.75625991821289,24.757869720458984,42.575439453125
1772791507103262200,4.39926220703125,31.36400032043457,27.059925079345703,39.20021057128906
1772791507123364900,4.41936474609375,20.389116287231445,25.96099853515625,17.48280143737793
1772791507143467500,4.439467529296875,11.18149471282959,23.544559478759766,8.041621208190918
1772791507163569400,4.4595693359375,1.7097728252410889,21.738967895507812,5.967136859893799
1772791507183671000,4.479671142578125,3.383014678955078,16.609649658203125,8.772841453552246
1772791507203773000,4.49977294921875,8.341055870056152,9.894524574279785,10.101733207702637
1772791507223874800,4.519874755859375,4.649623870849609,5.562900066375732,6.206086158752441
1772791507243976700,4.539976806640625,-0.9935247302055359,2.138563394546509,2.27630352973938
1772791507264078600,4.56007861328125,-3.338099241256714,-1.5438859462738037,1.3109256029129028
1772791507284180500,4.580180419921875,-3.498596429824829,-4.337612628936768,0.5072425603866577
1772791507304282400,4.600282470703125,-4.004641056060791,-5.187408924102783,-1.1180895566940308
1772791507324384300,4.62038427734375,-5.975521087646484,-4.795748233795166,-3.943556547164917
1772791507344486100,4.640486083984375,-7.233147621154785,-4.026799201965332,-5.363476276397705
1772791507364588000,4.660588134765625,-5.9425835609436035,-3.0668113231658936,-4.187296390533447
1772791507384690000,4.68068994140625,-1.8966201543807983,-2.2122244834899902,-0.19583037495613098
1772791507404791600,4.70079150390625,2.4326083660125732,-0.16289253532886505,3.4848225116729736
1772791507424893400,4.7208935546875,2.2577385902404785,1.5468802452087402,5.16285514831543
1772791507444995300,4.740995361328125,2.5224390029907227,1.2222929000854492,6.716322898864746
1772791507465097200,4.76109716796875,8.34045696258545,0.20002245903015137,4.560392379760742
1772791507485199000,4.78119921875,5.708425521850586,-0.12995471060276031,1.0001122951507568
1772791507505301000,4.801301025390625,-1.5983830690383911,-0.5791069269180298,-0.31919750571250916
1772791507525403000,4.82140283203125,-0.8138638138771057,-1.6822247505187988,-0.6204289197921753
1772791507545504800,4.8415048828125,5.075420379638672,-1.734925389289856,-4.69753360748291
1772791507565606700,4.861606689453125,7.698469161987305,1.6319197416305542,-9.081258773803711
1772791507585708500,4.88170849609375,-0.01976269856095314,10.988059997558594,-9.305835723876953
1772791507605810400,4.901810546875,-10.999438285827637,21.471872329711914,4.203465938568115
1772791507625912300,4.921912353515625,-8.121271133422852,23.013961791992188,19.30935287475586
1772791507646014000,4.942013916015625,10.680839538574219,29.69135856628418,22.13482093811035
1772791507666114800,4.96211474609375,-0.7617622017860413,39.92604064941406,32.45573806762695
1772791507686215400,4.98221533203125,-5.114945411682129,40.46622085571289,42.2640266418457
1772791507706316000,5.00231591796875,11.970805168151855,29.92551612854004,26.168806076049805
1772791507726417000,5.0224169921875,21.253883361816406,18.926076889038086,13.591346740722656
1772791507746517500,5.042517578125,12.609200477600098,12.435527801513672,8.165587425231934
1772791507766618000,5.0626181640625,-0.5964741706848145,7.702661037445068,3.653104782104492
1772791507786719000,5.082718994140625,-8.858479499816895,4.159149646759033,3.7531158924102783
1772791507806819600,5.102819580078125,-11.387506484985352,2.5158512592315674,1.0330501794815063
1772791507826920400,5.12292041015625,-9.04293155670166,0.6964854001998901,-1.8828461170196533
1772791507847021000,5.14302099609375,-6.353407859802246,-1.8684732913970947,-2.6140658855438232
1772791507867121700,5.16312158203125,-2.364337205886841,-4.113036632537842,-2.1792867183685303
1772791507887222500,5.183222412109375,2.688325881958008,-4.504697322845459,-1.0605981349945068
1772791507907323100,5.2033232421875,2.7919301986694336,-3.9076244831085205,-0.8785417675971985
1772791507927424000,5.223424072265625,-0.5066437125205994,-3.096156120300293,-1.619942307472229
1772791507947524600,5.243524658203125,-1.957704782485962,-2.3128345012664795,-3.0680091381073
1772791507967625200,5.263625244140625,-0.459931880235672,-2.8140883445739746,-3.8046188354492188
1772791507987726000,5.28372607421875,2.5841224193573,-4.270539283752441,-1.4097391366958618
1772791508007826700,5.30382666015625,3.7471272945404053,-3.993861675262451,0.0005988696357235312
1772791508027927300,5.32392724609375,1.369614839553833,-2.61346697807312,-0.042519744485616684
1772791508048028200,5.344028076171875,-1.4097391366958618,-1.2186996936798096,-0.06647452712059021
1772791508068128800,5.364128662109375,-2.794325828552246,-0.5072425603866577,0.3689036965370178
1772791508088229600,5.384229736328125,-1.6127558946609497,0.7773327827453613,2.414642333984375
1772791508108330200,5.404330322265625,-0.25152525305747986,3.179997682571411,3.2416813373565674
1772791508128430800,5.424430908203125,2.2248005867004395,7.263091087341309,1.8936257362365723
1772791508148531700,5.44453173828125,4.984991073608398,12.445110321044922,3.614777088165283
1772791508168633000,5.464633056640625,3.4776358604431152,16.404836654663086,11.349178314208984
1772791508188734700,5.484734619140625,1.1570161581039429,17.73253059387207,17.77385139465332
1772791508208836000,5.504836181640625,-0.5024515986442566,22.21686553955078,16.406633377075195
1772791508228937500,5.5249375,-10.678444862365723,32.413818359375,12.510985374450684
1772791508249038800,5.545038818359375,-15.19212532043457,38.202491760253906,16.297039031982422
1772791508269140500,5.565140380859375,-9.373507499694824,36.36815643310547,22.888797760009766
1772791508289241900,5.585241943359375,-6.211475849151611,34.46255111694336,21.101770401000977
1772791508309343200,5.60534326171875,-1.3055357933044434,27.575551986694336,17.076766967773438
1772791508329444600,5.625444580078125,2.3571507930755615,18.778156280517578,11.660591125488281
1772791508349546200,5.645546142578125,0.7030729651451111,10.964704513549805,7.616424083709717
1772791508369647600,5.665647705078125,-2.3499643802642822,4.6837592124938965,4.566380977630615
1772791508389749000,5.6857490234375,-3.7866528034210205,-0.1491185426712036,1.2390612363815308
1772791508409850400,5.705850341796875,-3.4890143871307373,-3.2201220989227295,-1.2318748235702515
1772791508429952000,5.725951904296875,-3.2105400562286377,-4.9257025718688965,-2.5326197147369385
1772791508450053400,5.746053466796875,-4.713104248046875,-5.8377814292907715,-1.7912191152572632
1772791508470154800,5.76615478515625,-2.4727327823638916,-5.9761199951171875,-2.5943033695220947
1772791508490256100,5.786256103515625,0.8827338218688965,-4.91552209854126,-4.999363899230957
1772791508510357800,5.806357666015625,-0.213796466588974,-3.4015796184539795,-6.01324987411499
1772791508530459100,5.826459228515625,-0.21858741343021393,-3.778867483139038,-3.7662911415100098
1772791508550560500,5.846560546875,2.4661452770233154,-4.418460369110107,-0.5299996137619019
1772791508570662000,5.866661865234375,3.118314266204834,-4.418460369110107,0.005389826837927103
1772791508590763500,5.886763427734375,1.7001909017562866,-4.055545330047607,0.2682935893535614
1772791508610865000,5.906864990234375,0.21619193255901337,-3.3632519245147705,0.3730957806110382
1772791508630966300,5.92696630859375,-1.2348692417144775,-2.7038965225219727,0.2730845510959625
1772791508651067600,5.947067626953125,-2.4829134941101074,-1.9589025974273682,0.16768349707126617
1772791508671168800,5.967168701171875,-3.6644833087921143,-0.9701688289642334,-0.7168469429016113
1772791508691269600,5.98726953125,-5.289815425872803,0.16109593212604523,-1.8253546953201294
1772791508711370800,6.007370849609375,-4.2268218994140625,0.8252423405647278,-3.49320650100708
1772791508731472000,6.027471923828125,-0.4880787432193756,1.9044054746627808,-5.152075290679932
1772791508751573000,6.047572998046875,-0.8186547756195068,7.922446250915527,-5.176030158996582
1772791508771674000,6.067674072265625,-2.9883594512939453,20.258562088012695,-3.3021671772003174
1772791508791775200,6.087775146484375,10.439495086669922,24.50933837890625,22.30609703063965
1772791508811876400,6.10787646484375,4.531646728515625,31.60175132751465,43.4929084777832
1772791508831977500,6.1279775390625,5.623385906219482,34.09963607788086,40.50514602661133
1772791508852078600,6.14807861328125,15.449639320373535,27.957630157470703,39.43436813354492
1772791508872179700,6.1681796875,19.178800582885742,23.97454833984375,29.567991256713867
1772791508892280800,6.18828076171875,23.834413528442383,21.428752899169922,23.758955001831055
1772791508912382000,6.2083818359375,17.1839656829834,17.593591690063477,27.459369659423828
1772791508932482800,6.22848291015625,6.237826347351074,13.180521965026855,19.23689079284668
1772791508952584000,6.248583984375,-0.6348018050193787,8.084739685058594,7.505633354187012
1772791508972685000,6.26868505859375,-6.632481098175049,3.58124041557312,0.13953661918640137
1772791508992786200,6.2887861328125,-10.14425277709961,0.8252423405647278,-4.7220869064331055
1772791509012887300,6.30888720703125,-10.602388381958008,-0.9084852337837219,-7.3181867599487305
1772791509032988400,6.328988525390625,-8.65067195892334,-2.5703485012054443,-8.015870094299316
1772791509053089500,6.349089599609375,-5.450911521911621,-4.060336112976074,-8.532095909118652
1772791509073190700,6.369190673828125,-1.7169592380523682,-4.123217582702637,-8.330875396728516
1772791509093291800,6.389291748046875,1.133061408996582,-3.1776022911071777,-7.484672546386719
1772791509113393000,6.409392822265625,5.2167534828186035,-2.288879632949829,-4.3921098709106445
1772791509133494000,6.429493896484375,6.417487144470215,-2.002619981765747,1.8798518180847168
1772791509153594600,6.4495947265625,4.621477127075195,-2.1026313304901123,8.003293991088867
1772791509173695500,6.469695556640625,4.498708724975586,-4.624471187591553,13.161357879638672
1772791509193796000,6.489796142578125,11.035370826721191,-5.2886176109313965,14.060261726379395
1772791509213896700,6.509896728515625,7.391249179840088,-4.065725803375244,6.703147888183594
1772791509233997300,6.529997314453125,0.6515701413154602,-2.590111255645752,-3.3351049423217773
1772791509254098200,6.55009814453125,-1.5462814569473267,-2.079275369644165,-5.06583833694458
1772791509274198800,6.57019873046875,-1.9391398429870605,-3.411161422729492,-0.9072874784469604
1772791509294299400,6.59029931640625,-2.7092862129211426,-5.412583827972412,2.635026454925537
1772791509314400000,6.61039990234375,-3.5177602767944336,-3.377624750137329,-1.5145412683486938
1772791509334500900,6.6305009765625,-3.4464948177337646,3.7429351806640625,-12.571471214294434
1772791509354601500,6.6506015625,-6.2066850662231445,14.866339683532715,-22.285137176513672
1772791509374702000,6.6707021484375,-11.72766399383545,18.38649559020996,0.4838866591453552
1772791509394802700,6.690802734375,7.348729133605957,22.842683792114258,12.721787452697754
1772791509414903300,6.7109033203125,26.391586303710938,47.44364929199219,-3.981285333633423
1772791509435004000,6.73100390625,6.554628372192383,45.07511901855469,15.035221099853516
1772791509455104800,6.751104736328125,-5.644346237182617,42.008907318115234,15.498745918273926
1772791509475205400,6.771205322265625,2.844031810760498,38.068946838378906,-0.41022568941116333
1772791509495306000,6.791305908203125,12.202568054199219,25.21181297302246,-0.9120784401893616
1772791509515406600,6.811406494140625,7.863757133483887,15.21548080444336,0.04850843921303749
1772791509535507200,6.831507080078125,-0.6725305914878845,9.813676834106445,-1.8828461170196533
1772791509555608000,6.851608154296875,-4.189093112945557,6.288730144500732,-2.2703146934509277
1772791509575708700,6.871708740234375,-4.8316802978515625,2.5781338214874268,-1.4336938858032227
1772791509595809300,6.891809326171875,-4.722685813903809,0.6629486680030823,-0.4629262387752533
1772791509615910000,6.911909912109375,-4.741849899291992,-0.770146369934082,-0.12396601587533951
1772791509636010800,6.9320107421875,-2.5062694549560547,-2.8236703872680664,-0.7976943254470825
1772791509656111600,6.952111572265625,2.0313658714294434,-5.588651657104492,-1.2570273876190186
1772791509676213200,6.972213134765625,4.15855073928833,-6.453419208526611,-0.6821125149726868
1772791509696314600,6.992314697265625,2.0169930458068848,-6.210278034210205,-0.75876784324646
1772791509716416300,7.012416259765625,0.41501665115356445,-6.969645023345947,-1.1126997470855713
1772791509736517600,7.032517578125,1.019874930381775,-7.270277500152588,-1.1222816705703735
1772791509756619300,7.052619384765625,1.2186996936798096,-6.912153244018555,-0.9450162649154663
1772791509776720600,7.072720703125,1.1097054481506348,-6.138413906097412,-1.0456264019012451
1772791509796822300,7.092822265625,0.46232736110687256,-5.044878005981445,-1.1600104570388794
1772791509816923600,7.112923583984375,0.46232736110687256,-4.027398109436035,-1.4037504196166992
1772791509837025300,7.133025390625,3.4399070739746094,-2.7859416007995605,-0.11318635940551758
1772791509857126700,7.153126708984375,6.389339923858643,1.3264962434768677,2.463749647140503
1772791509877228300,7.173228271484375,2.4709360599517822,10.195755958557129,1.0570049285888672
1772791509897329700,7.19332958984375,-0.49286970496177673,21.47666358947754,-3.0680091381073
1772791509917431000,7.21343115234375,11.942658424377441,27.838455200195312,7.601452350616455
1772791509937532700,7.23353271484375,19.963319778442383,26.62993621826172,19.03626823425293
1772791509957634300,7.25363427734375,10.997042655944824,34.085262298583984,8.810569763183594
1772791509977735700,7.273735595703125,-20.66519546508789,49.516937255859375,11.68394660949707
1772791509997837000,7.293837158203125,-24.021259307861328,45.70573043823242,20.059139251708984
1772791510017938700,7.313938720703125,3.8034210205078125,37.05625534057617,7.419395923614502
1772791510038040000,7.3340400390625,14.159074783325195,26.802410125732422,5.091589450836182
1772791510058141700,7.3541416015625,8.950705528259277,17.08275604248047,5.8659281730651855
1772791510078243000,7.3742431640625,1.8235580921173096,10.706591606140137,9.021970748901367
1772791510098344700,7.3943447265625,-1.8445184230804443,5.801848888397217,6.497735500335693
1772791510118446000,7.414446044921875,-2.8841562271118164,1.1833664178848267,1.009694218635559
1772791510138547700,7.434547607421875,-3.569262981414795,-2.651794672012329,-0.6294119954109192
1772791510158649300,7.4546494140625,-2.633828639984131,-4.510087013244629,-0.8779428601264954
1772791510178751000,7.4747509765625,-1.215705394744873,-5.3269453048706055,-1.9062020778656006
1772791510198852600,7.4948525390625,-2.39727520942688,-6.205487251281738,-3.1392745971679688
1772791510218954200,7.514954345703125,-5.719803810119629,-5.8329901695251465,-5.0897932052612305
1772791510239056000,7.535055908203125,-4.665793418884277,-6.664221286773682,-3.9231948852539062
1772791510259157500,7.555157470703125,1.2139087915420532,-7.251712322235107,-0.6629486680030823
1772791510279259100,7.575259033203125,4.5837483406066895,-6.1575775146484375,-0.5246098041534424
1772791510299361000,7.595361083984375,5.108357906341553,-4.547815799713135,-0.5821012854576111
1772791510319462700,7.615462646484375,2.4284164905548096,-3.12490177154541,0.3832765817642212
1772791510339564300,7.635564208984375,-1.3905752897262573,-1.7828348875045776,0.7324175834655762
1772791510359666000,7.655666015625,-1.9672867059707642,-0.43597710132598877,0.8090728521347046
1772791510379767600,7.675767578125,-0.8330276608467102,0.16109593212604523,2.926675796508789
1772791510399869200,7.695869140625,1.2749934196472168,1.6462926864624023,3.0314781665802
1772791510419971000,7.71597119140625,2.8254668712615967,5.066437244415283,-0.5246098041534424
1772791510440072700,7.73607275390625,1.5067559480667114,12.144476890563965,-4.196279525756836
1772791510460174300,7.75617431640625,-1.9343489408493042,20.296890258789062,-7.102593898773193
1772791510480276000,7.77627587890625,-0.5779091715812683,23.582887649536133,-4.043567657470703
1772791510500377600,7.796377685546875,6.180933475494385,28.024703979492188,-0.23355916142463684
1772791510520479200,7.816479248046875,-3.768087863922119,42.028072357177734,-0.3862709105014801
1772791510540580900,7.836580810546875,-29.177528381347656,52.71190643310547,8.801587104797363
1772791510560682500,7.8566826171875,-32.31620407104492,47.1525993347168,15.766441345214844
1772791510580784400,7.876784423828125,0.8923157453536987,29.66261100769043,4.637646675109863
1772791510600886000,7.896885986328125,17.836732864379883,18.716472625732422,-1.108507752418518
1772791510620987600,7.916987548828125,6.2563910484313965,10.788037300109863,2.5104615688323975
1772791510641089300,7.93708935546875,-5.365871906280518,5.214357852935791,5.110753536224365
1772791510661191200,7.957191162109375,-7.828423976898193,1.0210727453231812,2.161320447921753
1772791510681293300,7.977293212890625,-7.530186653137207,-3.3686416149139404,-1.2654114961624146
1772791510701395200,7.997395263671875,-7.048096656799316,-6.152786731719971,-2.8572070598602295
1772791510721497000,8.0174970703125,-6.367780685424805,-6.5971479415893555,-4.49212121963501
1772791510741599200,8.03759912109375,-3.475240468978882,-7.079237937927246,-5.290414333343506
1772791510761701000,8.057701171875,0.06527678668498993,-7.74338436126709,-5.534154415130615
1772791510781803000,8.077802978515624,2.480518102645874,-8.063180923461914,-4.195680618286133
1772791510801905200,8.0979052734375,5.0466742515563965,-7.886514186859131,-0.409626841545105
1772791510822007000,8.118007080078126,4.498708724975586,-6.669012069702148,3.041658878326416
1772791510842109000,8.13810888671875,1.2468465566635132,-5.059250831604004,3.03686785697937
1772791510862211000,8.158211181640626,-0.057491485029459,-4.3094658851623535,1.0869483947753906
1772791510882313000,8.17831298828125,2.711681604385376,-4.3477935791015625,0.13534453511238098
1772791510902414800,8.198414794921876,5.273645877838135,-3.8698956966400146,0.9096829891204834
1772791510922517000,8.21851708984375,4.342403888702393,-2.3942809104919434,1.765467643737793
1772791510942619000,8.238618896484375,3.1656248569488525,0.40483587980270386,1.7558857202529907
1772791510962720800,8.258720703125,2.078676462173462,3.6716697216033936,2.09484601020813
1772791510982823000,8.278822998046875,1.00071120262146,7.640378952026367,1.1869596242904663
1772791511002924800,8.2989248046875,4.129805088043213,14.62739086151123,-0.9833439588546753
1772791511023027000,8.31902685546875,9.414230346679688,23.582887649536133,2.5398061275482178
1772791511043128800,8.33912890625,5.5575103759765625,28.731369018554688,8.453044891357422
1772791511063230700,8.359230712890625,5.892877101898193,34.209228515625,7.100198268890381
1772791511083332900,8.379332763671876,-7.218175888061523,42.05202865600586,7.496650218963623
1772791511103434800,8.399434814453125,-16.624021530151367,46.11116409301758,15.641876220703125
1772791511123536600,8.41953662109375,-4.25017786026001,42.997642517089844,19.021896362304688
1772791511143638800,8.439638671875,6.247407913208008,35.58962631225586,11.315641403198242
1772791511163739600,8.45973974609375,5.599431037902832,24.79619789123535,8.481191635131836
1772791511183840300,8.47984033203125,-0.417412132024765,13.63925552368164,7.8020734786987305
1772791511203941000,8.499941162109375,-2.5392072200775146,5.968933582305908,2.816483974456787
1772791511224042000,8.5200419921875,-1.12168288230896,-0.2018190622329712,-0.1431298404932022
1772791511244142600,8.540142578125,-2.1421566009521484,-4.380731582641602,0.2539207339286804
1772791511284344300,8.58034423828125,-9.53939437866211,-6.152786731719971,-1.2564284801483154
1772791511304445200,8.600445068359376,-6.835497856140137,-7.2463226318359375,-3.4411048889160156
1772791511324546000,8.620546142578124,-3.1111278533935547,-7.694875717163086,-5.922221660614014
1772791511344646700,8.640646728515625,2.276902437210083,-9.104016304016113,-3.910019874572754
1772791511364747500,8.66074755859375,6.847475528717041,-8.693191528320312,0.043717484921216965
1772791511384848400,8.680848388671874,5.43414306640625,-6.677995204925537,1.0282591581344604
1772791511404949200,8.70094921875,3.0662126541137695,-5.049069881439209,0.9659767150878906
1772791511425049900,8.7210498046875,1.1378523111343384,-3.955533981323242,1.7498971223831177
1772791511445150700,8.741150634765624,-0.6204289197921753,-3.239285945892334,2.8302578926086426
1772791511465251600,8.76125146484375,-0.8282366991043091,-2.799715518951416,2.2038402557373047
1772791511485352200,8.781352294921875,0.5803046822547913,-2.370326042175293,1.2965527772903442
1772791511505453000,8.801453125,0.5521578192710876,-1.1713889837265015,0.7851181030273438
1772791511525554000,8.821553955078125,-0.8563835620880127,0.213796466588974,0.2976382076740265
1772791511545654800,8.84165478515625,-1.0737732648849487,2.9883594512939453,-0.8785417675971985
1772791511565755600,8.861755615234374,3.921997308731079,8.714751243591309,-4.12920618057251
1772791511585856300,8.881856201171875,8.066774368286133,17.312124252319336,-5.176030158996582
1772791511605957000,8.90195703125,-0.44555899500846863,30.015945434570312,0.6371973156929016
1772791511626058000,8.92205810546875,7.097803115844727,39.54396057128906,10.933563232421875
1772791511646158800,8.942158935546875,7.542164325714111,52.544822692871094,13.41947078704834
1772791511666261200,8.96226123046875,-22.4372501373291,59.245574951171875,16.809072494506836
1772791511686363400,8.98236328125,4.753827095031738,40.60934829711914,20.470561981201172
1772791511706465800,9.0024658203125,25.101022720336914,28.143878936767578,7.965565204620361
1772791511726568200,9.022568115234375,7.878129959106445,20.353782653808594,8.314705848693848
1772791511746670600,9.042670654296876,-5.167047023773193,13.146985054016113,10.661676406860352
1772791511766772700,9.062772705078125,-5.256877899169922,6.966650485992432,6.0629563331604
1772791511786875100,9.082875244140626,-4.9640302658081055,1.201931357383728,2.5398061275482178
1772791511806977500,9.1029775390625,-6.537859916687012,-2.8338510990142822,1.1246771812438965
1772791511827080000,9.123079833984375,-6.98641300201416,-4.319047927856445,0.16888123750686646
1772791511847182000,9.14318212890625,-8.121271133422852,-5.173635005950928,-0.8252423405647278
1772791511867284500,9.163284423828125,-6.1737470626831055,-7.19901180267334,-3.535726308822632
1772791511887387000,9.183386962890625,-1.3528465032577515,-8.869857788085938,-5.83179235458374
1772791511907489300,9.2034892578125,2.5224390029907227,-10.107122421264648,-4.320844650268555
1772791511927591700,9.223591796875,5.453306674957275,-9.438185691833496,-1.4480668306350708
1772791511947693800,9.24369384765625,3.647714853286743,-7.174458026885986,-0.4395703077316284
1772791511967796200,9.263796142578125,2.546393632888794,-6.133023738861084,0.09102818369865417
1772791511987898600,9.283898681640625,2.205636978149414,-5.158663272857666,0.40184152126312256
1772791512008000800,9.304000732421875,1.7708574533462524,-3.7692854404449463,0.980349600315094
1772791512028103200,9.324103271484375,0.2772766351699829,-2.3793091773986816,2.8254668712615967
1772791512048205600,9.34420556640625,-1.452258825302124,-0.530598521232605,3.3464834690093994
1772791512068308000,9.364307861328125,0.23954784870147705,1.0546094179153442,1.7157615423202515
1772791512088410400,9.384410400390625,3.2979750633239746,2.6637721061706543,2.099637031555176
1772791512108512500,9.404512451171875,3.2931840419769287,5.1233296394348145,3.4908111095428467
1772791512128615000,9.424614990234375,1.421716570854187,9.904106140136719,2.5392072200775146
1772791512148717000,9.444717041015625,0.3581240475177765,15.234644889831543,0.7467904090881348
1772791512168818000,9.46481787109375,-1.0977280139923096,22.06415367126465,-0.6683385372161865
1772791512188918800,9.484918701171875,0.901897668838501,30.264476776123047,-0.1473219245672226
1772791512209019600,9.50501953125,2.3667328357696533,37.93000793457031,4.723883628845215
1772791512229120500,9.52512060546875,2.5278286933898926,48.03114318847656,20.15016746520996
1772791512249221400,9.545221435546875,-0.8048807978630066,50.777557373046875,33.8457145690918
1772791512269322200,9.565322265625,5.27843713760376,40.442264556884766,19.748924255371094
1772791512289423000,9.585423095703124,9.532208442687988,27.30306625366211,3.9016356468200684
1772791512309524000,9.60552392578125,2.85361385345459,16.619232177734375,3.811206340789795
1772791512329624800,9.625624755859375,-1.4947786331176758,10.243664741516113,1.9325523376464844
1772791512349725700,9.6457255859375,-1.3624284267425537,5.443725109100342,-0.5389826893806458
1772791512369826600,9.66582666015625,-0.1664857566356659,0.9683722257614136,-0.08503948897123337
1772791512389927400,9.685927490234375,-0.780925989151001,-2.375117063522339,0.6036605834960938
1772791512410028300,9.7060283203125,-2.0331623554229736,-4.73406457901001,0.8474005460739136
1772791512430129200,9.726129150390625,-3.338099241256714,-5.966537952423096,0.6605532169342041
1772791512450230000,9.74622998046875,-4.713104248046875,-6.3773627281188965,-0.7300220727920532
1772791512470331000,9.766330810546876,-7.629599094390869,-7.208593845367432,-3.0105175971984863
1772791512490431700,9.786431640625,-7.521203517913818,-8.320694923400879,-5.123928546905518
1772791512510532600,9.80653271484375,1.7001909017562866,-9.882546424865723,-2.723659038543701
1772791512530633500,9.826633544921876,7.603847980499268,-8.889620780944824,-0.7449938058853149
1772791512550734300,9.846734375,5.703634262084961,-6.716322898864746,0.06288131326436996
1772791512570835200,9.866835205078125,2.173297882080078,-4.896358013153076,0.7899090647697449
1772791512590936000,9.88693603515625,0.47131040692329407,-3.0817830562591553,0.8420107364654541
1772791512611037000,9.907036865234375,0.5048471093177795,-1.237863540649414,1.8840439319610596
1772791512631137800,9.9271376953125,-0.06707339733839035,0.4527454376220703,3.8680989742279053
1772791512651238700,9.94723876953125,-0.7479881644248962,3.3087546825408936,4.54721736907959
1772791512671339300,9.96733935546875,0.28266647458076477,7.626006126403809,3.366246223449707
1772791512691440000,9.987440185546875,-0.26589810848236084,11.265336990356445,2.0379533767700195
1772791512711541000,10.007541015625,2.3625407218933105,16.213197708129883,-1.8726654052734375
1772791512731641900,10.027641845703124,2.8727777004241943,27.00243377685547,-0.1946326345205307
1772791512751742500,10.047742431640625,-8.986039161682129,39.15230178833008,6.40730619430542
1772791512771843300,10.06784326171875,-4.684957027435303,47.7586555480957,19.323726654052734
1772791512791944200,10.087944091796874,-0.9462140202522278,49.726539611816406,26.336490631103516
1772791512812044800,10.108044921875,11.56477165222168,39.2385368347168,20.107646942138672
1772791512832145700,10.128145751953125,22.133024215698242,27.70909881591797,6.24980354309082
1772791512852246500,10.14824658203125,16.806676864624023,18.161319732666016,3.4578733444213867
1772791512872347100,10.16834716796875,2.7637834548950195,9.727439880371094,7.381667137145996
1772791512892448000,10.188447998046875,-5.588052749633789,3.6764607429504395,7.085226535797119
1772791512912548900,10.208548828125,-6.963057041168213,-1.696597695350647,2.7589924335479736
1772791512932649500,10.2286494140625,-4.7604146003723145,-6.353407859802246,-0.716248095035553
1772791512952750300,10.248750244140625,-4.264550685882568,-7.437362194061279,-3.1111278533935547
1772791512972851200,10.268851318359374,-5.148482322692871,-7.0648651123046875,-4.301680564880371
1772791512992951800,10.288951904296875,-5.328143119812012,-6.897780418395996,-5.128719329833984
1772791513013052700,10.309052734375,-3.0781898498535156,-8.335067749023438,-4.851442813873291
1772791513033153500,10.329153564453126,4.489126682281494,-9.710671424865723,-1.5672417879104614
1772791513053254100,10.349254150390625,7.116966724395752,-8.578807830810547,0.10120896995067596
1772791513073355000,10.36935498046875,4.777781963348389,-6.601938724517822,0.852790355682373
1772791513093456000,10.389455810546876,1.6768349409103394,-4.7442450523376465,1.201332449913025
1772791513113556500,10.409556396484374,-0.20421454310417175,-3.1153197288513184,1.0294568538665771
1772791513133657300,10.4296572265625,-0.4024403989315033,-1.9505183696746826,1.1588127613067627
1772791513153758700,10.4497587890625,-0.11438409984111786,-0.8851293325424194,3.162031650543213
1772791513173860600,10.469860595703125,1.1713889837265015,0.667140781879425,5.891679286956787
1772791513193962500,10.48996240234375,3.459070920944214,4.096268177032471,6.168956279754639
1772791513214064400,10.510064453125,1.658270001411438,8.80997085571289,2.387693166732788
1772791513234166500,10.53016650390625,-2.832054615020752,16.28925323486328,-1.7762473821640015
1772791513254268400,10.550268310546874,-6.00786018371582,25.21540641784668,2.5260322093963623
1772791513274370300,10.570370361328125,5.358685493469238,32.103004455566406,14.380656242370605
1772791513294472200,10.59047216796875,13.691357612609863,33.645694732666016,18.941049575805664
1772791513314574300,10.61057421875,7.003780364990234,38.555824279785156,19.462064743041992
1772791513334676200,10.63067626953125,-4.472358226776123,42.6964111328125,22.5833740234375
1772791513354778000,10.650778076171875,-7.984129905700684,39.23374557495117,18.87397575378418
1772791513374880000,10.6708798828125,-1.6600666046142578,30.393232345581055,9.284276008605957
1772791513394982100,10.690982177734375,1.9038065671920776,21.237714767456055,6.368379592895508
1772791513415084000,10.711083984375,-0.4126211702823639,13.596137046813965,5.383239269256592
1772791513435186000,10.73118603515625,-0.8330276608467102,7.234345436096191,3.036268949508667
1772791513455287800,10.751287841796875,1.757083535194397,0.944417417049408,1.4780102968215942
1772791513475390000,10.771389892578124,0.4671183228492737,-3.454280138015747,-0.03712991625070572
1772791513495491800,10.791491943359375,-4.5292510986328125,-6.1623687744140625,-1.2181007862091064
1772791513515593700,10.81159375,-7.454729080200195,-7.4661078453063965,-2.1164052486419678
1772791513535695600,10.831695556640625,-6.164165019989014,-8.497960090637207,-3.9615225791931152
1772791513555797800,10.8517978515625,-4.1555562019348145,-9.481903076171875,-7.240932941436768
1772791513575899600,10.871899658203125,-0.9510049819946289,-11.005427360534668,-6.700752258300781
1772791513596001500,10.89200146484375,6.979825496673584,-11.315641403198242,-2.1595239639282227
1772791513616103700,10.912103759765625,10.519743919372559,-7.700265884399414,-0.24254220724105835
1772791513636205600,10.93220556640625,6.403114318847656,-3.88905930519104,1.3732080459594727
1772791513656308000,10.952307861328125,1.3887786865234375,-0.2449376881122589,2.711681604385376
1772791513676410400,10.972410400390626,0.1269603669643402,2.7206647396087646,4.485533714294434
1772791513696513000,10.992512939453125,-0.36471161246299744,3.900437831878662,5.374855041503906
1772791513716615700,11.01261572265625,-2.019388437271118,4.120223045349121,3.658494710922241
1772791513736718300,11.03271826171875,-2.283489942550659,4.769996643066406,1.4738181829452515
1772791513756821000,11.052821044921876,-1.9762698411941528,5.276041507720947,2.382303476333618
1772791513776923600,11.072923583984375,-0.5683273077011108,6.833102703094482,0.7665531635284424
1772791513797026300,11.0930263671875,4.966425895690918,10.309540748596191,-5.265860557556152
1772791513817129000,11.11312890625,7.211588382720947,15.611333847045898,-7.326570987701416
1772791513837231600,11.133231689453124,-0.7761350274085999,26.605382919311523,-3.048246383666992
1772791513857334300,11.153334228515625,-1.683422565460205,35.27402114868164,4.26095724105835
1772791513877437000,11.17343701171875,5.126923084259033,43.833065032958984,15.025639533996582
1772791513897539600,11.19353955078125,-5.152674198150635,49.3115234375,25.963394165039062
1772791513917642200,11.213642333984374,-23.614627838134766,46.95676803588867,21.823408126831055
1772791513937745000,11.233744873046875,-8.593779563903809,27.35576629638672,13.281131744384766
1772791513957847600,11.25384765625,8.057790756225586,12.636149406433105,1.707377314567566
1772791513977950200,11.2739501953125,6.8995771408081055,5.749148368835449,-4.736459732055664
1772791513998052900,11.294052978515625,-0.5964741706848145,1.4366883039474487,-3.9621214866638184
1772791514018155500,11.314155517578126,-4.973612308502197,-1.3432645797729492,-2.7763595581054688
1772791514038258200,11.334258056640625,-6.97743034362793,-3.9746978282928467,-2.1978516578674316
1772791514058360800,11.35436083984375,-8.041022300720215,-6.8450798988342285,-2.341580390930176
1772791514078463500,11.37446337890625,-9.1746826171875,-8.64168930053711,-5.218550205230713
1772791514098566100,11.394566162109374,-4.788561820983887,-10.757494926452637,-5.237713813781738
1772791514118668800,11.414668701171875,7.641576766967773,-12.104352951049805,-1.4085414409637451
1772791514138771500,11.434771484375,14.665119171142578,-7.643373012542725,-1.1312646865844727
1772791514158872800,11.454872802734375,9.910693168640137,-1.969682216644287,-3.048246383666992
1772791514178973700,11.4749736328125,4.078302383422852,1.3738069534301758,2.2535464763641357
1772791514199074600,11.495074462890624,-2.4445858001708984,3.475240468978882,10.667065620422363
1772791514219175400,11.515175537109375,-7.213384628295898,4.096268177032471,10.509563446044922
1772791514239276300,11.5352763671875,-6.286933422088623,0.9294456839561462,5.341917037963867
1772791514259377200,11.555377197265624,-4.027398109436035,-0.25990942120552063,0.11677958071231842
1772791514279477800,11.575477783203125,-5.412583827972412,-0.2694913446903229,0.8767451643943787
1772791514299578600,11.59557861328125,-3.3752293586730957,2.0421454906463623,1.1109031438827515
1772791514319679500,11.615679443359374,0.5521578192710876,4.292098522186279,0.7575700879096985
1772791514339780400,11.6357802734375,5.581464767456055,8.174570083618164,-0.5425758957862854
1772791514359881200,11.655881103515625,13.077516555786133,13.199087142944336,-2.27810001373291
1772791514379982000,11.675982177734374,16.149717330932617,18.233184814453125,-1.374405860900879
1772791514400083000,11.6960830078125,7.429576873779297,28.06183433532715,-1.2456488609313965
1772791514420183800,11.716183837890625,-2.590710163116455,35.804019927978516,8.463824272155762
1772791514440284700,11.73628466796875,-4.887973785400391,41.74540710449219,10.389789581298828
1772791514460385500,11.756385498046875,-3.469850778579712,43.517459869384766,9.099225044250488
1772791514480486100,11.776486083984375,-1.2959538698196411,40.10270690917969,10.317924499511719
1772791514500587000,11.7965869140625,1.6630610227584839,31.735300064086914,9.997529983520508
1772791514520687900,11.81668798828125,2.64101505279541,21.456899642944336,7.287045955657959
1772791514540788700,11.836788818359375,3.3452858924865723,12.912827491760254,1.913987398147583
1772791514560889600,11.8568896484375,1.322304129600525,6.1018829345703125,-0.36650821566581726
1772791514580990500,11.876990478515625,-2.4020659923553467,1.4696260690689087,-0.38088110089302063
1772791514601091300,11.89709130859375,-4.737058639526367,-1.7780439853668213,0.08324287831783295
1772791514621192200,11.917192138671876,-3.4464948177337646,-3.8082120418548584,-0.36650821566581726
1772791514641293000,11.93729296875,-1.9954335689544678,-5.0352959632873535,-1.4085414409637451
1772791514661394400,11.95739453125,-2.057117223739624,-5.895272731781006,-2.622450113296509
1772791514681496300,11.977496337890624,-3.0159075260162354,-6.095893859863281,-3.625556707382202
1772791514721699600,12.017699462890626,0.5569487810134888,-6.750458717346191,-0.9869371652603149
1772791514741801200,12.03780126953125,5.723397254943848,-5.809634208679199,-0.26050829887390137
1772791514761903000,12.057903076171876,5.189205169677734,-4.6059064865112305,1.5468802452087402
1772791514782004700,12.078004638671874,2.0367555618286133,-3.5554890632629395,2.4457836151123047
1772791514802106400,12.0981064453125,-0.5395815372467041,-2.409252643585205,2.2733092308044434
1772791514822208000,12.1182080078125,-2.1984503269195557,-1.6403039693832397,1.4181232452392578
1772791514842310000,12.138309814453125,-2.6044840812683105,-1.6019762754440308,0.08444061875343323
1772791514862411500,12.15841162109375,-1.6025751829147339,-1.3732080459594727,-0.4317850172519684
1772791514882513200,12.17851318359375,-0.9791518449783325,0.07006774842739105,0.848598301410675
1772791514922716700,12.218716552734374,0.46232736110687256,8.695587158203125,-2.507467269897461
1772791514942818300,12.238818359375,-1.4941797256469727,15.438858985900879,-2.354755401611328
1772791514962920000,12.258919921875,-5.909046649932861,21.767114639282227,-2.6649699211120605
1772791514983021600,12.279021484375,3.5770483016967773,26.2376766204834,1.3456600904464722
1772791515003123500,12.29912353515625,6.64924955368042,29.399707794189453,14.63996696472168
1772791515023225000,12.31922509765625,-8.801587104797363,35.97110366821289,24.85069465637207
1772791515043326700,12.33932666015625,-11.377325057983398,37.595237731933594,18.492494583129883
1772791515063428600,12.3594287109375,-1.4139312505722046,34.280494689941406,7.321181297302246
1772791515083530200,12.3795302734375,1.322903037071228,31.5670166015625,6.246210098266602
1772791515103632000,12.3996318359375,2.3248119354248047,26.24186897277832,9.291461944580078
1772791515123733500,12.4197333984375,4.4142680168151855,19.55548858642578,5.912041187286377
1772791515143835400,12.43983544921875,1.6492869853973389,12.415166854858398,0.7875135540962219
1772791515163936800,12.459936767578125,-3.79563570022583,6.330650806427002,-3.72976016998291
1772791515184038400,12.480038330078125,-6.428266525268555,3.64172625541687,-6.258786678314209
1772791515204140000,12.50014013671875,-6.660029411315918,1.5355017185211182,-3.2470712661743164
1772791515224241700,12.52024169921875,-4.63704776763916,-0.9575925469398499,-0.3641127347946167
1772791515244343300,12.54034326171875,-1.3989595174789429,-2.6200547218322754,-0.28266647458076477
1772791515264444700,12.560444580078125,0.8222479820251465,-3.3842122554779053,-1.8984167575836182
1772791515284546300,12.58054638671875,0.9635812640190125,-3.818392753601074,-3.338698148727417
1772791515304648000,12.60064794921875,1.1198861598968506,-4.577759265899658,-3.343489170074463
1772791515324749600,12.62074951171875,0.8264400959014893,-4.844855308532715,-1.4504622220993042
1772791515344851000,12.640850830078126,0.4581352770328522,-4.620279312133789,0.14133323729038239
1772791515364952600,12.66095263671875,2.149941921234131,-4.448403835296631,0.13654227554798126
1772791515385054200,12.68105419921875,4.012426376342773,-4.290900707244873,0.13654227554798126
1772791515405155800,12.70115576171875,3.0338735580444336,-3.49320650100708,1.2073211669921875
1772791515425257500,12.721257568359375,0.3114122152328491,-1.8457162380218506,2.8566081523895264
1772791515445358800,12.74135888671875,-1.985851764678955,0.38986414670944214,2.2733092308044434
1772791515465460500,12.76146044921875,-3.42733097076416,2.5865180492401123,-0.9486095309257507
1772791515485562000,12.78156201171875,-6.206086158752441,4.701725482940674,-4.724482536315918
1772791515505663700,12.801663818359375,-7.184638977050781,8.01646900177002,-9.633417129516602
1772791515525765400,12.821765380859375,-8.054197311401367,10.83894157409668,-15.652056694030762
1772791515545866800,12.84186669921875,-8.479394912719727,10.026874542236328,-14.34712028503418
1772791515565968400,12.861968505859375,-5.7946624755859375,8.092525482177734,-7.520605087280273
1772791515586070000,12.882070068359376,-12.085787773132324,10.73833179473877,-1.9654901027679443
1772791515626273000,12.92227294921875,10.625144958496094,-3.541714906692505,24.55605125427246
1772791515646374700,12.942374755859374,27.30486297607422,-5.361680030822754,16.08983039855957
1772791515666475000,12.96247509765625,35.09855270385742,-6.2833404541015625,7.390051364898682
1772791515686575000,12.9825751953125,35.56147766113281,-5.556911468505859,6.704944610595703
1772791515706675500,13.002675537109376,26.193359375,0.13175131380558014,6.728899002075195
1772791515726775800,13.02277587890625,18.24396514892578,0.9102818369865417,6.7624359130859375
1772791515746876200,13.042876220703125,18.05472183227539,0.5467679500579834,2.364337205886841
1772791515766976300,13.062976318359375,13.583560943603516,1.674439549446106,-0.570722758769989
1772791515787076600,13.08307666015625,8.55904483795166,1.3348804712295532,1.8960212469100952
1772791515807177000,13.103177001953124,7.836209297180176,1.416326642036438,5.471272945404053
1772791515827277300,13.12327734375,6.843283176422119,2.3571507930755615,5.308979511260986
1772791515847377700,13.143377685546875,8.965677261352539,1.9798630475997925,3.0236928462982178
1772791515867477800,13.163477783203126,10.912602424621582,1.215705394744873,0.5096380710601807
1772791515887578000,13.183578125,11.352771759033203,2.1086199283599854,-1.1965415477752686
1772791515907678500,13.203678466796875,7.368492126464844,1.6642587184906006,2.034959077835083
1772791515927778800,13.22377880859375,2.8027098178863525,1.683422565460205,3.5219523906707764
1772791515947879000,13.24387890625,4.617284774780273,2.6865291595458984,0.33836135268211365
1772791515967979300,13.263979248046875,7.869146823883057,2.519444465637207,-0.2593105435371399
1772791515988079600,13.28407958984375,9.599281311035156,2.012800931930542,0.8545869588851929
1772791516008180000,13.304179931640626,9.045926094055176,2.404461622238159,0.510236918926239
1772791516028280000,13.324280029296874,6.942695617675781,3.2309017181396484,0.2856608033180237
1772791516048380400,13.34438037109375,7.34932804107666,4.520267963409424,1.9205749034881592
1772791516068480800,13.364480712890625,8.33746337890625,5.408990383148193,2.58052921295166
1772791516088581000,13.3845810546875,9.66036605834961,6.736684322357178,0.7683497667312622
1772791516108681500,13.404681396484374,9.972376823425293,4.377138137817383,2.3176255226135254
1772791516128781600,13.424781494140625,16.0509033203125,3.7609012126922607,1.528914213180542
1772791516148882000,13.4448818359375,15.19511890411377,5.002956867218018,1.4474679231643677
1772791516168982800,13.464982666015626,9.712468147277832,5.303589344024658,3.1925740242004395
1772791516189083600,13.485083740234375,9.150129318237305,4.787962913513184,3.5459070205688477
1772791516209184500,13.5051845703125,9.2447509765625,3.966313600540161,1.982857346534729
1772791516229285400,13.525285400390626,9.736422538757324,3.350076675415039,1.0318523645401
1772791516249386000,13.545385986328125,8.970468521118164,3.31174898147583,1.1749821901321411
1772791516269486800,13.56548681640625,6.848673343658447,4.266946315765381,0.4581352770328522
1772791516289587700,13.585587646484376,6.2671709060668945,4.7825727462768555,-0.5311973690986633
1772791516309688600,13.6056884765625,8.030242919921875,4.414866924285889,-0.8174570798873901
1772791516329789400,13.62578955078125,9.765168190002441,3.61238169670105,-0.10061009973287582
1772791516349890000,13.64589013671875,10.780851364135742,3.1207096576690674,0.9030954241752625
1772791516369991000,13.665990966796874,11.206647872924805,3.1111278533935547,0.34435003995895386
1772791516390091800,13.686091796875,9.79810619354248,3.421342134475708,-0.4156155288219452
1772791516410192600,13.706192626953126,8.677620887756348,3.999251365661621,-0.41082456707954407
1772791516430293500,13.72629345703125,8.583598136901855,4.577160835266113,0.114982970058918
1772791516450394400,13.746394287109375,8.266796112060547,4.753827095031738,0.42100536823272705
1772791516470495000,13.766494873046875,8.451248168945312,4.4142680168151855,0.9755586385726929
1772791516490595800,13.786595947265624,9.098027229309082,4.219635486602783,0.5156267285346985
1772791516510696700,13.80669677734375,9.074671745300293,4.205262660980225,-0.2018190622329712
1772791516530797600,13.826797607421875,9.816671371459961,4.401093006134033,-0.12995471060276031
1772791516550898400,13.8468984375,9.641800880432129,4.5633864402771,1.0072987079620361
1772791516570999000,13.8669990234375,6.862447261810303,4.720889568328857,0.8785417675971985
1772791516591100000,13.887099853515625,5.973724842071533,4.66818904876709,0.2521241307258606
1772791516611200800,13.90720068359375,6.574390888214111,4.802335739135742,0.8689598441123962
1772791516631301600,13.927301513671875,6.881610870361328,4.577759265899658,1.2031290531158447
1772791516651402800,13.94740283203125,8.526106834411621,4.935883522033691,2.078077554702759
1772791516671505000,13.9675048828125,8.408129692077637,5.098177433013916,3.1584384441375732
1772791516691607300,13.987607177734375,6.546244144439697,4.76340913772583,2.85361385345459
1772791516711709400,14.00770947265625,6.007261276245117,3.201557159423828,3.178800106048584
1772791516731811600,14.0278115234375,8.626118659973145,2.733241081237793,2.452371120452881
1772791516751913700,14.047913818359374,11.707901000976562,2.184077501296997,1.4822022914886475
1772791516772015900,14.068015869140625,13.451809883117676,1.405547022819519,2.9164950847625732
1772791516792118000,14.088117919921874,13.05475902557373,1.6109592914581299,4.2980875968933105
1772791516812220200,14.10822021484375,11.121607780456543,2.045738697052002,4.044765472412109
1772791516832322300,14.128322265625,10.26163101196289,2.365535020828247,3.2752180099487305
1772791516852424400,14.148424560546875,10.1903657913208,2.4655463695526123,3.4285285472869873
1772791516872526800,14.16852685546875,9.850207328796387,2.4517722129821777,3.8189916610717773
1772791516892629000,14.18862890625,9.33458137512207,2.8242692947387695,3.432121992111206
1772791516912731100,14.208731201171876,8.342253684997559,3.4069693088531494,2.040947675704956
1772791516932833300,14.228833251953125,7.921847343444824,2.9727888107299805,1.5678406953811646
1772791516952935400,14.248935302734376,7.618819713592529,2.146348714828491,1.0989258289337158
1772791516973037600,14.26903759765625,7.878728866577148,1.0713777542114258,0.9174683094024658
1772791516993139700,14.2891396484375,8.441666603088379,1.1863607168197632,0.573118269443512
1772791517013241900,14.309241943359375,9.145936965942383,1.4822022914886475,0.7360107898712158
1772791517033344000,14.329343994140626,9.268705368041992,1.3486543893814087,0.7312198281288147
1772791517053446100,14.349446044921875,9.353744506835938,0.6036605834960938,0.3006325662136078
1772791517073548300,14.36954833984375,11.216229438781738,-0.7102593779563904,0.30602237582206726
1772791517093650700,14.389650634765625,11.267732620239258,-0.9725642800331116,-0.07186435908079147
1772791517113752800,14.4097529296875,11.197065353393555,-1.5217278003692627,-0.4012426435947418
1772791517133855000,14.42985498046875,12.936182975769043,-2.4439868927001953,0.8701575994491577
1772791517153956600,14.44995654296875,11.963019371032715,-2.15712833404541,0.7982932329177856
1772791517174058000,14.47005810546875,9.533405303955078,1.1240782737731934,-1.3905752897262573
1772791517194159400,14.490159423828125,8.120073318481445,2.4709360599517822,-0.6449825763702393
1772791517214260700,14.5102607421875,7.817644119262695,1.7972078323364258,0.9851405620574951
1772791517234362000,14.530362060546874,7.7140398025512695,1.2432533502578735,1.4965752363204956
1772791517254463500,14.55046337890625,9.425010681152344,0.588688850402832,1.2719991207122803
1772791517274564900,14.57056494140625,12.203765869140625,0.5701239109039307,0.9947224855422974
1772791517294666200,14.590666259765625,12.454691886901855,0.4982595443725586,0.9563947916030884
1772791517314767600,14.610767578125,11.286895751953125,0.9186660051345825,0.43537822365760803
1772791517334869000,14.630868896484374,10.61556339263916,1.2145075798034668,0.16768349707126617
1772791517354970400,14.650970458984375,9.963394165039062,1.0186772346496582,0.5264064073562622
1772791517375071700,14.67107177734375,10.677247047424316,0.7893101572990417,0.33955907821655273
1772791517395172900,14.6911728515625,10.275404930114746,0.9474117755889893,0.010180783458054066
1772791517415274200,14.711274169921875,9.750795364379883,1.1432421207427979,-0.09042931348085403
1772791517435375600,14.731375732421874,9.79810619354248,1.228880524635315,-0.013774001970887184
1772791517455477000,14.75147705078125,9.510049819946289,1.152225136756897,0.13893775641918182
1772791517475578400,14.771578369140625,9.467530250549316,1.0617958307266235,-0.03233896195888519
1772791517495679700,14.7916796875,10.29456901550293,0.8845304250717163,0.3114122152328491
1772791517515781000,14.811781005859375,11.19287395477295,0.7509825229644775,0.47430476546287537
1772791517535882500,14.831882568359376,11.863607406616211,0.6222255229949951,-0.1664857566356659
1772791517555984000,14.85198388671875,11.727065086364746,0.4072313606739044,-1.0360444784164429
1772791517576085200,14.872085205078125,10.611371040344238,0.7797282934188843,-2.1164052486419678
1772791517596186600,14.8921865234375,10.299360275268555,0.9228581190109253,-1.5522700548171997
1772791517616288000,14.9122880859375,11.36295223236084,0.5743159651756287,-1.2222929000854492
1772791517636389000,14.93238916015625,12.648725509643555,-0.4479544758796692,-1.705580711364746
1772791517656490500,14.952490478515625,12.724183082580566,-0.9971179366111755,-1.2414567470550537
1772791517676591900,14.972591796875,11.447393417358398,-0.4808923304080963,-0.05689261481165886
1772791517696693000,14.99269287109375,9.027959823608398,0.4551409184932709,0.28685855865478516
1772791517716794400,15.01279443359375,7.000187397003174,1.0905416011810303,0.0958191454410553
1772791517736895500,15.0328955078125,5.77130651473999,1.1049144268035889,-0.36770597100257874
1772791517756996900,15.052996826171874,5.7946624755859375,1.1576149463653564,-1.5199310779571533
1772791517777098000,15.073097900390625,7.250514507293701,1.0713777542114258,-2.3469700813293457
1772791517797199400,15.093199462890626,8.451248168945312,0.8420107364654541,-2.414043426513672
1772791517817300500,15.113300537109374,8.569225311279297,1.3103268146514893,-2.6482014656066895
1772791517837401900,15.13340185546875,7.883519649505615,1.721151351928711,-2.2804956436157227
1772791517857503000,15.1535029296875,7.19362211227417,1.974473237991333,-1.6540778875350952
1772791517877604400,15.173604248046875,8.526705741882324,1.8594902753829956,-1.2426544427871704
1772791517897705500,15.19370556640625,10.247258186340332,1.2049256563186646,-1.3618295192718506
1772791517917806800,15.213806884765624,10.705992698669434,1.1426432132720947,-2.3511621952056885
1772791517937908000,15.233907958984375,9.864581108093262,1.4007561206817627,-3.106935739517212
1772791517958009300,15.25400927734375,11.07908821105957,1.3432645797729492,-3.5608787536621094
1772791517978110500,15.2741103515625,13.149380683898926,1.0761687755584717,-3.6327431201934814
1772791517998211800,15.2942119140625,13.24879264831543,0.7605644464492798,-3.1638283729553223
1772791518018313000,15.31431298828125,12.652917861938477,0.6174346208572388,-2.6428117752075195
1772791518038414300,15.334414306640625,12.185200691223145,1.4247108697891235,-2.6380207538604736
1772791518058515500,15.354515380859375,11.268331527709961,1.1138975620269775,-2.073885440826416
1772791518078616800,15.374616943359374,10.488602638244629,0.5791069269180298,-1.6528801918029785
1772791518098718200,15.39471826171875,10.308941841125488,-0.34734439849853516,-0.5246098041534424
1772791518118819300,15.4148193359375,10.247258186340332,-0.977954089641571,0.16409027576446533
1772791518138920700,15.434920654296874,10.398772239685059,-0.23775124549865723,-0.5006549954414368
1772791518159022000,15.45502197265625,9.798705101013184,0.7509825229644775,-1.9062020778656006
1772791518179123700,15.475123779296876,9.510049819946289,0.5264064073562622,-2.1259872913360596
1772791518199225600,15.4952255859375,9.793913841247559,0.024553654715418816,-1.7960100173950195
1772791518219327200,15.5153271484375,9.826851844787598,-0.3048246502876282,-1.6426993608474731
1772791518239428900,15.535428955078125,10.096343040466309,-0.6246210336685181,-1.5995807647705078
1772791518259530500,15.555530517578125,10.909607887268066,-0.2856608033180237,-2.1158063411712646
1772791518279632100,15.575632080078124,9.897518157958984,-0.07545757293701172,-2.331399440765381
1772791518299733800,15.595733642578125,8.739903450012207,0.4263951778411865,-2.0589137077331543
1772791518319835400,15.61583544921875,8.574016571044922,0.8989033102989197,-1.0216716527938843
1772791518339937000,15.63593701171875,7.931429386138916,1.5726317167282104,-0.3239884674549103
1772791518380140500,15.676140625,7.189429759979248,2.97638201713562,-1.561851978302002
1772791518400242200,15.6962421875,7.099599361419678,3.921997308731079,-2.398472785949707
1772791518420343800,15.71634375,7.047497749328613,5.316764831542969,-2.76198673248291
1772791518440445400,15.736445556640625,8.67821979522705,5.985702037811279,-2.5278286933898926
1772791518460547000,15.756547119140626,10.389190673828125,5.56050443649292,-2.3361904621124268
1772791518480648700,15.776648681640625,10.77665901184082,5.106561183929443,-2.4224276542663574
1772791518500750300,15.796750244140625,9.769959449768066,4.504697322845459,-1.5432870388031006
1772791518520852000,15.81685205078125,7.941011428833008,4.820301532745361,-2.3080434799194336
1772791518540953900,15.836953857421875,7.373881816864014,5.3215556144714355,-3.096754789352417
1772791518561055500,15.857055419921876,5.70543098449707,6.334244251251221,-2.8961336612701416
1772791518581157000,15.8771572265625,3.393794298171997,7.623610496520996,-1.1749821901321411
1772791518601258800,15.8972587890625,8.668638229370117,11.2533597946167,-2.546992540359497
1772791518621360400,15.9173603515625,17.53550148010254,13.85185432434082,-5.7784929275512695
1772791518641462000,15.9374619140625,20.205862045288086,11.568964004516602,-4.2489800453186035
1772791518661562600,15.957562744140626,16.788711547851562,9.629823684692383,0.6605532169342041
1772791518681663000,15.9776630859375,10.114908218383789,8.435677528381348,3.9399633407592773
1772791518701763600,15.997763671875,3.8525283336639404,7.58049201965332,4.795748233795166
1772791518721864000,16.017864013671876,1.0779653787612915,7.652356147766113,5.627577781677246
1772791518741964300,16.03796435546875,0.26050829887390137,6.601339817047119,5.685069561004639
1772791518762064600,16.058064697265625,-2.6320321559906006,6.324662208557129,1.4306995868682861
1772791518782165200,16.078165283203123,-3.0105175971984863,7.174458026885986,-4.8268890380859375
1772791518802265600,16.098265625,-5.179623603820801,6.501328945159912,-4.8316802978515625
1772791518822366000,16.118365966796876,-4.612493991851807,1.443275809288025,0.8090728521347046
1772791518842466600,16.138466552734375,-0.07485870271921158,-0.25691506266593933,3.777669668197632
1772791518862567000,16.15856689453125,2.963805913925171,1.5295130014419556,3.1608338356018066
1772791518882667300,16.178667236328124,-0.05629374459385872,1.7109705209732056,3.3518733978271484
1772791518902767600,16.198767578125,-4.428640842437744,1.0665868520736694,3.5668675899505615
1772791518922868200,16.2188681640625,-3.48781681060791,0.9755586385726929,2.4769248962402344
1772791518942968600,16.238968505859376,0.7330164313316345,1.3911741971969604,1.707377314567566
1772791518963069000,16.25906884765625,0.5910843014717102,3.2632405757904053,1.1953438520431519
1772791518983169500,16.27916943359375,-2.4715349674224854,7.3181867599487305,1.993636965751648
1772791519003270000,16.299269775390623,2.618856906890869,13.145188331604004,8.791406631469727
1772791519023370200,16.319370361328126,15.85746955871582,18.164913177490234,19.891454696655273
1772791519043470600,16.339470703125,26.775461196899414,17.81637191772461,26.71796989440918
1772791519063571200,16.3595712890625,37.674888610839844,16.73181915283203,10.851517677307129
1772791519083671600,16.379671630859374,42.88385772705078,13.52187728881836,1.0049031972885132
1772791519103772000,16.39977197265625,29.729684829711914,11.373133659362793,1.649885892868042
1772791519123872500,16.41987255859375,8.99502182006836,12.79604721069336,-2.4272186756134033
1772791519143972900,16.439972900390625,-3.3740315437316895,13.15896224975586,-2.121795177459717
1772791519164074000,16.460073974609376,-4.499307632446289,10.393980979919434,-1.107908844947815
1772791519184175400,16.48017529296875,-0.9024965167045593,6.849870681762695,-2.2697160243988037
1772791519204276700,16.50027685546875,1.4372870922088623,3.7213759422302246,-1.94452965259552
1772791519224378000,16.520378173828124,0.8983044624328613,1.754089117050171,-1.4235131740570068
1772791519244479500,16.5404794921875,-2.5044727325439453,0.18744619190692902,-1.1606093645095825
1772791519264580600,16.56058056640625,-4.60770320892334,-0.26170602440834045,-1.3516488075256348
1772791519284682000,16.580681884765625,-4.943668842315674,0.7557734847068787,-2.3840999603271484
1772791519304783400,16.600783447265623,-6.5264811515808105,0.07725418359041214,-0.9264513254165649
1772791519324884700,16.620884765625,-7.197813987731934,-1.512744665145874,-0.13235019147396088
1772791519344986000,16.640986083984377,-5.850956439971924,-3.069805860519409,-0.4910731017589569
1772791519365087200,16.661087158203124,-4.702324390411377,-4.942471027374268,-1.251038670539856
1772791519385188600,16.681188720703126,-2.4996819496154785,-5.462888717651367,-4.339409351348877
1772791519405290000,16.7012900390625,0.14253097772598267,-4.908934593200684,-6.80136251449585
1772791519425391400,16.721391357421876,2.0044167041778564,-4.0393757820129395,-6.772616863250732
1772791519445492700,16.74149267578125,1.7445071935653687,-3.184788703918457,-6.490549087524414
1772791519465594000,16.761593994140625,-0.3018302917480469,-1.9187783002853394,-7.183441162109375
1772791519485695500,16.781695556640624,3.096156120300293,0.8653666377067566,-10.969494819641113
1772791519505796600,16.801796630859375,16.273683547973633,4.624471187591553,-12.073810577392578
1772791519525898000,16.82189794921875,28.850543975830078,1.0468240976333618,9.982558250427246
1772791519545999400,16.841999267578124,53.858741760253906,-0.83482426404953,12.13848876953125
1772791519566100700,16.862100830078123,76.58345031738281,-5.525171279907227,-4.88438081741333
1772791519586202000,16.8822021484375,56.141632080078125,-6.556424617767334,-1.9487217664718628
1772791519606303200,16.90230322265625,27.948047637939453,-3.810607433319092,3.118314266204834
1772791519626404600,16.922404541015624,16.722835540771484,-1.5941909551620483,6.053374290466309
1772791519646506000,16.942506103515626,13.579368591308594,0.1251637488603592,3.6201670169830322
1772791519666606000,16.962606201171877,11.637234687805176,1.3432645797729492,0.9815473556518555
1772791519686706200,16.9827060546875,8.9806489944458,3.196167230606079,1.325298547744751
1772791519706806300,17.00280615234375,5.738368988037109,3.277613401412964,1.03364896774292
1772791519726906400,17.02290625,4.6562113761901855,0.9893326163291931,0.40783020853996277
1772791519747006500,17.04300634765625,4.741250991821289,0.1826552450656891,0.29284724593162537
1772791519767106600,17.0631064453125,3.436912775039673,-0.409626841545105,2.028371572494507
1772791519787206700,17.08320654296875,1.347456693649292,-0.5150278806686401,3.15604305267334
1772791519807307000,17.10330712890625,-1.6959987878799438,-0.65336674451828,3.3860089778900146
1772791519827407000,17.123406982421876,-3.2039525508880615,-0.552756667137146,1.8606879711151123
1772791519847507200,17.143507080078123,-2.7362353801727295,-0.7348130345344543,1.1630048751831055
1772791519867607300,17.163607177734374,-2.1355690956115723,-1.298349380493164,1.4642362594604492
1772791519887707400,17.183707275390624,-2.149941921234131,-1.7229479551315308,2.343376874923706
1772791519907807500,17.203807373046875,-3.09555721282959,-2.133772611618042,3.394991874694824
1772791519927907600,17.223907470703125,-2.958415985107422,-1.4175244569778442,2.491297721862793
1772791519948007700,17.244007568359375,-1.8810495138168335,-0.6910955309867859,2.424224376678467
1772791519968107800,17.264107666015626,-1.0677845478057861,-0.6719317436218262,3.227308511734009
1772791519988207900,17.284207763671876,-0.3114122152328491,-0.7198413014411926,4.675973892211914
1772791520008308200,17.30430810546875,0.49646294116973877,-1.011490821838379,6.004865646362305
1772791520028408300,17.324408203125,0.4257963001728058,-0.7294232249259949,4.403488636016846
1772791520048508400,17.34450830078125,1.1061122417449951,1.2719991207122803,1.9175806045532227
1772791520068608500,17.3646083984375,3.46026873588562,4.705917835235596,1.8744620084762573
1772791520088708600,17.38470849609375,6.622300624847412,4.795748233795166,6.3552045822143555
1772791520108808700,17.40480859375,15.489164352416992,3.377025842666626,10.299360275268555
1772791520128908800,17.42490869140625,27.5941162109375,-2.970393419265747,19.572856903076172
1772791520149009400,17.445009521484376,26.076580047607422,-0.7970954775810242,22.8001651763916
1772791520169111600,17.465111572265624,13.944080352783203,5.001160144805908,19.563873291015625
1772791520189213700,17.485213623046874,4.61848258972168,10.297563552856445,16.3371639251709
1772791520209315800,17.50531591796875,11.722872734069824,9.356739044189453,16.992326736450195
1772791520229418000,17.52541796875,27.52764129638672,4.785567283630371,17.245649337768555
1772791520249520000,17.54552001953125,31.42268943786621,2.2259984016418457,16.643186569213867
1772791520269622300,17.565622314453126,26.804805755615234,3.4722461700439453,13.669797897338867
1772791520289724400,17.585724365234373,20.059738159179688,4.375940322875977,11.751618385314941
1772791520309826600,17.60582666015625,13.305685997009277,4.156155109405518,9.3178129196167
1772791520329928700,17.6259287109375,8.942920684814453,3.7597036361694336,5.082606792449951
1772791520350031000,17.646031005859374,7.50144100189209,2.728450059890747,1.3396713733673096
1772791520370133200,17.66613330078125,7.057079792022705,1.8541003465652466,-0.7641576528549194
1772791520390235400,17.6862353515625,6.537261009216309,1.5582587718963623,-1.5911966562271118
1772791520410337500,17.706337646484375,5.596436977386475,1.7013885974884033,-1.7822359800338745
1772791520430439700,17.726439697265626,3.9848785400390625,1.9163827896118164,-1.6534790992736816
1772791520450541800,17.746541748046877,2.5996930599212646,2.222405195236206,-0.9360332489013672
1772791520470644000,17.76664404296875,2.1271848678588867,1.9020099639892578,0.06288131326436996
1772791520490746000,17.78674609375,2.3685293197631836,1.667253017425537,0.0928247943520546
1772791520510848300,17.80684814453125,2.860201358795166,1.45704984664917,-0.13175131380558014
1772791520530950400,17.826950439453125,2.893139123916626,1.251637578010559,0.26050829887390137
1772791520551052500,17.847052490234375,2.557772159576416,0.6354007124900818,0.8677620887756348
1772791520571154700,17.86715478515625,2.09484601020813,0.40184152126312256,1.0444285869598389
1772791520591257000,17.887257080078125,0.6342029571533203,0.9510049819946289,0.26050829887390137
1772791520611359200,17.907359130859376,-2.1026313304901123,4.962832450866699,-1.0300557613372803
1772791520631461400,17.92746142578125,-1.9511172771453857,16.473106384277344,-5.021522045135498
1772791520651563000,17.94756298828125,9.014185905456543,22.25160026550293,5.323352336883545
1772791520671663600,17.96766357421875,32.69887924194336,12.403787612915039,30.15248680114746
1772791520691764200,17.98776416015625,51.972900390625,4.30886697769165,36.92570114135742
1772791520711864800,18.00786474609375,49.0186767578125,6.916345596313477,19.128494262695312
1772791520731965700,18.027965576171876,37.14129638671875,3.954935073852539,14.056069374084473
1772791520752066300,18.04806640625,22.24800682067871,0.5976719260215759,20.725082397460938
1772791520772167000,18.0681669921875,8.39016342163086,-0.9833439588546753,25.57233238220215
1772791520792267800,18.088267822265625,1.0594004392623901,1.27559232711792,17.3306884765625
1772791520812368400,18.108368408203123,0.492270827293396,3.707003116607666,4.318449020385742
1772791520832469000,18.128468994140626,2.448777914047241,2.8182804584503174,-1.7331286668777466
1772791520852569600,18.148569580078124,1.7918179035186768,2.1738967895507812,-4.998166084289551
1772791520872670200,18.168670166015627,0.18505071103572845,1.261818289756775,-4.998764991760254
1772791520892771000,18.18877099609375,-1.3133211135864258,0.7222367525100708,-3.1871840953826904
1772791520912871700,18.20887158203125,-1.7343264818191528,1.1043156385421753,-2.9961447715759277
1772791520932972300,18.22897216796875,-1.776846170425415,1.2857731580734253,-2.7188682556152344
1772791520953073200,18.2490732421875,-2.2918741703033447,0.5264064073562622,-0.6108470559120178
1772791520973173800,18.269173828125,-3.515963554382324,-0.06587565690279007,0.5222142934799194
1772791520993274400,18.2892744140625,-4.2106523513793945,-0.5767114758491516,-0.06587565690279007
1772791521013375000,18.309375,-3.851330518722534,-1.3408690690994263,-0.5868922472000122
1772791521033475800,18.329475830078124,-3.3177378177642822,-2.0050156116485596,-0.7539768815040588
1772791521053576400,18.349576416015626,-1.9325523376464844,-2.2577385902404785,-0.9360332489013672
1772791521073677000,18.369677001953125,-0.5713216066360474,-2.864992380142212,0.04491522163152695
1772791521093777700,18.389777587890624,0.062282443046569824,-3.194370746612549,1.7804393768310547
1772791521113878300,18.409878173828126,-0.23535576462745667,-3.7866528034210205,3.8357601165771484
1772791521133979100,18.429979248046877,-0.859377920627594,-4.426844120025635,5.069431304931641
1772791521154080300,18.450080322265624,-1.3839877843856812,-5.062244892120361,5.260470867156982
1772791521174182400,18.470182373046875,-1.0815585851669312,-3.916008472442627,3.420144557952881
1772791521194284500,18.490284423828125,-1.0767675638198853,-1.5277163982391357,1.757083535194397
1772791521214386700,18.51038671875,-1.7337275743484497,1.342665672302246,-0.595276415348053
1772791521234488600,18.530488525390624,-2.9721899032592773,2.4553654193878174,-1.6708463430404663
1772791521254590700,18.5505908203125,-1.2612195014953613,2.393083095550537,1.7714563608169556
1772791521274692900,18.57069287109375,6.929520606994629,1.1618070602416992,12.157652854919434
1772791521294795000,18.590794921875,11.646217346191406,1.8684732913970947,22.822921752929688
1772791521314897000,18.61089697265625,15.04480266571045,2.690122365951538,28.760114669799805
1772791521334999000,18.6309990234375,31.162181854248047,-0.762959897518158,27.08687400817871
1772791521355101200,18.65110107421875,48.522212982177734,0.9899315237998962,17.277389526367188
1772791521375203000,18.671203125,44.812217712402344,4.013025283813477,11.593517303466797
1772791521395305200,18.69130517578125,31.60175132751465,4.75801944732666,8.032039642333984
1772791521415407400,18.711407470703126,24.15241241455078,4.896358013153076,6.382752418518066
1772791521435509500,18.731509521484377,23.462514877319336,4.839465618133545,8.404536247253418
1772791521455611400,18.751611328125,24.034435272216797,3.7315566539764404,8.423700332641602
1772791521475713500,18.771713623046875,21.7617244720459,3.3243253231048584,4.042369842529297
1772791521495815700,18.791815673828125,16.151514053344727,4.346595764160156,2.0918517112731934
1772791521515917800,18.811917724609376,10.07298755645752,4.613691806793213,2.6751506328582764
1772791521536019700,18.832019775390624,6.490549087524414,4.432234287261963,0.9641801118850708
1772791521556121900,18.852121826171874,4.769996643066406,4.0453643798828125,-0.11138974875211716
1772791521576224000,18.87222412109375,5.114945411682129,4.0453643798828125,-0.9192649126052856
1772791521596326000,18.892325927734376,4.675375461578369,3.9064266681671143,-1.597784161567688
1772791521616428000,18.912427978515623,2.9835684299468994,3.190178632736206,-1.707976222038269
1772791521636530200,18.9325302734375,1.825953483581543,2.64101505279541,-1.9702811241149902
1772791521656631800,18.9526318359375,0.5120335221290588,2.2966649532318115,-1.9415353536605835
1772791521676733400,18.9727333984375,-0.34854212403297424,2.0589137077331543,-1.8762586116790771
1772791521696834800,18.992834716796875,0.695886492729187,1.7385185956954956,-2.6649699211120605
1772791521716936400,19.0129365234375,2.5769360065460205,1.2851742506027222,-2.9997379779815674
1772791521737037800,19.033037841796876,2.9410488605499268,1.0126885175704956,-2.7745630741119385
1772791521757139500,19.053139404296875,2.16072154045105,1.2899651527404785,-3.2195231914520264
1772791521777240800,19.07324072265625,1.1917505264282227,2.6937155723571777,-5.628775596618652
1772791521797342500,19.093342529296876,0.8186547756195068,7.240932941436768,-11.761799812316895
1772791521817443800,19.11344384765625,1.5798181295394897,14.127933502197266,-14.630385398864746
1772791521837545500,19.13354541015625,7.690683841705322,11.128195762634277,8.774638175964355
1772791521857646800,19.153646728515625,13.159561157226562,11.190478324890137,30.773515701293945
1772791521897849900,19.193849853515626,113.1001205444336,-15.354418754577637,6.689373970031738
1772791521917951500,19.213951416015625,116.90473937988281,-28.74155044555664,29.066736221313477
1772791521938052900,19.234052978515624,42.89344024658203,-40.52850341796875,44.42594528198242
1772791521958154500,19.254154541015627,-19.803421020507812,-22.9720401763916,34.3296012878418
1772791521978256000,19.274255859375,-20.25197410583496,-7.258898735046387,23.406221389770508
1772791521998357500,19.294357421875,8.418310165405273,-6.117453098297119,4.380132675170898
1772791522018459000,19.314458984375,11.126399040222168,-7.841598987579346,2.7787551879882812
1772791522038560300,19.334560302734374,-3.1093311309814453,-7.803271293640137,6.737283229827881
1772791522058662000,19.354661865234377,-9.35793685913086,-5.128719329833984,1.746303915977478
1772791522078763500,19.374763427734376,-9.48489761352539,-2.903320074081421,-1.0875473022460938
1772791522098865000,19.394864990234375,-6.970842361450195,-2.349365472793579,-1.2115132808685303
1772791522118966300,19.41496630859375,-3.6339409351348877,-3.0566306114196777,-0.274282306432724
1772791522139068000,19.43506787109375,-2.0930492877960205,-4.379533767700195,1.6283265352249146
1772791522159169000,19.4551689453125,-4.46097993850708,-5.735973358154297,1.4229142665863037
1772791522179270000,19.475269775390625,-6.686978340148926,-5.845566749572754,-1.1013212203979492
1772791522199371000,19.49537109375,-6.705543518066406,-5.377849102020264,-2.4110491275787354
1772791522219472000,19.515471923828127,-6.370176315307617,-6.5145039558410645,-0.5467679500579834
1772791522239572700,19.53557275390625,-5.467679977416992,-7.092412948608398,1.1073099374771118
1772791522259673900,19.555673828125,-3.7093985080718994,-6.366582870483398,1.7289366722106934
1772791522279774700,19.575774658203127,-2.9296703338623047,-5.105363845825195,2.144552230834961
1772791522299875600,19.59587548828125,-3.5770483016967773,-4.259759902954102,2.803907632827759
1772791522319976700,19.615976806640624,-3.917206287384033,-3.6722686290740967,2.837444305419922
1772791522340077600,19.63607763671875,-2.6931166648864746,-3.3476812839508057,2.326009750366211
1772791522360178400,19.656178466796874,-0.8779428601264954,-2.7745630741119385,2.8853538036346436
1772791522380279600,19.676279541015624,-0.34854212403297424,-2.545196056365967,3.9561328887939453
1772791522420481500,19.7164814453125,-1.6343152523040771,-1.8624845743179321,8.415914535522461
1772791522440582400,19.73658251953125,1.1917505264282227,-5.7784929275512695,17.85769271850586
1772791522460683300,19.756683349609375,11.32103157043457,-8.906988143920898,26.34726905822754
1772791522480784400,19.776784423828126,25.466930389404297,-10.979676246643066,34.63622283935547
1772791522500885200,19.79688525390625,45.89497375488281,-8.4009428024292,34.92787551879883
1772791522520986000,19.816986083984375,50.53142166137695,-0.20002245903015137,25.80708885192871
1772791522541087200,19.837087158203126,36.342403411865234,4.862222671508789,16.652767181396484
1772791522561188000,19.85718798828125,25.769359588623047,5.019725322723389,16.4329833984375
1772791522581289000,19.8772890625,24.70636749267578,5.153872013092041,18.827861785888672
1772791522601390000,19.89739013671875,27.092863082885742,4.3370137214660645,14.817232131958008
1772791522621491000,19.917490966796876,26.190364837646484,3.9022345542907715,8.817756652832031
1772791522641591800,19.937591796875,19.899240493774414,3.9740989208221436,4.711307525634766
1772791522661691600,19.957691650390625,10.219710350036621,4.356177806854248,3.8794775009155273
1772791522681791000,19.977791015625,7.203803062438965,0.7312198281288147,0.7198413014411926
1772791522701890600,19.997890625,11.845641136169434,-3.1997604370117188,-7.004978179931641
1772791522721990000,20.017989990234376,15.248418807983398,-3.008721113204956,-10.743721008300781
1772791522742089500,20.03808935546875,14.341131210327148,-1.8912303447723389,-8.224276542663574
1772791522762188800,20.058188720703125,10.63532543182373,-0.9168694019317627,-5.121532917022705
1772791522782288400,20.078288330078124,6.428865432739258,-0.032937828451395035,-4.428640842437744
1772791522802388000,20.098387939453126,4.713104248046875,1.146236538887024,-3.993262767791748
1772791522822487300,20.1184873046875,3.526743173599243,2.178088903427124,-1.3211064338684082
1772791522842587000,20.1385869140625,1.6319197416305542,3.624957799911499,1.1594116687774658
1772791522862686200,20.158686279296877,-1.0246659517288208,4.37474250793457,1.8241568803787231
1772791522902885000,20.198885009765625,-1.1378523111343384,3.0230939388275146,-1.7271400690078735
1772791522922984700,20.218984619140624,-0.2730845510959625,2.5978965759277344,-3.696822166442871
1772791522943084000,20.239083984375,1.2109143733978271,1.7912191152572632,-3.878279685974121
1772791522963183600,20.25918359375,3.843545436859131,1.7241456508636475,-5.446120262145996
1772791522983283200,20.279283203125,9.804095268249512,2.1205973625183105,-7.396638870239258
1772791523003382500,20.299382568359373,17.446269989013672,2.9560205936431885,-8.448253631591797
1772791523023482000,20.319482177734375,24.701576232910156,1.9822584390640259,0.1946326345205307
1772791523043581400,20.33958154296875,40.35123825073242,-0.17666654288768768,8.000898361206055
1772791523063681000,20.359680908203124,44.60500717163086,-3.5728561878204346,7.518209457397461
1772791523083780400,20.3797802734375,28.010330200195312,-4.1884942054748535,9.023767471313477
1772791523103880000,20.3998798828125,24.058988571166992,-1.9343489408493042,10.701800346374512
1772791523123979300,20.419979248046875,29.801549911499023,-3.0614216327667236,8.91417407989502
1772791523144078800,20.440078857421874,28.198974609375,-4.580154895782471,5.749148368835449
1772791523164179500,20.460179443359376,19.620765686035156,-4.943069934844971,7.044503688812256
1772791523184280000,20.480280029296875,9.761574745178223,-2.2020435333251953,7.94340705871582
1772791523204380700,20.500380615234373,2.799116611480713,-0.23415802419185638,7.757158279418945
1772791523224481500,20.5204814453125,0.1431298404932022,1.1270726919174194,5.481453895568848
1772791523244582100,20.54058203125,-0.27787551283836365,1.466032862663269,2.6470038890838623
1772791523264682800,20.560682861328125,4.132200717926025,1.0983269214630127,1.8678743839263916
1772791523284783600,20.58078369140625,5.564097881317139,1.0935359001159668,2.446382522583008
1772791523304884200,20.60088427734375,3.7159860134124756,0.6875023245811462,2.4895009994506836
1772791523324984800,20.62098486328125,3.635737657546997,-0.9551970958709717,2.771568775177002
1772791523345085700,20.641085693359376,3.4800314903259277,-1.3324849605560303,1.9636934995651245
1772791523365186300,20.661186279296874,2.7805516719818115,0.4868810176849365,-0.005988696590065956
1772791523385287000,20.681286865234377,0.9420219659805298,0.05689261481165886,1.3372758626937866
1772791523405387800,20.7013876953125,-0.69828200340271,-0.2772766351699829,2.6326308250427246
1772791523425488400,20.72148828125,0.738406240940094,-0.9456151723861694,2.546992540359497
1772791523445589000,20.741589111328125,3.0877718925476074,-0.41082456707954407,1.3037391901016235
1772791523465689900,20.76168994140625,4.042369842529297,1.0743721723556519,1.8678743839263916
1772791523485790500,20.78179052734375,3.8297712802886963,1.2175019979476929,4.062132835388184
1772791523505891000,20.80189111328125,3.707003116607666,1.685818076133728,4.698132514953613
1772791523525991700,20.82199169921875,5.535951137542725,1.575626015663147,4.913126468658447
1772791523546092500,20.842092529296874,9.520230293273926,2.8464274406433105,2.5038740634918213
1772791523566193200,20.862193115234376,6.7127299308776855,5.788074970245361,-0.727626621723175
1772791523586293800,20.882293701171875,3.2812068462371826,7.545757293701172,-0.010180783458054066
1772791523606394600,20.90239453125,0.573118269443512,7.994909763336182,2.9769809246063232
1772791523626495200,20.9224951171875,1.8636822700500488,7.168469429016113,6.0749335289001465
1772791523646595800,20.942595947265627,3.5177602767944336,4.804131984710693,4.186697483062744
1772791523666697000,20.962697021484374,17.01688003540039,1.5516712665557861,-1.1240782737731934
1772791523686798000,20.982798095703124,24.51293182373047,3.596212148666382,-4.91552209854126
1772791523706899500,21.0028994140625,25.273496627807617,5.936594486236572,-1.8367332220077515
1772791523727000300,21.023000244140626,18.08945655822754,6.380357265472412,2.3505632877349854
1772791523747101700,21.043101806640625,11.481528282165527,8.314705848693848,3.574652910232544
1772791523767202600,21.06320263671875,8.541677474975586,10.287382125854492,1.6912078857421875
1772791523807404800,21.10340478515625,8.792604446411133,10.053224563598633,-3.371636152267456
1772791523827506200,21.123506103515624,10.149044036865234,8.916569709777832,-1.1677957773208618
1772791523847607000,21.14360693359375,10.229291915893555,6.8726277351379395,0.5533555150032043
1772791523867708400,21.16370849609375,10.319122314453125,5.406595230102539,0.35273420810699463
1772791523887809300,21.183809326171875,8.896807670593262,6.050978660583496,-0.6749261021614075
1772791523907910700,21.20391064453125,7.975146770477295,6.704944610595703,-0.8851293325424194
1772791523928011500,21.224011474609377,8.74050235748291,6.294119834899902,0.032937828451395035
1772791523948113000,21.24411279296875,7.171463966369629,5.496425628662109,0.8408129811286926
1772791523968214000,21.264214111328126,5.535951137542725,5.568289756774902,-0.31620317697525024
1772791523988315100,21.284315185546873,6.022831916809082,5.5634989738464355,-1.4342927932739258
1772791524008416300,21.304416259765624,6.713328838348389,5.281431198120117,-1.5253210067749023
1772791524028517400,21.324517333984375,6.004266738891602,5.038290023803711,-1.2959538698196411
1772791524048618500,21.344618408203125,5.158064365386963,4.971216678619385,-0.8036830425262451
1772791524068719600,21.3647197265625,5.592843532562256,4.875397682189941,-0.28206759691238403
1772791524088820700,21.38482080078125,6.325261116027832,4.814312934875488,-0.08743496984243393
1772791524108921900,21.404921875,6.343825817108154,4.761612415313721,0.05629374459385872
1772791524129023000,21.42502294921875,5.191001892089844,4.8478498458862305,-0.613242506980896
1772791524149124000,21.4451240234375,4.056743144989014,5.291612148284912,-1.110304355621338
1772791524169225700,21.465225830078126,5.049069881439209,5.4970245361328125,-1.1150952577590942
1772791524189327400,21.485327392578125,7.397836685180664,6.490549087524414,-2.2242019176483154
1772791524209429200,21.50542919921875,9.274694442749023,6.819927215576172,-2.975184440612793
1772791524229531000,21.52553076171875,9.217801094055176,5.072425842285156,-0.32638394832611084
1772791524249632500,21.545632568359373,6.031815052032471,7.789497375488281,-1.454654335975647
1772791524269734100,21.565734130859376,7.407418727874756,9.098626136779785,-1.48819100856781
1772791524289835800,21.585835693359375,9.147134780883789,6.805554389953613,2.1259872913360596
1772791524309937700,21.605937744140626,13.769210815429688,4.254968643188477,3.139873504638672
