time,seconds_elapsed,z,y,x
1772717456424131800,0.0821318359375,-0.7089276909828186,1.0350130796432495,-0.03619015961885452
1772717456444164900,0.102164794921875,-0.20212607085704803,0.5294114947319031,0.7574760317802429
1772717456464196900,0.12219677734375,0.021064596250653267,0.4750519394874573,1.7750962972640991
1772717456484230000,0.14222998046875,-0.21023806929588318,0.8907689452171326,1.7883567810058594
1772717456504261600,0.16226171875,-0.34080517292022705,0.8398320078849792,1.063667893409729
1772717456524295000,0.182294921875,-0.2760016620159149,0.14820240437984467,0.02300315350294113
1772717456544326700,0.20232666015625,-0.06057322770357132,-0.9391462802886963,-0.9904939532279968
1772717456564360000,0.22235986328125,0.0629657581448555,-1.2826464176177979,-1.7079859972000122
1772717456584392000,0.242391845703125,0.07393848150968552,-1.1231614351272583,-1.7049267292022705
1772717456604425000,0.262425048828125,0.00972011312842369,-0.7797368764877319,-1.0576199293136597
1772717456624457000,0.28245703125,-0.01716836728155613,0.08348721265792847,-0.42885956168174744
1772717456644489700,0.30248974609375,0.12976260483264923,0.8259580135345459,0.04993611201643944
1772717456664522000,0.32252197265625,0.3820554316043854,1.061635136604309,0.46121007204055786
1772717456684554800,0.3425546875,0.7597821950912476,0.9195832014083862,0.544471025466919
1772717456704586800,0.362586669921875,1.2176494598388672,0.20682157576084137,0.7545589208602905
1772717456724619800,0.382619873046875,1.4858092069625854,-0.3434355854988098,1.3487119674682617
1772717456744651800,0.40265185546875,1.5033918619155884,-0.5409494042396545,2.2238094806671143
1772717456764684800,0.422684814453125,1.1955783367156982,0.10559085756540298,2.905247926712036
1772717456784716800,0.442716796875,1.0948952436447144,2.3210957050323486,2.2847912311553955
1772717456804749800,0.462749755859375,1.2136311531066895,2.5024406909942627,1.2283811569213867
1772717456824782800,0.482782958984375,1.3422704935073853,0.9325340390205383,0.47548025846481323
1772717456844814800,0.50281494140625,1.365559458732605,-1.1720542907714844,0.2551707625389099
1772717456864848000,0.522847900390625,1.0492867231369019,-2.8003287315368652,0.15982657670974731
1772717456884880000,0.5428798828125,0.7681065201759338,-2.395618200302124,-0.23446030914783478
1772717456904913000,0.562912841796875,0.7586346864700317,-0.6746957898139954,-0.7566430568695068
1772717456924945000,0.58294482421875,-0.2501596212387085,1.072099208831787,-1.553174376487732
1772717456944977700,0.602977783203125,-0.6954846382141113,2.210787773132324,-2.5626771450042725
1772717456965010000,0.623010009765625,-0.748951256275177,1.9899401664733887,-3.0934479236602783
1772717456985042700,0.643042724609375,-0.617247462272644,1.3486210107803345,-3.183445453643799
1772717457005074700,0.66307470703125,-0.2768799066543579,0.4233875870704651,-2.9907639026641846
1772717457025108000,0.68310791015625,-0.034475069493055344,0.24261869490146637,-2.8524444103240967
1772717457045139700,0.7031396484375,0.29006844758987427,0.234055757522583,-2.887794017791748
1772717457065173000,0.723173095703125,0.5227324366569519,0.26197755336761475,-2.9923784732818604
1772717457085204700,0.743204833984375,0.7071045637130737,0.10935056209564209,-2.9555444717407227
1772717457105237800,0.76323779296875,0.735896110534668,-0.24409067630767822,-2.580132007598877
1772717457125270000,0.78327001953125,0.4770975708961487,-0.41820308566093445,-1.9041028022766113
1772717457145302800,0.803302734375,0.03974456340074539,-0.1787269413471222,-1.0099083185195923
1772717457165335000,0.8233349609375,-0.08503879606723785,0.42592954635620117,0.0720720961689949
1772717457185367800,0.843367919921875,-0.32760703563690186,0.4608955979347229,1.186103343963623
1772717457205400800,0.86340087890625,-0.4982627034187317,-0.6601364612579346,2.340726375579834
1772717457225432800,0.883432861328125,-0.7946577668190002,-3.5722146034240723,3.6547324657440186
1772717457245465900,0.9034658203125,-0.7482078075408936,-3.8898825645446777,4.097639560699463
1772717457265497900,0.923497802734375,-0.2445257008075714,-1.1407878398895264,3.1166069507598877
1772717457285531000,0.94353076171875,-0.45672762393951416,-0.8411650061607361,2.3651864528656006
1772717457305562600,0.963562744140625,-0.8205933570861816,-0.7470321655273438,1.530259609222412
1772717457325596000,0.983595947265625,-0.6311852335929871,-0.9483912587165833,0.5340280532836914
1772717457345628000,1.0036279296875,-0.5780514478683472,-0.7875754833221436,-0.9770635962486267
1772717457365661000,1.023660888671875,-0.8322696685791016,-0.14693817496299744,-2.568953037261963
1772717457385693000,1.04369287109375,-1.4211235046386719,0.05326643958687782,-3.641818046569824
1772717457405725700,1.0637255859375,-1.7822715044021606,-0.1304960995912552,-3.90348744392395
1772717457425758000,1.083758056640625,-1.5913686752319336,-0.26202306151390076,-3.750511884689331
1772717457445790700,1.103790771484375,-0.9537858366966248,-0.7918770909309387,-3.2474205493927
1772717457465823000,1.123822998046875,-0.5590150356292725,-1.416563630104065,-2.669706344604492
1772717457485855700,1.143855712890625,-0.5117034316062927,-1.3940162658691406,-2.1793620586395264
1772717457505887700,1.1638876953125,-0.45250895619392395,-0.9348203539848328,-1.6099053621292114
1772717457525920800,1.183920654296875,-0.4615495800971985,-0.27677586674690247,-0.7591992020606995
1772717457545952800,1.203952880859375,-0.456736296415329,0.7196395397186279,0.16390803456306458
1772717457565985800,1.22398583984375,-0.5445399284362793,1.016921877861023,0.6958719491958618
1772717457586017800,1.244017822265625,-0.3518438935279846,1.0828869342803955,0.9929133057594299
1772717457606050800,1.26405078125,0.3006368577480316,1.3236712217330933,1.2395514249801636
1772717457626082800,1.284082763671875,0.6754106283187866,2.104015588760376,1.775391697883606
1772717457646115800,1.30411572265625,1.0365338325500488,2.85394024848938,2.045327663421631
1772717457666147800,1.32414794921875,1.8368432521820068,3.0963144302368164,1.5230265855789185
1772717457686180900,1.344180908203125,2.17026948928833,2.066197395324707,0.9908688068389893
1772717457706212900,1.364212890625,2.2006402015686035,1.190319299697876,0.8916406631469727
1772717457726246000,1.384245849609375,1.6514697074890137,1.0087827444076538,0.39762353897094727
1772717457746278700,1.404278564453125,0.9432649612426758,1.2116798162460327,-0.7848490476608276
1772717457766311000,1.424310791015625,0.5106643438339233,1.4881435632705688,-1.8200912475585938
1772717457786344000,1.444343994140625,-0.721951425075531,1.6110731363296509,-1.6738040447235107
1772717457806375700,1.464375732421875,-1.489938735961914,1.348414421081543,-0.817497968673706
1772717457826409000,1.484408935546875,-1.1047797203063965,0.4027547538280487,0.09595582634210587
1772717457846440700,1.504440673828125,-0.5973505973815918,0.15232865512371063,0.49867385625839233
1772717457866474000,1.524473876953125,-0.9025436639785767,0.1523090898990631,0.2114991396665573
1772717457886505700,1.544505615234375,-1.147674798965454,-0.041668351739645004,-0.3118157982826233
1772717457906538800,1.564538818359375,-0.9136711359024048,-0.4953254163265228,-0.9077203273773193
1772717457926571000,1.584571044921875,-0.8150972127914429,-0.7145125269889832,-1.201590895652771
1772717457946603800,1.604603759765625,-1.1172904968261719,-0.9280956387519836,-1.2099103927612305
1772717457966636000,1.624635986328125,-1.3715895414352417,-0.9772210717201233,-0.8309416770935059
1772717457986668800,1.644668701171875,-1.3246523141860962,-0.6840121150016785,-0.1795191764831543
1772717458006700800,1.66470068359375,-1.3034508228302002,-0.37215161323547363,0.27656638622283936
1772717458026733800,1.68473388671875,-1.5689467191696167,-0.6591415405273438,0.8798505663871765
1772717458046765800,1.704765869140625,-1.1820577383041382,-1.3876299858093262,0.8148314356803894
1772717458066798800,1.724798828125,-0.20417872071266174,-0.9532856941223145,-0.48457491397857666
1772717458086830800,1.744830810546875,0.21675671637058258,-1.2875189781188965,-1.2798861265182495
1772717458106863600,1.764863525390625,0.09608699381351471,-1.1451449394226074,-1.7175366878509521
1772717458126895600,1.7848955078125,0.053304273635149,-0.4987930655479431,-1.4133986234664917
1772717458146929000,1.804928955078125,-0.7349334955215454,-0.22273655235767365,0.25574901700019836
1772717458166960600,1.824960693359375,-0.619110643863678,-0.08120909333229065,0.7257370352745056
1772717458186993700,1.84499365234375,-0.3782917261123657,0.7748798131942749,-0.781028687953949
1772717458207025700,1.865025634765625,-0.9257009625434875,0.1610184758901596,-1.329527497291565
1772717458227058700,1.88505859375,-1.322141170501709,-0.39180105924606323,-1.5015825033187866
1772717458247091000,1.905091064453125,-1.0648472309112549,-0.5022915601730347,-1.720469355583191
1772717458267123700,1.925123779296875,-0.4182226061820984,0.17036405205726624,-1.8315938711166382
1772717458287155700,1.94515576171875,0.09669291228055954,1.0183942317962646,-1.4241828918457031
1772717458307188700,1.965188720703125,0.2694324553012848,1.3259317874908447,-0.49882444739341736
1772717458327220700,1.985220703125,0.5722531080245972,1.8913692235946655,0.5995428562164307
1772717458347253800,2.005253662109375,1.0477666854858398,2.7253432273864746,1.4576448202133179
1772717458367285800,2.02528564453125,1.1599613428115845,2.285163164138794,1.5023967027664185
1772717458387318500,2.045318603515625,0.6570044159889221,0.8774234652519226,0.760344922542572
1772717458407350800,2.065350830078125,0.33111581206321716,-0.13170203566551208,-0.22953133285045624
1772717458427383600,2.085383544921875,0.2786175012588501,-0.2576674818992615,-0.39591747522354126
1772717458447415800,2.105415771484375,0.3212209641933441,-0.08045842498540878,-0.15809383988380432
1772717458467448800,2.12544873046875,0.48108339309692383,0.19915878772735596,0.2651733160018921
1772717458487480600,2.14548046875,0.7422162890434265,0.06979246437549591,0.7830505967140198
1772717458507513900,2.165513916015625,0.8861814141273499,-0.2430988997220993,0.9252798557281494
1772717458527545600,2.185545654296875,0.9446834325790405,-0.2682764530181885,0.7545043230056763
1772717458547579000,2.205578857421875,0.2381531447172165,-0.10445046424865723,0.6969337463378906
1772717458567610600,2.225610595703125,-0.3293740451335907,-0.34602251648902893,1.4312399625778198
1772717458587643600,2.2456435546875,-0.6364587545394897,0.09892796725034714,2.0415525436401367
1772717458607676000,2.265676025390625,-0.001124753151088953,1.086584448814392,0.7697746157646179
1772717458627708700,2.285708740234375,1.0603687763214111,0.39922279119491577,-0.1941763460636139
1772717458647741700,2.30574169921875,0.6598036289215088,0.3273942172527313,-0.3918878138065338
1772717458667773700,2.325773681640625,-0.5068693161010742,-0.8616040349006653,-0.7204748392105103
1772717458687806700,2.345806640625,-1.1118497848510742,-1.4461215734481812,-0.38125836849212646
1772717458707838700,2.365838623046875,-1.3870856761932373,-0.8177480697631836,0.7854902148246765
1772717458727871700,2.385871826171875,-1.437799096107483,-0.5244496464729309,1.5317312479019165
1772717458747903700,2.40590380859375,-1.5067702531814575,-0.5711073875427246,1.431005835533142
1772717458767936800,2.425936767578125,-1.6586222648620605,-1.0347813367843628,0.5484607219696045
1772717458787968500,2.445968505859375,-1.7807674407958984,-1.559150218963623,-0.5210732221603394
1772717458808001800,2.466001708984375,-1.5686269998550415,-1.6841516494750977,-1.1520144939422607
1772717458828033800,2.48603369140625,-1.147748351097107,-1.2496854066848755,-1.146915316581726
1772717458848066800,2.50606689453125,-0.738250732421875,-0.5009186267852783,-0.7968305349349976
1772717458868098800,2.526098876953125,-0.4977433681488037,-0.0203210711479187,-0.26727429032325745
1772717458888131600,2.546131591796875,-0.3780536651611328,-0.014179878868162632,0.23106974363327026
1772717458908163800,2.566163818359375,-0.6379528641700745,0.07833646237850189,0.49878138303756714
1772717458928196600,2.586196533203125,-0.9147127866744995,0.37239357829093933,0.4441109299659729
1772717458948228600,2.606228515625,-0.8756060004234314,0.29258835315704346,-0.22388705611228943
1772717458968261600,2.62626171875,-0.629995584487915,-0.5313080549240112,-1.6471127271652222
1772717458988293600,2.646293701171875,-0.4980488121509552,-1.2658783197402954,-2.7440810203552246
1772717459008326700,2.66632666015625,-0.13224872946739197,-1.328376293182373,-2.926914930343628
1772717459028358700,2.686358642578125,0.3282651901245117,-0.5837496519088745,-2.148601531982422
1772717459048392000,2.706391845703125,0.6371041536331177,-0.029492229223251343,-0.6959609985351562
1772717459068423700,2.726423583984375,0.5397773385047913,0.4184362590312958,0.31828296184539795
1772717459088456700,2.746456787109375,0.1687258929014206,0.468204528093338,0.63963782787323
1772717459108488700,2.76648876953125,-0.00860235933214426,0.2726329267024994,0.43132203817367554
1772717459128522000,2.78652197265625,0.14108940958976746,0.3173263669013977,0.3801300525665283
1772717459148553700,2.8065537109375,0.20787502825260162,0.6727753281593323,0.04587073624134064
1772717459168587000,2.8265869140625,0.23761329054832458,-0.12304676324129105,-0.3381873369216919
1772717459188619000,2.846618896484375,0.1357600837945938,-1.455165982246399,0.4894663393497467
1772717459208651800,2.86665185546875,0.07194806635379791,-1.0131038427352905,2.5079360008239746
1772717459228684000,2.88668408203125,0.29224327206611633,0.37597712874412537,3.6363916397094727
1772717459248716800,2.906716796875,0.3730444610118866,0.32573944330215454,3.8182551860809326
1772717459268748800,2.926748779296875,0.26489129662513733,-0.3525998294353485,3.6510188579559326
1772717459288781800,2.94678173828125,0.3037610948085785,-0.9394760131835938,3.70229172706604
1772717459308813800,2.966813720703125,0.36992448568344116,-0.5971238017082214,3.947725296020508
1772717459328846800,2.986846923828125,0.5347564816474915,0.08990339189767838,4.070945739746094
1772717459348878800,3.00687890625,0.30085858702659607,0.181303009390831,3.6716132164001465
1772717459368912000,3.026911865234375,-0.1854478418827057,-0.5111588835716248,2.3159098625183105
1772717459388944000,3.04694384765625,-0.6514739990234375,-1.1654369831085205,0.6521437764167786
1772717459408977000,3.066976806640625,-1.0323376655578613,-1.6163151264190674,-0.5547665953636169
1772717459429009000,3.0870087890625,-1.3736332654953003,-1.5296701192855835,-1.3622628450393677
1772717459449042000,3.1070419921875,-1.6124778985977173,-1.0492527484893799,-1.6496340036392212
1772717459469073700,3.12707373046875,-1.567307949066162,-0.7313506007194519,-1.4348047971725464
1772717459489107000,3.14710693359375,-1.2383348941802979,-0.40432706475257874,-1.0745453834533691
1772717459509139000,3.167138916015625,-0.9107240438461304,-0.015462932176887989,-0.8125439882278442
1772717459529172000,3.187171875,-0.7799505591392517,0.22156262397766113,-0.6923923492431641
1772717459549204000,3.207203857421875,-0.7002068161964417,0.17721232771873474,-0.40416091680526733
1772717459569237000,3.227237060546875,-0.42480844259262085,0.24684670567512512,-0.1344347596168518
1772717459589269000,3.24726904296875,-0.25612887740135193,0.1607072949409485,-0.08506002277135849
1772717459609301800,3.2673017578125,-0.2729465961456299,0.016415223479270935,-0.4751380681991577
1772717459629334000,3.287333984375,-0.2978786826133728,-0.26626965403556824,-0.9293001294136047
1772717459649366800,3.30736669921875,-0.14329509437084198,-0.5164713859558105,-1.4131591320037842
1772717459669398800,3.327398681640625,0.1334623545408249,-0.43592125177383423,-1.5971615314483643
1772717459689431800,3.347431884765625,0.4174709916114807,-0.3479190766811371,-0.9156302213668823
1772717459709463800,3.3674638671875,0.9619219899177551,0.5035950541496277,-0.21502690017223358
1772717459729496800,3.387496826171875,2.0071940422058105,1.5382128953933716,0.06113056465983391
1772717459749528800,3.40752880859375,2.6804661750793457,2.292764186859131,-0.11462747305631638
1772717459769561900,3.427561767578125,2.5495986938476562,2.7318177223205566,-2.3187191486358643
1772717459789593900,3.44759375,2.3506345748901367,0.6682841181755066,-6.208106994628906
1772717459809627000,3.467626953125,1.663413166999817,-2.8083221912384033,-5.788848876953125
1772717459829659000,3.487658935546875,0.9212321639060974,-1.1080142259597778,-2.6415889263153076
1772717459849692000,3.50769189453125,1.0160259008407593,3.877439022064209,0.3035745322704315
1772717459869724000,3.527723876953125,1.270097255706787,6.026821136474609,1.6053266525268555
1772717459889757000,3.5477568359375,1.2569488286972046,3.6298651695251465,1.103061318397522
1772717459909789700,3.567789794921875,1.288926362991333,-0.23506051301956177,-0.08477328717708588
1772717459929822000,3.587822021484375,1.1585296392440796,-0.7036392688751221,-0.6301048994064331
1772717459949854000,3.60785400390625,1.3609808683395386,1.1504732370376587,0.44376957416534424
1772717459969886700,3.62788671875,1.576436161994934,1.6671632528305054,3.045374870300293
1772717459989919000,3.6479189453125,1.509634017944336,1.5889149904251099,5.009746551513672
1772717460009951700,3.66795166015625,1.4830650091171265,1.378442645072937,5.432136535644531
1772717460029985000,3.687985107421875,1.3517138957977295,0.6996642351150513,4.637694835662842
1772717460050016800,3.708016845703125,1.1895155906677246,-0.11854223161935806,3.7344930171966553
1772717460070049800,3.7280498046875,0.9113659858703613,-0.48198750615119934,3.0030806064605713
1772717460090082000,3.74808203125,0.7090932726860046,-0.041589267551898956,2.681108236312866
1772717460110114800,3.76811474609375,0.14650215208530426,0.8755577802658081,2.3477542400360107
1772717460130146800,3.788146728515625,-0.5668466687202454,0.5000964403152466,0.6517199873924255
1772717460150179800,3.808179931640625,-1.2061972618103027,-1.6567606925964355,-1.7915794849395752
1772717460170211800,3.8282119140625,-1.4793603420257568,-3.986055374145508,-3.5055904388427734
1772717460190244900,3.848244873046875,-1.5276012420654297,-4.860601902008057,-3.9595422744750977
1772717460210276900,3.86827685546875,-1.6289308071136475,-3.877934694290161,-3.326080799102783
1772717460230309600,3.8883095703125,-1.4193308353424072,-2.2575676441192627,-2.2340915203094482
1772717460250342000,3.908341796875,-1.0737032890319824,-1.7396670579910278,-1.3622928857803345
1772717460270374700,3.928374755859375,-0.9718738198280334,-1.9255391359329224,-0.9643192291259766
1772717460290407000,3.948406982421875,-0.927297055721283,-1.551680564880371,-0.8152214288711548
1772717460310440000,3.96843994140625,-0.7549527883529663,-1.0730596780776978,-0.7545455694198608
1772717460330471700,3.9884716796875,-0.554171621799469,-0.864104688167572,-0.8701366782188416
1772717460350505000,4.0085048828125,-0.5222219824790955,-0.6356187462806702,-0.952178418636322
1772717460370536700,4.02853662109375,-0.7385637760162354,-0.11603847146034241,-0.32311710715293884
1772717460390570000,4.048570068359375,-0.6083614230155945,0.7943906784057617,0.9223331809043884
1772717460410601700,4.068601806640625,0.5875774621963501,1.9371739625930786,1.4570581912994385
1772717460430634800,4.088634765625,1.7581497430801392,1.863849401473999,0.17134256660938263
1772717460450667000,4.1086669921875,1.8402948379516602,0.5592651963233948,-1.6945984363555908
1772717460470699800,4.12869970703125,1.2375502586364746,-0.13959258794784546,-3.051218271255493
1772717460490731800,4.148731689453125,0.6134661436080933,-0.9325916767120361,-3.3632287979125977
1772717460510764800,4.168764892578125,0.19355419278144836,-0.3908904492855072,-2.1914467811584473
1772717460530796800,4.188796875,-0.3439651131629944,1.7121806144714355,-0.5515547394752502
1772717460550829800,4.208829833984375,-0.6319413185119629,3.5314316749572754,0.5600873827934265
1772717460570861800,4.22886181640625,-0.44373148679733276,3.4188060760498047,0.9118051528930664
1772717460590894800,4.248894775390625,-0.020165788009762764,1.3778234720230103,0.8182277679443359
1772717460610926800,4.2689267578125,0.6609251499176025,0.22422011196613312,0.8397560119628906
1772717460630959900,4.2889599609375,0.7741653323173523,-0.2191944718360901,0.2637884318828583
1772717460650991900,4.308991943359375,0.9348936676979065,-0.6937689185142517,-0.008329140953719616
1772717460671025000,4.32902490234375,0.8403672575950623,-0.7472399473190308,-0.16828492283821106
1772717460691056600,4.349056640625,0.9736666083335876,-0.7092084884643555,-0.16789834201335907
1772717460711090000,4.36908984375,1.0507962703704834,-0.9201933145523071,0.5581362247467041
1772717460731121700,4.38912158203125,0.6239084601402283,-1.1459999084472656,1.7529778480529785
1772717460751155000,4.409155029296875,0.07419230788946152,-0.9995664358139038,2.7018961906433105
1772717460771187700,4.429187744140625,0.06696274131536484,-0.23082196712493896,2.643068790435791
1772717460791221000,4.449220947265625,-0.23173832893371582,0.4160597324371338,2.2544875144958496
1772717460811252700,4.469252685546875,-0.485955148935318,0.6666620969772339,1.710123062133789
1772717460831286000,4.4892861328125,-0.4096188545227051,0.42773422598838806,1.0926167964935303
1772717460851317800,4.50931787109375,-0.37126362323760986,-0.7499673962593079,0.33473914861679077
1772717460871350800,4.529350830078125,-0.48738592863082886,-1.5847163200378418,-0.37082409858703613
1772717460891383000,4.549383056640625,-0.6199946999549866,-1.836336374282837,-0.6930014491081238
1772717460911415800,4.569415771484375,-0.6799565553665161,-1.3453551530838013,-0.6440311670303345
1772717460931447800,4.58944775390625,-0.6516606211662292,-0.5951716899871826,-0.38713812828063965
1772717460951480800,4.609480712890625,-0.4145149886608124,0.053283561021089554,-0.1386413276195526
1772717460971512800,4.629512939453125,-0.19618503749370575,0.20976635813713074,0.04874568432569504
1772717460991545900,4.6495458984375,-0.04286340996623039,0.0047165630385279655,0.06815704703330994
1772717461011577900,4.669577880859375,-0.03611390292644501,-0.27768954634666443,-0.04706490784883499
1772717461031610600,4.689610595703125,-0.13602280616760254,-0.5534017086029053,-0.21263886988162994
1772717461051643000,4.709642822265625,-0.22400088608264923,-0.5254312753677368,-0.189010351896286
1772717461071676000,4.729676025390625,-0.27397340536117554,-0.027851440012454987,-0.0031570778228342533
1772717461091708200,4.749708251953125,-0.22977250814437866,0.38630351424217224,0.30294525623321533
1772717461111741200,4.7697412109375,-0.14651815593242645,0.5023471117019653,0.4843181073665619
1772717461131773000,4.78977294921875,-0.07756909728050232,0.22596976161003113,0.4748701751232147
1772717461151806200,4.80980615234375,-0.028667505830526352,0.07804252207279205,0.2770955264568329
1772717461171838000,4.829837890625,-0.025555800646543503,0.05207822471857071,-0.02570395916700363
1772717461191871200,4.849871337890625,-0.007620427757501602,0.030532676726579666,-0.30303704738616943
1772717461211903000,4.869903076171875,-0.06595639884471893,-0.23862239718437195,-0.38573622703552246
1772717461231936000,4.88993603515625,-0.14010581374168396,-0.508786678314209,-0.2792451083660126
1772717461251968300,4.90996826171875,-0.16407135128974915,-0.41637417674064636,-0.11758416891098022
1772717461272001000,4.9300009765625,-0.13656802475452423,-0.0712357610464096,-0.016284417361021042
1772717461292033300,4.950033203125,-0.1979185789823532,0.08640030771493912,0.04049953445792198
1772717461312066000,4.970066162109375,-0.30428823828697205,0.18573416769504547,0.06757281720638275
1772717461332098000,4.99009814453125,-0.40680992603302,0.2746441662311554,-0.13924819231033325
1772717461352131000,5.010131103515625,-0.6744559407234192,0.24290964007377625,-0.4613872170448303
1772717461372163000,5.0301630859375,-0.9975171089172363,-0.2772235870361328,-0.7442253828048706
1772717461392196000,5.050196044921875,-1.3163020610809326,0.003202812746167183,-0.8539570569992065
1772717461412228000,5.07022802734375,-0.9061260223388672,0.6848788857460022,-0.7628861665725708
1772717461432260900,5.0902607421875,-0.8224899172782898,0.6841033101081848,-0.1393277794122696
1772717461452293000,5.110293212890625,-0.1682901531457901,0.9872812032699585,0.43303346633911133
1772717461472326100,5.130326171875,0.04716673865914345,0.6433547139167786,0.990763247013092
1772717461492358000,5.15035791015625,-0.03972794860601425,-0.0023763570934534073,1.3900251388549805
1772717461512391200,5.17039111328125,0.023732434958219528,-0.11500082165002823,1.769963264465332
1772717461532423000,5.1904228515625,-0.09034394472837448,0.17583860456943512,1.8028507232666016
1772717461552456200,5.210456298828125,-0.2433650940656662,0.6120949387550354,0.9564424157142639
1772717461572488200,5.23048828125,-0.03564384952187538,0.7114143371582031,-0.21131134033203125
1772717461592521200,5.250521240234375,0.276449054479599,-0.7215929627418518,-1.5407415628433228
1772717461612553200,5.27055322265625,0.43558233976364136,-2.635087251663208,-2.7387616634368896
1772717461632586000,5.2905859375,0.10599406063556671,-2.9705471992492676,-3.405656576156616
1772717461652618200,5.3106181640625,-0.38973575830459595,-1.9056793451309204,-3.3933937549591064
1772717461672651000,5.330651123046875,-0.6248106956481934,0.18336641788482666,-3.270655393600464
1772717461692683000,5.35068310546875,-0.6163536310195923,1.4124901294708252,-3.3178822994232178
1772717461712716000,5.370716064453125,-0.5278629064559937,1.0176036357879639,-3.715651512145996
1772717461732748000,5.390748046875,0.043466877192258835,0.8356455564498901,-3.353569984436035
1772717461752781000,5.410781005859375,0.47597676515579224,1.651596188545227,-2.4170258045196533
1772717461772813000,5.43081298828125,1.106020212173462,2.8599119186401367,-2.226861000061035
1772717461792846000,5.45084619140625,0.9814386367797852,1.9342491626739502,-1.934881567955017
1772717461812878000,5.470878173828125,1.3572803735733032,0.016660133376717567,-1.1935590505599976
1772717461832911000,5.4909111328125,1.3003398180007935,-0.9513289928436279,-1.6147512197494507
1772717461852943000,5.510943115234375,0.5220991969108582,-2.956757068634033,-1.0519099235534668
1772717461872976100,5.53097607421875,0.6824312210083008,-1.579993486404419,2.799490213394165
1772717461893008000,5.5510078125,2.234940767288208,-1.2630854845046997,8.322349548339844
1772717461913041200,5.571041259765625,2.0004847049713135,-2.0881307125091553,11.797784805297852
1772717461933073200,5.5910732421875,1.6098637580871582,-1.0432631969451904,10.760209083557129
1772717461953106200,5.611106201171875,1.2785078287124634,-0.9261956810951233,8.376276016235352
1772717461973138200,5.63113818359375,0.7043598890304565,-1.2175408601760864,5.957814693450928
1772717461993171000,5.6511708984375,0.13490641117095947,-1.755044937133789,3.5075671672821045
1772717462013203200,5.671203125,-0.534655749797821,-1.8681282997131348,1.4759355783462524
1772717462033236000,5.691236083984375,-1.271414041519165,-1.364137887954712,0.033227626234292984
1772717462053268200,5.711268310546875,-1.7230613231658936,-0.6388148069381714,-1.000379204750061
1772717462073301000,5.731301025390625,-1.7993825674057007,0.0033893361687660217,-1.8859660625457764
1772717462093332700,5.751332763671875,-1.610498070716858,0.39080509543418884,-2.7998833656311035
1772717462113365800,5.77136572265625,-1.297488808631897,0.1114582046866417,-3.5385148525238037
1772717462133397800,5.791397705078125,-1.0072935819625854,0.004418797791004181,-4.030446529388428
1772717462153430800,5.8114306640625,-0.5556310415267944,0.6293947696685791,-4.3155083656311035
1772717462173462800,5.831462890625,-0.36337199807167053,1.8264449834823608,-4.75131368637085
1772717462193495800,5.851495849609375,-0.5737923979759216,2.5021703243255615,-5.503895282745361
1772717462213527600,5.871527587890625,-0.8921753168106079,2.156574249267578,-6.088449001312256
1772717462233560800,5.891560791015625,-1.018912434577942,1.4261280298233032,-6.846584796905518
1772717462253592800,5.9115927734375,-1.092307686805725,1.1094112396240234,-6.727259159088135
1772717462273625900,5.9316259765625,-1.3537780046463013,1.231550693511963,-5.333308219909668
1772717462293657900,5.951657958984375,-1.4844341278076172,1.9876306056976318,-3.79390549659729
1772717462313690600,5.971690673828125,-1.0933592319488525,1.0674540996551514,-2.4638659954071045
1772717462333723000,5.991722900390625,-0.9433265924453735,0.5391578674316406,-1.9211421012878418
1772717462353755600,6.011755615234375,-1.192064642906189,-0.2706226706504822,-1.4554749727249146
1772717462373787600,6.03178759765625,-0.8012440800666809,-0.3854040205478668,-0.10636240988969803
1772717462393820700,6.051820556640625,1.4207377433776855,0.5698708295822144,1.0591341257095337
1772717462413852700,6.071852783203125,2.6366777420043945,0.2141650766134262,2.5930986404418945
1772717462433885700,6.0918857421875,1.3961992263793945,-1.8995280265808105,5.554299831390381
1772717462453917700,6.111917724609375,1.170075535774231,-2.5978569984436035,8.116303443908691
1772717462473951000,6.131950927734375,1.2400630712509155,-1.7494632005691528,9.211737632751465
1772717462493982700,6.151982666015625,-0.044596388936042786,-0.6070253252983093,8.761542320251465
1772717462514015700,6.172015625,-1.0314472913742065,1.1585466861724854,8.586066246032715
1772717462534047700,6.1920478515625,-0.8616626858711243,3.7161433696746826,8.818796157836914
1772717462554080800,6.212080810546875,-0.004109174013137817,4.671891212463379,8.017581939697266
1772717462574112800,6.23211279296875,0.42165127396583557,1.9135239124298096,5.762007236480713
1772717462594145800,6.252145751953125,0.4519176483154297,-1.5915441513061523,2.6174421310424805
1772717462614177800,6.272177734375,0.32957980036735535,-2.2121124267578125,-0.8216323256492615
1772717462634210800,6.2922109375,0.08272677659988403,-1.5512428283691406,-2.617003917694092
1772717462654242800,6.312242919921875,-0.3988504707813263,-0.9293755292892456,-2.9916577339172363
1772717462674275600,6.332275634765625,-1.0680116415023804,-0.9558555483818054,-2.6684885025024414
1772717462694307800,6.352307861328125,-1.6938008069992065,-0.9425350427627563,-2.139885663986206
1772717462714340600,6.372340576171875,-1.675552487373352,-0.19049464166164398,-1.7385797500610352
1772717462734372900,6.392372802734375,-0.8977879285812378,1.0419634580612183,-2.244861125946045
1772717462754405600,6.412405517578125,-0.3006856143474579,1.0456655025482178,-3.4738028049468994
1772717462774437600,6.432437744140625,-0.14243172109127045,-0.2972380518913269,-4.641089916229248
1772717462794471000,6.452470947265625,-0.13753117620944977,-1.0933400392532349,-5.133012771606445
1772717462814502700,6.472502685546875,-0.30922338366508484,0.4854527413845062,-5.001725673675537
1772717462834536000,6.492535888671875,-0.9610955715179443,3.0064094066619873,-4.637232303619385
1772717462854567700,6.512567626953125,-2.081606864929199,3.771575450897217,-3.998586893081665
1772717462874600700,6.5326005859375,-3.419955015182495,2.410243272781372,-3.602435350418091
1772717462894632700,6.5526328125,-3.1416187286376953,0.6645056009292603,-4.031916618347168
1772717462914664700,6.572664794921875,-1.1114908456802368,3.832186222076416,-5.977261543273926
1772717462934698000,6.592697998046875,-2.2002968788146973,-1.717688798904419,-5.981122016906738
1772717462954730800,6.612730712890625,-1.6076619625091553,-8.07375431060791,-0.43188977241516113
1772717462974762800,6.6327626953125,-0.06564448028802872,-2.7520294189453125,6.4180989265441895
1772717462994795800,6.652795654296875,0.6110228896141052,0.7636638879776001,10.347268104553223
1772717463014827800,6.672827880859375,1.2087037563323975,-0.4665290117263794,9.17471694946289
1772717463034860800,6.69286083984375,1.4061168432235718,-3.468944787979126,6.1461992263793945
1772717463054892800,6.712892822265625,1.9222501516342163,-3.3979997634887695,5.262759685516357
1772717463074925600,6.732925537109375,2.092132806777954,-2.599949598312378,5.362576484680176
1772717463094958000,6.7529580078125,1.927507996559143,-1.7492719888687134,4.888022422790527
1772717463114990800,6.772990966796875,1.4559897184371948,-1.392077088356018,3.6879923343658447
1772717463135023000,6.793023193359375,0.7193260192871094,-1.6868534088134766,2.9280917644500732
1772717463155055900,6.813055908203125,-0.002601608633995056,-1.2486307621002197,2.958390474319458
1772717463175087900,6.833087890625,-0.524028480052948,-0.443559467792511,3.549835205078125
1772717463195120000,6.8531201171875,-0.9706386923789978,-0.6192357540130615,3.593630075454712
1772717463215153000,6.87315283203125,-1.5058619976043701,-0.748059093952179,3.5698654651641846
1772717463235185000,6.893184814453125,-1.7130167484283447,0.03758588805794716,3.554596424102783
1772717463255218000,6.913218017578125,-1.4694442749023438,0.5522081851959229,3.035543441772461
1772717463275250000,6.93325,-1.0896406173706055,0.046341460198163986,1.6609525680541992
1772717463295283200,6.953283203125,-0.8663172721862793,-0.7806483507156372,-0.45687994360923767
1772717463315315000,6.97331494140625,-0.7989956736564636,-1.2357909679412842,-2.3797860145568848
1772717463335348000,6.993347900390625,-0.5689839124679565,-1.4066839218139648,-3.430586338043213
1772717463355380000,7.0133798828125,-0.27295973896980286,-1.0614588260650635,-3.7620794773101807
1772717463375413000,7.0334130859375,-0.14579960703849792,-0.29875999689102173,-3.603285312652588
1772717463395445000,7.053445068359375,-0.4396352469921112,0.9973246455192566,-3.3200273513793945
1772717463415478000,7.07347802734375,0.12038437277078629,1.086672067642212,-3.234510898590088
1772717463435510000,7.093510009765625,1.1779732704162598,1.7155280113220215,-3.2747085094451904
1772717463455543000,7.11354296875,1.1841225624084473,-1.8935397863388062,-5.6850504875183105
1772717463475575000,7.133574951171875,1.9910284280776978,-0.19761911034584045,-5.176163673400879
1772717463495608000,7.153608154296875,2.245816707611084,1.4817472696304321,-3.892428398132324
1772717463515640000,7.17364013671875,1.8070861101150513,0.40754812955856323,-3.725724697113037
1772717463535672800,7.1936728515625,0.6422717571258545,-1.973616600036621,-4.723995685577393
1772717463555705000,7.213705078125,-0.0732225626707077,-1.3708776235580444,-3.586656093597412
1772717463575737900,7.23373779296875,-0.6396552920341492,1.0341578722000122,0.7423111796379089
1772717463595769900,7.253769775390625,-0.8778796792030334,2.4104208946228027,3.593104124069214
1772717463615803000,7.273802978515625,0.0491345152258873,2.0932297706604004,3.39370059967041
1772717463635835000,7.2938349609375,-0.7621685266494751,0.0008618282154202461,2.9387292861938477
1772717463655868200,7.3138681640625,-1.2076389789581299,-0.533121645450592,2.038803815841675
1772717463675900000,7.33389990234375,-0.9612984657287598,-1.1717172861099243,1.1922730207443237
1772717463695933200,7.35393310546875,-0.42940637469291687,-1.8354136943817139,0.6512972116470337
1772717463715965000,7.37396484375,-0.17859329283237457,-1.4448084831237793,0.2703547775745392
1772717463735998000,7.393998046875,-0.18903054296970367,-1.0246177911758423,-0.3422582447528839
1772717463756030200,7.4140302734375,-0.312621146440506,-1.2343183755874634,-0.8817244172096252
1772717463776063000,7.43406298828125,-0.48030367493629456,-1.2621707916259766,-0.92278653383255
1772717463796095000,7.454094970703125,-0.4647262692451477,-0.8036140203475952,-0.5852323174476624
1772717463816128000,7.4741279296875,-0.46181535720825195,-0.6053910255432129,0.10172033309936523
1772717463836160000,7.494159912109375,-0.4683760404586792,0.009618866257369518,0.7568605542182922
1772717463856193000,7.514193115234375,-0.3955760598182678,0.5910507440567017,1.0057792663574219
1772717463876225000,7.53422509765625,-0.29855018854141235,0.46289148926734924,0.9585511684417725
1772717463896258000,7.554258056640625,-0.3562069237232208,0.11558179557323456,0.8481763601303101
1772717463916290000,7.5742900390625,-0.3704369366168976,0.2709692120552063,0.5682788491249084
1772717463936322800,7.59432275390625,-0.3083508610725403,0.48627984523773193,0.3697170913219452
1772717463956355000,7.61435498046875,-0.2368415743112564,0.6868082284927368,0.3833298981189728
1772717463976388000,7.63438818359375,-0.07942686975002289,0.4341695010662079,0.25123172998428345
1772717463996419800,7.654419921875,0.12863653898239136,0.1420769840478897,-0.07894214987754822
1772717464016453000,7.674453125,0.18846562504768372,-0.01674818992614746,-0.1433733105659485
1772717464036484900,7.69448486328125,0.07933109998703003,0.05769680067896843,-0.11183881014585495
1772717464056518100,7.71451806640625,0.40957432985305786,0.3407553434371948,-0.5664145350456238
1772717464076550000,7.7345498046875,1.70895254611969,0.4740613102912903,-1.1745951175689697
1772717464096583000,7.7545830078125,1.8376914262771606,0.7898011803627014,-0.43012484908103943
1772717464116615200,7.774615234375,0.732857882976532,2.4554381370544434,-1.2303770780563354
1772717464136648000,7.79464794921875,-0.07104557752609253,0.7800981402397156,-6.439239501953125
1772717464156680200,7.81468017578125,0.16124965250492096,-1.9560332298278809,-7.050459861755371
1772717464176713000,7.834712890625,0.21182988584041595,-1.774859070777893,-3.3191471099853516
1772717464196745000,7.854744873046875,0.5067398548126221,-0.00005193520337343216,-0.12716424465179443
1772717464216778000,7.874778076171875,0.8641225695610046,0.7524782419204712,0.914157509803772
1772717464236810000,7.89481005859375,0.9128937721252441,0.7331512570381165,0.9865511059761047
1772717464256843000,7.914843017578125,0.7134539484977722,0.5609650015830994,1.5442613363265991
1772717464276875000,7.934875,0.6879048347473145,0.6279351115226746,2.2698400020599365
1772717464296907800,7.95490771484375,0.858833372592926,0.6308707594871521,2.6202731132507324
1772717464316940000,7.97493994140625,0.8192923069000244,0.4993761479854584,2.4403815269470215
1772717464336972000,7.994971923828125,0.47222134470939636,0.5864844918251038,1.537034034729004
1772717464357004000,8.015004150390626,0.01647637039422989,0.490457683801651,0.4564087986946106
1772717464377037000,8.035037109375,-0.1151290312409401,-0.031055064871907234,-0.27788907289505005
1772717464397069000,8.055069091796875,0.1954573690891266,-0.08212148398160934,-0.35712432861328125
1772717464417100800,8.075100830078124,0.6114333868026733,0.4864180088043213,0.1878383308649063
1772717464437134000,8.095134033203125,0.6957722306251526,1.2746639251708984,0.8362447023391724
1772717464457166000,8.115166015625,0.46770179271698,1.084547996520996,0.5510136485099792
1772717464477199000,8.13519921875,0.017289383336901665,-0.4397988021373749,-0.6744396686553955
1772717464497231000,8.155231201171874,-0.24131175875663757,-0.8978835940361023,-0.8510726094245911
1772717464517264000,8.175263916015625,-0.34478315711021423,-0.16837897896766663,-0.2349473088979721
1772717464537296100,8.195296142578124,-0.3319264054298401,0.1979568898677826,0.2797221839427948
