time,seconds_elapsed,z,y,x
1772790492786528800,0.05152880859375,-0.5822296142578125,-0.9207916259765625,0.037872314453125
1772790492806562000,0.07156201171875,-0.5902252197265625,-0.9099578857421875,0.028564453125
1772790492826594800,0.0915947265625,-0.618499755859375,-0.8888092041015625,0.0252838134765625
1772790492846627800,0.1116279296875,-0.638519287109375,-0.84637451171875,-0.0052947998046875
1772790492866662000,0.131661865234375,-0.6130523681640625,-0.8134002685546875,-0.039154052734375
1772790492886695000,0.15169482421875,-0.57916259765625,-0.77783203125,-0.0665130615234375
1772790492906727700,0.171727783203125,-0.5675811767578125,-0.7386627197265625,-0.085784912109375
1772790492926760400,0.191760498046875,-0.5753631591796875,-0.68218994140625,-0.0865631103515625
1772790492946793200,0.211793212890625,-0.5689239501953125,-0.642730712890625,-0.0914154052734375
1772790492966826500,0.231826416015625,-0.5423431396484375,-0.6255340576171875,-0.0912933349609375
1772790492986859300,0.251859375,-0.50762939453125,-0.6249542236328125,-0.1047821044921875
1772790493006893300,0.271893310546875,-0.492279052734375,-0.648834228515625,-0.1086578369140625
1772790493026926600,0.291926513671875,-0.5074310302734375,-0.6747589111328125,-0.10516357421875
1772790493046959400,0.31195947265625,-0.5640716552734375,-0.6969451904296875,-0.077239990234375
1772790493066992400,0.331992431640625,-0.614776611328125,-0.71417236328125,-0.0500335693359375
1772790493087025400,0.352025390625,-0.6634979248046875,-0.705169677734375,-0.0274658203125
1772790493107058200,0.37205810546875,-0.687744140625,-0.694091796875,-0.0040740966796875
1772790493127091500,0.392091552734375,-0.661102294921875,-0.69598388671875,0.006622314453125
1772790493147125500,0.41212548828125,-0.5760955810546875,-0.726318359375,0.012481689453125
1772790493167158300,0.432158203125,-0.4485626220703125,-0.738677978515625,0.0463409423828125
1772790493187191600,0.452191650390625,-0.3988494873046875,-0.768646240234375,0.0466461181640625
1772790493207224300,0.472224365234375,-0.36224365234375,-0.7308197021484375,0.0598297119140625
1772790493227257600,0.492257568359375,-0.3628082275390625,-0.6741485595703125,0.0521087646484375
1772790493247290400,0.512290283203125,-0.3296661376953125,-0.5692291259765625,0.026153564453125
1772790493267323400,0.532323486328125,-0.2452239990234375,-0.44256591796875,0.000885009765625
1772790493287357400,0.552357421875,-0.15106201171875,-0.3046722412109375,-0.0052337646484375
1772790493307390500,0.572390380859375,-0.02813720703125,-0.1600189208984375,-0.0166168212890625
1772790493327423200,0.59242333984375,0.1262664794921875,-0.0129547119140625,-0.0769500732421875
1772790493347456500,0.61245654296875,0.276702880859375,0.1746826171875,-0.1226806640625
1772790493367489300,0.6324892578125,0.383209228515625,0.4077911376953125,-0.112701416015625
1772790493387522600,0.6525224609375,0.453582763671875,0.6595306396484375,-0.02899169921875
1772790493407555300,0.672555419921875,0.4833221435546875,0.94451904296875,0.1735076904296875
1772790493427589400,0.69258935546875,0.4445953369140625,1.213348388671875,0.451202392578125
1772790493447622400,0.712622314453125,0.31591796875,1.519195556640625,0.7572174072265625
1772790493467655400,0.732655517578125,0.196685791015625,1.9508819580078125,1.10296630859375
1772790493487688200,0.752688232421875,0.1790008544921875,2.47271728515625,1.5266571044921875
1772790493507721500,0.772721435546875,0.324981689453125,2.8901519775390625,1.9913787841796875
1772790493527754200,0.792754150390625,0.4774932861328125,2.984405517578125,2.2803497314453125
1772790493547787500,0.81278759765625,0.667694091796875,2.7335052490234375,2.3253021240234375
1772790493567821600,0.832821533203125,0.836456298828125,2.1871490478515625,2.0875091552734375
1772790493587854300,0.852854248046875,0.8498992919921875,1.5012054443359375,1.8013153076171875
1772790493607887600,0.8728876953125,0.749542236328125,1.012786865234375,1.829833984375
1772790493627920400,0.89292041015625,0.66766357421875,0.710906982421875,1.9966888427734375
1772790493647953400,0.912953369140625,0.657318115234375,0.675201416015625,1.897491455078125
1772790493667986400,0.932986328125,0.669830322265625,0.7039031982421875,1.4770965576171875
1772790493688019500,0.95301953125,0.67974853515625,0.799041748046875,1.19036865234375
1772790493708052500,0.973052490234375,0.6372222900390625,0.8862457275390625,1.0276641845703125
1772790493728086500,0.99308642578125,0.524566650390625,0.9508514404296875,0.9163818359375
1772790493748119300,1.013119384765625,0.435455322265625,0.9799652099609375,0.8123016357421875
1772790493768152600,1.033152587890625,0.3197174072265625,0.96246337890625,0.6755828857421875
1772790493788185300,1.053185302734375,0.21514892578125,0.8562164306640625,0.5631103515625
1772790493808218400,1.07321826171875,0.145263671875,0.741607666015625,0.5330810546875
1772790493828251400,1.09325146484375,0.053924560546875,0.6400299072265625,0.5007476806640625
1772790493848284400,1.113284423828125,-0.0333099365234375,0.595672607421875,0.486785888671875
1772790493868317400,1.1333173828125,-0.1102142333984375,0.6021881103515625,0.5263824462890625
1772790493888351500,1.1533515625,-0.174102783203125,0.62664794921875,0.55426025390625
1772790493908384300,1.17338427734375,-0.2177581787109375,0.6313323974609375,0.611358642578125
1772790493928417800,1.193417724609375,-0.21649169921875,0.6289215087890625,0.709869384765625
1772790493948450800,1.213450927734375,-0.179473876953125,0.622161865234375,0.83197021484375
1772790493968483600,1.233483642578125,-0.08721923828125,0.5727386474609375,0.9441375732421875
1772790493988516900,1.253516845703125,0.048187255859375,0.506439208984375,1.0252227783203125
1772790494008549600,1.273549560546875,0.227447509765625,0.5234375,1.0513916015625
1772790494028583700,1.293583740234375,0.4376068115234375,0.567718505859375,1.06317138671875
1772790494048616700,1.31361669921875,0.618194580078125,0.624603271484375,1.0495758056640625
1772790494068649700,1.333649658203125,0.7544708251953125,0.6836395263671875,0.9889678955078125
1772790494088682800,1.353682861328125,0.82208251953125,0.7337646484375,0.874908447265625
1772790494108715800,1.3737158203125,0.8230438232421875,0.7197723388671875,0.72418212890625
1772790494128748500,1.39374853515625,0.780975341796875,0.661468505859375,0.6488037109375
1772790494148781800,1.41378173828125,0.7070465087890625,0.623687744140625,0.656494140625
1772790494168814600,1.433814697265625,0.6118011474609375,0.6193084716796875,0.673828125
1772790494188848600,1.4538486328125,0.5417327880859375,0.73016357421875,0.7513580322265625
1772790494208881700,1.473881591796875,0.45257568359375,0.90765380859375,0.8204193115234375
1772790494228914700,1.493914794921875,0.3541717529296875,0.9775390625,0.849578857421875
1772790494248947700,1.51394775390625,0.3004913330078125,1.0281982421875,0.8883819580078125
1772790494268980700,1.533980712890625,0.2763671875,0.9603118896484375,0.8858642578125
1772790494289013500,1.554013427734375,0.2974700927734375,0.8824615478515625,0.886688232421875
1772790494309046800,1.574046875,0.3021392822265625,0.8106231689453125,0.8858795166015625
1772790494329079600,1.59407958984375,0.2881927490234375,0.7662353515625,0.8750152587890625
1772790494349113600,1.614113525390625,0.2270050048828125,0.7532958984375,0.8386383056640625
1772790494369147000,1.63414697265625,0.153900146484375,0.7514801025390625,0.792205810546875
1772790494389179600,1.6541796875,0.0807952880859375,0.7415924072265625,0.7461090087890625
1772790494409213000,1.674212890625,0.025970458984375,0.7259063720703125,0.7164306640625
1772790494429245700,1.69424560546875,0.00201416015625,0.72210693359375,0.7033538818359375
1772790494449278700,1.71427880859375,-0.0022125244140625,0.742523193359375,0.7027587890625
1772790494469311700,1.734311767578125,-0.00347900390625,0.77996826171875,0.7187347412109375
1772790494489344800,1.7543447265625,0.0015869140625,0.827117919921875,0.7347412109375
1772790494509378600,1.774378662109375,-0.007080078125,0.84197998046875,0.7465362548828125
1772790494529411800,1.794411865234375,0.0142974853515625,0.84088134765625,0.75323486328125
1772790494549444600,1.814444580078125,0.04852294921875,0.81951904296875,0.767242431640625
1772790494569478000,1.834477783203125,0.090301513671875,0.7926788330078125,0.7832183837890625
1772790494589510700,1.8545107421875,0.1222686767578125,0.779022216796875,0.8117523193359375
1772790494609543700,1.874543701171875,0.13720703125,0.753631591796875,0.807861328125
1772790494629576700,1.89457666015625,0.1457977294921875,0.737396240234375,0.7989044189453125
1772790494649609700,1.914609619140625,0.1670989990234375,0.7394256591796875,0.7774810791015625
1772790494669642800,1.934642822265625,0.1619110107421875,0.72198486328125,0.7466278076171875
1772790494689676800,1.9546767578125,0.177734375,0.698577880859375,0.71038818359375
1772790494709709600,1.97470947265625,0.188018798828125,0.694000244140625,0.68804931640625
1772790494729742800,1.994742919921875,0.2262115478515625,0.7303924560546875,0.7101593017578125
1772790494749775600,2.014775634765625,0.2572479248046875,0.7381744384765625,0.6722869873046875
1772790494769809000,2.034808837890625,0.29364013671875,0.732421875,0.61602783203125
1772790494789841700,2.054841552734375,0.3305206298828125,0.7279815673828125,0.540771484375
1772790494809874700,2.074874755859375,0.367919921875,0.721435546875,0.4261322021484375
1772790494829907700,2.09490771484375,0.4072723388671875,0.6974945068359375,0.30572509765625
1772790494849941800,2.114941650390625,0.4647979736328125,0.6979217529296875,0.3003692626953125
1772790494869974800,2.134974853515625,0.6016845703125,0.8303985595703125,0.4354248046875
1772790494890007800,2.1550078125,0.6209716796875,0.896331787109375,0.494964599609375
1772790494910041000,2.175041015625,0.5577239990234375,0.855255126953125,0.5009613037109375
1772790494930073900,2.195073974609375,0.5476531982421875,0.8687591552734375,0.5195465087890625
1772790494950107100,2.215107177734375,0.587371826171875,0.8881072998046875,0.49603271484375
1772790494970140000,2.235139892578125,0.65997314453125,0.8643798828125,0.4339447021484375
1772790494990173200,2.255173095703125,0.748992919921875,0.8579864501953125,0.3785552978515625
1772790495010207000,2.27520703125,0.8523406982421875,0.845550537109375,0.3842926025390625
1772790495030240000,2.295239990234375,0.9303741455078125,0.7982330322265625,0.465728759765625
1772790495050273000,2.31527294921875,0.912109375,0.720123291015625,0.574005126953125
1772790495070306000,2.33530615234375,0.799041748046875,0.6571502685546875,0.6986083984375
1772790495090339000,2.355339111328125,0.643890380859375,0.6475372314453125,0.85394287109375
1772790495110372000,2.3753720703125,0.4522857666015625,0.67828369140625,1.024505615234375
1772790495130404900,2.39540478515625,0.28472900390625,0.6763153076171875,1.14215087890625
1772790495150438100,2.415438232421875,0.181915283203125,0.69659423828125,1.210968017578125
1772790495170472200,2.43547216796875,0.13372802734375,0.719146728515625,1.1998443603515625
1772790495190505000,2.4555048828125,0.0930328369140625,0.7118072509765625,1.0980377197265625
1772790495210538000,2.4755380859375,0.0689239501953125,0.7022552490234375,0.9806365966796875
1772790495230571000,2.495571044921875,0.0413055419921875,0.71014404296875,0.8839569091796875
1772790495250604000,2.51560400390625,0.02490234375,0.7004852294921875,0.782257080078125
1772790495270637000,2.535636962890625,0.03668212890625,0.701385498046875,0.7073974609375
1772790495290669800,2.555669921875,0.045928955078125,0.704986572265625,0.6539764404296875
1772790495310703000,2.575703125,0.0464019775390625,0.6887969970703125,0.610595703125
1772790495330735900,2.59573583984375,0.0449981689453125,0.66754150390625,0.560394287109375
1772790495350770000,2.61577001953125,0.0423431396484375,0.6418304443359375,0.525482177734375
1772790495370803200,2.63580322265625,0.0406494140625,0.6279296875,0.5216217041015625
1772790495390836000,2.6558359375,0.043121337890625,0.621795654296875,0.5241241455078125
1772790495410869200,2.675869140625,0.0684967041015625,0.630767822265625,0.5430755615234375
1772790495430902000,2.695902099609375,0.08984375,0.6551666259765625,0.5867462158203125
1772790495450935000,2.71593505859375,0.128631591796875,0.714599609375,0.6801605224609375
1772790495470968000,2.735968017578125,0.1800537109375,0.7730865478515625,0.7830047607421875
1772790495491001000,2.7560009765625,0.22540283203125,0.8026885986328125,0.86614990234375
1772790495511035000,2.776034912109375,0.2574920654296875,0.7686309814453125,0.8915557861328125
1772790495531068200,2.796068115234375,0.29266357421875,0.680755615234375,0.872039794921875
1772790495551101000,2.816100830078125,0.401123046875,0.630706787109375,0.8253936767578125
1772790495571134200,2.83613427734375,0.5172119140625,0.594329833984375,0.7923736572265625
1772790495591167000,2.8561669921875,0.644317626953125,0.565338134765625,0.7914581298828125
1772790495611200000,2.876199951171875,0.769439697265625,0.65155029296875,0.8451385498046875
1772790495631233000,2.89623291015625,0.807037353515625,0.718902587890625,0.812042236328125
1772790495651266000,2.91626611328125,0.771728515625,0.769500732421875,0.7820281982421875
1772790495671299000,2.936299072265625,0.6767425537109375,0.81646728515625,0.8412017822265625
1772790495691333000,2.9563330078125,0.5350799560546875,0.772796630859375,0.89202880859375
1772790495711366000,2.976365966796875,0.39837646484375,0.6807098388671875,0.919464111328125
1772790495731399200,2.996399169921875,0.3243865966796875,0.614288330078125,0.933929443359375
1772790495751432000,3.016431884765625,0.2964630126953125,0.5956878662109375,0.8959503173828125
1772790495771465000,3.03646484375,0.2818145751953125,0.5880279541015625,0.8159942626953125
1772790495791498000,3.056498046875,0.2811126708984375,0.597076416015625,0.74993896484375
1772790495811531000,3.076531005859375,0.266571044921875,0.634979248046875,0.71795654296875
1772790495831564000,3.09656396484375,0.2285919189453125,0.67431640625,0.7073974609375
1772790495851598000,3.11659814453125,0.1717529296875,0.7030181884765625,0.7116241455078125
1772790495871631000,3.136631103515625,0.0980072021484375,0.71380615234375,0.724639892578125
1772790495891664100,3.1566640625,0.0515594482421875,0.7339935302734375,0.7504730224609375
1772790495911696400,3.1766962890625,0.03277587890625,0.7791748046875,0.7975921630859375
1772790495931729700,3.196729736328125,0.0340728759765625,0.8221893310546875,0.838043212890625
1772790495951762400,3.216762451171875,0.0417633056640625,0.8733367919921875,0.8795928955078125
1772790495971795500,3.23679541015625,0.065826416015625,0.917755126953125,0.9193115234375
1772790495991828500,3.256828369140625,0.0978240966796875,0.94293212890625,0.9510955810546875
1772790496011861500,3.276861572265625,0.1080474853515625,0.9222412109375,0.957000732421875
1772790496031895300,3.296895263671875,0.123748779296875,0.8896026611328125,0.9417877197265625
1772790496051928600,3.316928466796875,0.130828857421875,0.8585205078125,0.9177703857421875
1772790496071961300,3.33696142578125,0.132171630859375,0.8362579345703125,0.8925933837890625
1772790496091994600,3.35699462890625,0.1337127685546875,0.8379364013671875,0.87109375
1772790496112027400,3.37702734375,0.1272735595703125,0.84771728515625,0.8332977294921875
1772790496132060400,3.397060302734375,0.129547119140625,0.861724853515625,0.783355712890625
1772790496152093400,3.417093505859375,0.1266632080078125,0.863494873046875,0.7276763916015625
1772790496172126500,3.43712646484375,0.140106201171875,0.86029052734375,0.6643218994140625
1772790496192159500,3.457159423828125,0.1706390380859375,0.848388671875,0.571624755859375
1772790496212193500,3.477193603515625,0.232574462890625,0.8646240234375,0.5029754638671875
1772790496232226300,3.497226318359375,0.2796478271484375,0.8511962890625,0.433929443359375
1772790496252259600,3.517259521484375,0.3043212890625,0.8069610595703125,0.40521240234375
1772790496272292400,3.537292236328125,0.320709228515625,0.7607269287109375,0.4087066650390625
1772790496292325400,3.557325439453125,0.320465087890625,0.72369384765625,0.427886962890625
1772790496312358400,3.5773583984375,0.3162994384765625,0.682525634765625,0.4208221435546875
1772790496332391400,3.597391357421875,0.3157196044921875,0.672027587890625,0.4290313720703125
1772790496352424400,3.617424560546875,0.352508544921875,0.7647857666015625,0.4931488037109375
1772790496372458500,3.63745849609375,0.3375396728515625,0.8511199951171875,0.521392822265625
1772790496392491500,3.657491455078125,0.288055419921875,0.9305267333984375,0.523956298828125
1772790496412524500,3.677524658203125,0.212921142578125,0.9272003173828125,0.4829254150390625
1772790496432557600,3.6975576171875,0.2241668701171875,0.884979248046875,0.4650421142578125
1772790496452590600,3.717590576171875,0.30865478515625,0.8387603759765625,0.458282470703125
1772790496472623600,3.73762353515625,0.38702392578125,0.78607177734375,0.4634857177734375
1772790496492656400,3.757656494140625,0.445098876953125,0.751220703125,0.465423583984375
1772790496512689700,3.777689697265625,0.4879608154296875,0.736785888671875,0.4795379638671875
1772790496532722400,3.797722412109375,0.5204620361328125,0.7472686767578125,0.506561279296875
1772790496552756500,3.817756591796875,0.512969970703125,0.7849273681640625,0.5743560791015625
1772790496572789500,3.83778955078125,0.4546661376953125,0.8295135498046875,0.683990478515625
1772790496592822500,3.857822509765625,0.3761138916015625,0.9169464111328125,0.8365478515625
1772790496612855600,3.87785546875,0.280731201171875,0.9933624267578125,0.9849090576171875
1772790496632888600,3.897888671875,0.1752471923828125,1.01898193359375,1.10595703125
1772790496652921300,3.91792138671875,0.093902587890625,0.9868316650390625,1.189727783203125
1772790496672954600,3.93795458984375,0.0712127685546875,0.8930206298828125,1.19598388671875
1772790496692987400,3.9579873046875,0.0821380615234375,0.766998291015625,1.1599273681640625
1772790496713020700,3.978020751953125,0.1132965087890625,0.6544189453125,1.0857696533203125
1772790496733054500,3.998054443359375,0.167510986328125,0.5902862548828125,0.988922119140625
1772790496753086500,4.01808642578125,0.2062835693359375,0.5813446044921875,0.878662109375
1772790496773119500,4.038119384765625,0.226715087890625,0.6129913330078125,0.7918548583984375
1772790496793152500,4.058152587890625,0.2331695556640625,0.638336181640625,0.68780517578125
1772790496813185500,4.078185546875,0.2445831298828125,0.6517333984375,0.6076202392578125
1772790496833218600,4.098218505859375,0.24261474609375,0.651123046875,0.57318115234375
1772790496853251600,4.11825146484375,0.245941162109375,0.63702392578125,0.552581787109375
1772790496873284600,4.13828466796875,0.2277374267578125,0.641510009765625,0.557769775390625
1772790496893317400,4.1583173828125,0.190093994140625,0.67706298828125,0.5819854736328125
1772790496913351000,4.178350830078125,0.13421630859375,0.706878662109375,0.58441162109375
1772790496933385000,4.198385009765625,0.108367919921875,0.7242279052734375,0.5840911865234375
1772790496953418000,4.21841796875,0.1314544677734375,0.7579193115234375,0.6269073486328125
1772790496973451000,4.238450927734375,0.1723785400390625,0.767608642578125,0.684906005859375
1772790496993484000,4.258484130859375,0.2286224365234375,0.7614288330078125,0.7150421142578125
1772790497013516800,4.278516845703125,0.2983551025390625,0.738555908203125,0.7470550537109375
1772790497033549800,4.2985498046875,0.378631591796875,0.69879150390625,0.7675628662109375
1772790497053582800,4.318582763671875,0.450164794921875,0.645751953125,0.757080078125
1772790497073616000,4.338615966796875,0.495391845703125,0.60577392578125,0.7540740966796875
1772790497093649000,4.35864892578125,0.527984619140625,0.5784149169921875,0.756317138671875
1772790497113683000,4.378682861328125,0.5797119140625,0.6776885986328125,0.82073974609375
1772790497133716000,4.398716064453125,0.5670166015625,0.815216064453125,0.864410400390625
1772790497153750800,4.418750732421875,0.49530029296875,0.9277496337890625,0.889862060546875
1772790497173784000,4.4387841796875,0.3832550048828125,0.9617919921875,0.8995361328125
1772790497193816800,4.45881689453125,0.30474853515625,0.93756103515625,0.91375732421875
1772790497213849900,4.478849853515625,0.2480010986328125,0.8755645751953125,0.9205169677734375
1772790497233883000,4.4988828125,0.2212066650390625,0.811981201171875,0.906494140625
1772790497253917000,4.5189169921875,0.2158355712890625,0.799163818359375,0.8573760986328125
1772790497273950000,4.538949951171875,0.2105255126953125,0.8020477294921875,0.7774200439453125
1772790497293983000,4.55898291015625,0.20159912109375,0.8103790283203125,0.6994171142578125
1772790497314015700,4.579015625,0.1739959716796875,0.8263702392578125,0.658477783203125
1772790497334049000,4.599049072265625,0.1281280517578125,0.8321075439453125,0.651123046875
1772790497354081800,4.619081787109375,0.0785064697265625,0.8294219970703125,0.627166748046875
1772790497374115000,4.639114990234375,0.022613525390625,0.8099212646484375,0.5900726318359375
1772790497394147800,4.65914794921875,-0.0133819580078125,0.791229248046875,0.57177734375
1772790497414181000,4.67918115234375,-0.029205322265625,0.812530517578125,0.567230224609375
1772790497434215000,4.69921484375,-0.0370330810546875,0.8327484130859375,0.5584716796875
1772790497454248000,4.719248046875,-0.0208587646484375,0.868377685546875,0.585052490234375
1772790497474281000,4.739281005859375,-0.00677490234375,0.9031524658203125,0.6341094970703125
1772790497494314000,4.75931396484375,-0.005950927734375,0.896026611328125,0.70343017578125
1772790497514346800,4.7793466796875,-0.018280029296875,0.83538818359375,0.828338623046875
1772790497534380000,4.799380126953125,-0.04571533203125,0.67694091796875,1.0579376220703125
1772790497554412800,4.819412841796875,-0.0350189208984375,0.4712066650390625,1.1642303466796875
1772790497574446000,4.839446044921875,0.0627288818359375,0.39697265625,1.2425384521484375
1772790497594479900,4.85947998046875,0.1336822509765625,0.4417266845703125,1.242431640625
1772790497614513000,4.879512939453125,0.16400146484375,0.5709381103515625,1.17529296875
1772790497634546000,4.8995458984375,0.1487274169921875,0.6890716552734375,1.0537872314453125
1772790497654579000,4.919578857421875,0.1557769775390625,0.763824462890625,0.9284210205078125
1772790497674611700,4.93961181640625,0.1800537109375,0.7881622314453125,0.7915191650390625
1772790497694645000,4.95964501953125,0.22650146484375,0.7570343017578125,0.6764678955078125
1772790497714677800,4.979677734375,0.2752685546875,0.7237091064453125,0.6451263427734375
1772790497734711000,4.9997109375,0.3132781982421875,0.6967926025390625,0.6375732421875
1772790497754743800,5.019743896484375,0.355316162109375,0.6893463134765625,0.6029510498046875
1772790497774777900,5.03977783203125,0.386566162109375,0.6803131103515625,0.5477752685546875
1772790497794811100,5.05981103515625,0.4240570068359375,0.6964569091796875,0.521240234375
1772790497814844000,5.079843994140625,0.44146728515625,0.7572021484375,0.5140380859375
1772790497834877000,5.099876953125,0.3545074462890625,0.7400360107421875,0.4257354736328125
1772790497854910000,5.119909912109375,0.307159423828125,0.7375640869140625,0.42193603515625
1772790497874943000,5.13994287109375,0.323211669921875,0.7569122314453125,0.40673828125
1772790497894976000,5.15997607421875,0.417083740234375,0.779937744140625,0.384674072265625
1772790497915009000,5.180009033203125,0.5199127197265625,0.803924560546875,0.3648834228515625
1772790497935042000,5.2000419921875,0.596343994140625,0.8175201416015625,0.356292724609375
1772790497955076000,5.220076171875,0.6185150146484375,0.8308563232421875,0.406036376953125
1772790497975109000,5.240109130859375,0.589508056640625,0.831390380859375,0.4816131591796875
1772790497995142000,5.260141845703125,0.5328826904296875,0.8263397216796875,0.5605926513671875
1772790498015175200,5.280175048828125,0.4802398681640625,0.807098388671875,0.6278228759765625
1772790498035208000,5.3002080078125,0.4231719970703125,0.7872314453125,0.683074951171875
1772790498055241200,5.3202412109375,0.3646697998046875,0.792388916015625,0.7552032470703125
1772790498075274000,5.34027392578125,0.29437255859375,0.8329010009765625,0.8380584716796875
1772790498095307000,5.36030712890625,0.2115325927734375,0.854736328125,0.90521240234375
1772790498115340000,5.380340087890625,0.137115478515625,0.8573150634765625,0.949554443359375
1772790498135373000,5.400373046875,0.075164794921875,0.85333251953125,0.97137451171875
1772790498155406800,5.42040673828125,0.0441436767578125,0.8217620849609375,0.95672607421875
1772790498175440100,5.440440185546875,0.040130615234375,0.7970123291015625,0.926513671875
1772790498195473000,5.460472900390625,0.0507965087890625,0.7899017333984375,0.8791351318359375
1772790498215506200,5.480506103515625,0.06072998046875,0.7852020263671875,0.8234710693359375
1772790498235539000,5.5005390625,0.0720672607421875,0.783966064453125,0.760101318359375
1772790498255572000,5.520572021484375,0.0792999267578125,0.7848052978515625,0.6946563720703125
1772790498275605000,5.54060498046875,0.0767822265625,0.7773284912109375,0.622711181640625
1772790498295638000,5.560637939453125,0.074371337890625,0.7583465576171875,0.5729522705078125
1772790498315671000,5.580671142578125,0.076507568359375,0.7431793212890625,0.550384521484375
1772790498335705000,5.600705078125,0.0933837890625,0.72735595703125,0.53155517578125
1772790498355737900,5.62073779296875,0.1109161376953125,0.7381134033203125,0.543731689453125
1772790498375771100,5.640771240234375,0.1025543212890625,0.7706146240234375,0.568603515625
1772790498395804000,5.660803955078125,0.083465576171875,0.814056396484375,0.60986328125
1772790498415837000,5.6808369140625,0.05889892578125,0.844573974609375,0.65924072265625
1772790498435870000,5.700869873046875,0.066436767578125,0.8730316162109375,0.7374420166015625
1772790498455903000,5.720903076171875,0.10137939453125,0.8768310546875,0.816009521484375
1772790498475936000,5.74093603515625,0.167510986328125,0.8724517822265625,0.885772705078125
1772790498495969000,5.760968994140625,0.2271575927734375,0.845550537109375,0.9168853759765625
1772790498516003000,5.781003173828125,0.277923583984375,0.8048095703125,0.946533203125
1772790498536036000,5.8010361328125,0.3579559326171875,0.7961578369140625,1.01300048828125
1772790498556069000,5.821069091796875,0.4480438232421875,0.826934814453125,1.083343505859375
1772790498576102100,5.84110205078125,0.49700927734375,0.782958984375,1.10882568359375
1772790498596135200,5.86113525390625,0.5349578857421875,0.6927032470703125,1.0934295654296875
1772790498616168000,5.88116796875,0.5647125244140625,0.59661865234375,1.035552978515625
1772790498636201200,5.901201171875,0.57489013671875,0.53680419921875,0.971099853515625
1772790498656234000,5.92123388671875,0.5565338134765625,0.504486083984375,0.910491943359375
1772790498676267000,5.94126708984375,0.5222320556640625,0.5341796875,0.85791015625
1772790498696300000,5.961300048828125,0.473846435546875,0.5880279541015625,0.8087310791015625
1772790498716334000,5.981333984375,0.4277801513671875,0.6385040283203125,0.7722625732421875
1772790498736367000,6.0013671875,0.37908935546875,0.6853179931640625,0.774688720703125
1772790498756400000,6.021400146484375,0.331329345703125,0.71173095703125,0.7910614013671875
1772790498776433000,6.041432861328125,0.28375244140625,0.7265167236328125,0.8219757080078125
1772790498796466200,6.061466064453125,0.2350616455078125,0.7304229736328125,0.841064453125
1772790498816499000,6.0814990234375,0.1828460693359375,0.725555419921875,0.841064453125
1772790498836532200,6.1015322265625,0.1501617431640625,0.72283935546875,0.8419647216796875
1772790498856565000,6.12156494140625,0.1466064453125,0.750640869140625,0.8529052734375
1772790498876598000,6.141597900390625,0.1767425537109375,0.8292999267578125,0.896636962890625
1772790498896632000,6.161632080078125,0.2184295654296875,0.9448394775390625,0.9468536376953125
1772790498916664600,6.18166455078125,0.29345703125,1.03765869140625,0.9457244873046875
1772790498936697600,6.201697509765625,0.3767547607421875,1.0789337158203125,0.8684844970703125
1772790498956730600,6.221730712890625,0.4258270263671875,1.078277587890625,0.7692413330078125
1772790498976763600,6.241763671875,0.4232940673828125,1.044036865234375,0.730194091796875
1772790498996796700,6.261796630859375,0.3825531005859375,1.011383056640625,0.7789459228515625
1772790499016829700,6.28182958984375,0.33172607421875,0.98162841796875,0.829742431640625
1772790499036862700,6.30186279296875,0.2812652587890625,0.9559326171875,0.850311279296875
1772790499056895500,6.3218955078125,0.22845458984375,0.9387969970703125,0.8383026123046875
1772790499076928500,6.341928466796875,0.19012451171875,0.9286956787109375,0.7907257080078125
1772790499096962800,6.361962890625,0.1957244873046875,0.9224090576171875,0.7066497802734375
1772790499116995600,6.38199560546875,0.220672607421875,0.9182891845703125,0.641876220703125
1772790499137028600,6.402028564453125,0.248077392578125,0.8795013427734375,0.573333740234375
1772790499157061600,6.4220615234375,0.28082275390625,0.84039306640625,0.534149169921875
1772790499177094700,6.4420947265625,0.30743408203125,0.8041839599609375,0.5030517578125
1772790499197127700,6.462127685546875,0.322418212890625,0.7840423583984375,0.479766845703125
1772790499217160700,6.48216064453125,0.3285675048828125,0.779296875,0.45257568359375
1772790499237193500,6.502193359375,0.3129119873046875,0.7690887451171875,0.4254150390625
1772790499257226800,6.522226806640625,0.296539306640625,0.7511749267578125,0.3963165283203125
1772790499277260500,6.542260498046875,0.290252685546875,0.715118408203125,0.37359619140625
1772790499297293600,6.56229345703125,0.3054656982421875,0.6710205078125,0.3460693359375
1772790499317326600,6.58232666015625,0.3677215576171875,0.6690673828125,0.3468017578125
1772790499337359600,6.602359619140625,0.4515380859375,0.741424560546875,0.3668365478515625
1772790499357392600,6.622392578125,0.4634552001953125,0.7470703125,0.339202880859375
1772790499377425700,6.64242578125,0.4215545654296875,0.75299072265625,0.3538970947265625
1772790499397458400,6.66245849609375,0.3764190673828125,0.771087646484375,0.3935089111328125
1772790499417491700,6.68249169921875,0.3592071533203125,0.8115234375,0.4304046630859375
1772790499437524500,6.7025244140625,0.3544921875,0.8678741455078125,0.447357177734375
1772790499457557800,6.722557861328125,0.32952880859375,0.919586181640625,0.4720611572265625
1772790499477591600,6.742591552734375,0.288116455078125,0.965301513671875,0.4991455078125
1772790499497624600,6.76262451171875,0.2460174560546875,1.0062713623046875,0.547698974609375
1772790499517657600,6.78265771484375,0.226104736328125,1.0423736572265625,0.6347198486328125
1772790499537690600,6.802690673828125,0.2337493896484375,1.05072021484375,0.722015380859375
1772790499557723600,6.8227236328125,0.269775390625,1.0513763427734375,0.81427001953125
1772790499577756700,6.842756591796875,0.2923583984375,1.0318145751953125,0.891815185546875
1772790499597789400,6.86278955078125,0.28985595703125,0.9706878662109375,0.96759033203125
1772790499617822700,6.88282275390625,0.29974365234375,0.90301513671875,1.058563232421875
1772790499637855500,6.90285546875,0.284393310546875,0.857574462890625,1.13525390625
1772790499657888800,6.922888671875,0.2578277587890625,0.8196258544921875,1.1557464599609375
1772790499677922800,6.9429228515625,0.2316741943359375,0.77337646484375,1.1349334716796875
1772790499697955600,6.96295556640625,0.230316162109375,0.7511138916015625,1.0791015625
1772790499717988600,6.982988525390625,0.2442626953125,0.7382659912109375,0.9975433349609375
1772790499738021600,7.003021728515625,0.2640380859375,0.72216796875,0.916595458984375
1772790499758054400,7.023054443359375,0.2877960205078125,0.7220916748046875,0.8354949951171875
1772790499778087700,7.043087646484375,0.288055419921875,0.722900390625,0.7569580078125
1772790499798120400,7.063120361328125,0.281829833984375,0.7191162109375,0.6747283935546875
1772790499818153700,7.08315380859375,0.27740478515625,0.705291748046875,0.5916290283203125
1772790499838186500,7.1031865234375,0.2643890380859375,0.683013916015625,0.54119873046875
1772790499858220500,7.123220458984375,0.2449951171875,0.6640472412109375,0.5343475341796875
1772790499878253800,7.14325390625,0.214599609375,0.66375732421875,0.550537109375
1772790499898286600,7.16328662109375,0.1837005615234375,0.66668701171875,0.5824127197265625
1772790499918319900,7.18331982421875,0.1667327880859375,0.6742401123046875,0.6154632568359375
1772790499938353200,7.203353271484375,0.1791839599609375,0.6779327392578125,0.6335906982421875
1772790499958386000,7.223385986328125,0.2108917236328125,0.6730194091796875,0.6561126708984375
1772790499978419000,7.2434189453125,0.26641845703125,0.6681365966796875,0.6908721923828125
1772790499998452000,7.263451904296875,0.31658935546875,0.6582794189453125,0.7188873291015625
1772790500018485000,7.283485107421875,0.373046875,0.6380157470703125,0.7355499267578125
1772790500038518000,7.30351806640625,0.4214019775390625,0.6231536865234375,0.74285888671875
1772790500058552000,7.323552001953125,0.4546966552734375,0.6136627197265625,0.7247772216796875
1772790500078584800,7.343584716796875,0.4789581298828125,0.61163330078125,0.7085418701171875
1772790500098618000,7.3636181640625,0.4882354736328125,0.6122283935546875,0.6964569091796875
1772790500118651000,7.38365087890625,0.4791259765625,0.615509033203125,0.6790313720703125
1772790500138684200,7.40368408203125,0.4480133056640625,0.6278228759765625,0.66748046875
1772790500158717000,7.423717041015625,0.40325927734375,0.6438751220703125,0.663787841796875
1772790500178750000,7.44375,0.3710784912109375,0.68792724609375,0.6817779541015625
1772790500198783000,7.463782958984375,0.352142333984375,0.7806549072265625,0.713623046875
1772790500218816000,7.48381591796875,0.3035888671875,0.8373870849609375,0.708404541015625
1772790500238849000,7.50384912109375,0.26708984375,0.84735107421875,0.7060394287109375
1772790500258883000,7.523883056640625,0.2579498291015625,0.8331756591796875,0.7119903564453125
1772790500278915800,7.543915771484375,0.26922607421875,0.80242919921875,0.7295989990234375
1772790500298949000,7.56394921875,0.2844085693359375,0.788116455078125,0.7618865966796875
1772790500318982000,7.58398193359375,0.3068084716796875,0.798675537109375,0.786102294921875
1772790500339015000,7.604014892578125,0.3137664794921875,0.82769775390625,0.7834930419921875
1772790500359048000,7.6240478515625,0.3101348876953125,0.84967041015625,0.7706756591796875
1772790500379081000,7.6440810546875,0.3003387451171875,0.8667144775390625,0.7681427001953125
1772790500399114000,7.664114013671875,0.296905517578125,0.8609619140625,0.7617034912109375
1772790500419147000,7.68414697265625,0.306610107421875,0.840728759765625,0.733062744140625
1772790500439181000,7.70418115234375,0.3243408203125,0.813629150390625,0.68243408203125
1772790500459214000,7.724214111328125,0.324005126953125,0.7738037109375,0.617645263671875
1772790500479247000,7.7442470703125,0.31292724609375,0.72119140625,0.546051025390625
1772790500499280000,7.76427978515625,0.3145599365234375,0.6868438720703125,0.5082244873046875
1772790500519313200,7.784313232421875,0.323211669921875,0.692108154296875,0.503936767578125
1772790500539346000,7.804345947265625,0.3262481689453125,0.7377777099609375,0.5175628662109375
1772790500559379200,7.824379150390625,0.3224945068359375,0.78460693359375,0.5328216552734375
1772790500579412000,7.844411865234375,0.3082733154296875,0.8223419189453125,0.550323486328125
1772790500599445000,7.864445068359375,0.2921295166015625,0.83990478515625,0.58984375
1772790500619478000,7.88447802734375,0.2799835205078125,0.83282470703125,0.6304931640625
1772790500639512000,7.904511962890625,0.2711029052734375,0.8035125732421875,0.666259765625
1772790500659544800,7.924544921875,0.25799560546875,0.7635040283203125,0.6996612548828125
1772790500679578000,7.944578125,0.23211669921875,0.723236083984375,0.7283477783203125
1772790500699611000,7.96461083984375,0.2158050537109375,0.6936187744140625,0.751190185546875
1772790500719644200,7.98464404296875,0.219482421875,0.685333251953125,0.7513275146484375
1772790500739675100,8.004675048828124,0.2631683349609375,0.6902313232421875,0.69573974609375
1772790500759708000,8.0247080078125,0.298126220703125,0.6956634521484375,0.648529052734375
1772790500779741000,8.044740966796875,0.3264617919921875,0.7056732177734375,0.59033203125
1772790500799774000,8.06477392578125,0.3492279052734375,0.7064056396484375,0.5448455810546875
1772790500819807000,8.084806884765625,0.3698577880859375,0.7106170654296875,0.5172271728515625
1772790500839840000,8.104840087890626,0.3718719482421875,0.7091827392578125,0.4898681640625
1772790500859874000,8.1248740234375,0.3695220947265625,0.7198028564453125,0.472564697265625
1772790500879906800,8.14490673828125,0.3586273193359375,0.72821044921875,0.4506683349609375
1772790500899940000,8.164940185546875,0.35528564453125,0.738372802734375,0.439453125
1772790500919972000,8.18497216796875,0.3568878173828125,0.756011962890625,0.441009521484375
1772790500940005000,8.205005126953125,0.357025146484375,0.770355224609375,0.4458160400390625
1772790500960038100,8.2250380859375,0.3561859130859375,0.7603302001953125,0.463104248046875
1772790500980071200,8.2450712890625,0.35406494140625,0.74365234375,0.5025482177734375
1772790501000104200,8.265104248046875,0.377471923828125,0.7486419677734375,0.552154541015625
1772790501020137000,8.285136962890626,0.4146728515625,0.84588623046875,0.63427734375
1772790501040170200,8.305170166015625,0.3638458251953125,0.9112548828125,0.6656494140625
1772790501060204000,8.3252041015625,0.2811279296875,0.920623779296875,0.6928558349609375
1772790501080237000,8.345237060546875,0.2247772216796875,0.9147491455078125,0.7165069580078125
1772790501100270000,8.36527001953125,0.2111968994140625,0.89056396484375,0.72998046875
1772790501120303000,8.38530322265625,0.21771240234375,0.8665618896484375,0.7324676513671875
1772790501140336000,8.405336181640624,0.231658935546875,0.85113525390625,0.729095458984375
1772790501160370200,8.4253701171875,0.2363128662109375,0.85333251953125,0.7459716796875
1772790501180403000,8.44540283203125,0.231842041015625,0.8529510498046875,0.76947021484375
1772790501200436200,8.465436279296876,0.230316162109375,0.8361663818359375,0.7920379638671875
1772790501220469000,8.485468994140625,0.2380218505859375,0.7939910888671875,0.79876708984375
1772790501240503000,8.5055029296875,0.243072509765625,0.7308502197265625,0.799102783203125
1772790501260536300,8.525536376953125,0.242584228515625,0.6629638671875,0.7969207763671875
1772790501280569000,8.545569091796875,0.2349395751953125,0.594268798828125,0.7915191650390625
1772790501300602000,8.56560205078125,0.2296600341796875,0.54852294921875,0.7630615234375
1772790501320635100,8.58563525390625,0.2289276123046875,0.5400848388671875,0.720703125
1772790501340668200,8.605668212890626,0.2132110595703125,0.5531005859375,0.6775360107421875
1772790501360701200,8.625701171875,0.191253662109375,0.588958740234375,0.6485748291015625
1772790501380734200,8.645734130859376,0.18572998046875,0.644866943359375,0.6470947265625
1772790501400767000,8.66576708984375,0.1887664794921875,0.6978607177734375,0.6497039794921875
1772790501420801300,8.68580126953125,0.2022552490234375,0.7199249267578125,0.6348114013671875
1772790501440834000,8.705833984375,0.226654052734375,0.727508544921875,0.6097412109375
1772790501460867000,8.7258671875,0.2424774169921875,0.72430419921875,0.58642578125
1772790501480900000,8.745900146484376,0.256622314453125,0.70452880859375,0.5623016357421875
1772790501500933000,8.76593310546875,0.2759552001953125,0.6790924072265625,0.54290771484375
1772790501520966100,8.785966064453126,0.304290771484375,0.6524505615234375,0.5370025634765625
1772790501540999200,8.805999267578125,0.3385772705078125,0.63690185546875,0.5461578369140625
1772790501561032000,8.826031982421876,0.3712615966796875,0.6298065185546875,0.5649871826171875
1772790501581065200,8.846065185546875,0.4080810546875,0.631744384765625,0.5926971435546875
1772790501601098000,8.866097900390624,0.439788818359375,0.6449737548828125,0.6211700439453125
1772790501621132000,8.886132080078125,0.4543609619140625,0.6517181396484375,0.6359710693359375
1772790501641165000,8.9061650390625,0.45526123046875,0.6524810791015625,0.647796630859375
1772790501661198000,8.926197998046876,0.4501190185546875,0.65191650390625,0.657073974609375
1772790501681231000,8.946231201171875,0.43798828125,0.6392364501953125,0.6602783203125
1772790501701264100,8.96626416015625,0.4303741455078125,0.6221466064453125,0.6566925048828125
1772790501721297200,8.986297119140625,0.4246063232421875,0.6170806884765625,0.662109375
1772790501741330200,9.006330078125,0.4099578857421875,0.606903076171875,0.6657257080078125
1772790501761363000,9.026363037109375,0.3930511474609375,0.5942535400390625,0.6689910888671875
1772790501781396200,9.046396240234374,0.388214111328125,0.608673095703125,0.6960601806640625
1772790501801429000,9.066428955078125,0.4015350341796875,0.7001495361328125,0.7672882080078125
1772790501821463000,9.086463134765625,0.369110107421875,0.7808685302734375,0.79931640625
1772790501841496300,9.106496337890626,0.315582275390625,0.7720794677734375,0.7730865478515625
1772790501861529000,9.126529052734375,0.2924957275390625,0.7399749755859375,0.7483367919921875
1772790501881562000,9.14656201171875,0.2816925048828125,0.69537353515625,0.727264404296875
1772790501901595100,9.16659521484375,0.272552490234375,0.6803436279296875,0.727386474609375
1772790501921628700,9.186628662109374,0.26165771484375,0.692718505859375,0.7336578369140625
1772790501941662000,9.206661865234375,0.2625732421875,0.7281951904296875,0.732635498046875
1772790501961694700,9.22669482421875,0.2710113525390625,0.770599365234375,0.71160888671875
1772790501981727700,9.246727783203125,0.2778472900390625,0.8079833984375,0.7021026611328125
1772790502001760800,9.2667607421875,0.277252197265625,0.8309783935546875,0.698516845703125
1772790502021794800,9.286794921875,0.2722625732421875,0.8319244384765625,0.70001220703125
1772790502041827600,9.30682763671875,0.2637939453125,0.81939697265625,0.7050933837890625
1772790502061860900,9.32686083984375,0.2501678466796875,0.79864501953125,0.691986083984375
1772790502081893600,9.3468935546875,0.2518310546875,0.764495849609375,0.66986083984375
1772790502101927000,9.366927001953124,0.2827911376953125,0.7369537353515625,0.63153076171875
1772790502121959700,9.386959716796875,0.3198089599609375,0.7104034423828125,0.5814056396484375
1772790502141992700,9.40699267578125,0.3508453369140625,0.6830596923828125,0.5299072265625
1772790502162025700,9.427025634765625,0.36083984375,0.66156005859375,0.49041748046875
1772790502182058800,9.447058837890625,0.341094970703125,0.6702880859375,0.5070343017578125
1772790502202092500,9.467092529296876,0.302520751953125,0.7099609375,0.56243896484375
1772790502222125800,9.487125732421875,0.26434326171875,0.7713165283203125,0.6366119384765625
1772790502242158600,9.50715869140625,0.23895263671875,0.830352783203125,0.69573974609375
1772790502262191900,9.52719189453125,0.20855712890625,0.8492889404296875,0.7375335693359375
1772790502282224600,9.547224609375,0.2106475830078125,0.8338165283203125,0.7800445556640625
1772790502302257700,9.567257568359375,0.2389984130859375,0.7865142822265625,0.7744293212890625
1772790502322290700,9.587290771484374,0.257965087890625,0.7349090576171875,0.7726287841796875
1772790502342323700,9.60732373046875,0.266265869140625,0.691436767578125,0.7747650146484375
1772790502362356700,9.627356689453125,0.262969970703125,0.67266845703125,0.7619171142578125
1772790502382389800,9.6473896484375,0.2546234130859375,0.66693115234375,0.740447998046875
1772790502402422800,9.6674228515625,0.243072509765625,0.6695709228515625,0.714813232421875
1772790502422456800,9.687456787109374,0.2396240234375,0.6802978515625,0.6881866455078125
1772790502442489600,9.707489501953125,0.2452850341796875,0.6887969970703125,0.6490936279296875
1772790502462522600,9.727522705078124,0.2547454833984375,0.703460693359375,0.6093292236328125
1772790502482555600,9.7475556640625,0.2556915283203125,0.72454833984375,0.5505218505859375
1772790502502588700,9.767588623046874,0.2673492431640625,0.71771240234375,0.4996490478515625
1772790502522621700,9.78762158203125,0.287200927734375,0.6901397705078125,0.485931396484375
1772790502542654700,9.80765478515625,0.310272216796875,0.67132568359375,0.4876708984375
1772790502562687700,9.827687744140626,0.3126373291015625,0.656158447265625,0.5070037841796875
1772790502582720800,9.847720703125,0.3151702880859375,0.66229248046875,0.5541534423828125
1772790502602753500,9.86775341796875,0.303436279296875,0.6761932373046875,0.60430908203125
1772790502622787800,9.887787841796875,0.2794036865234375,0.6892852783203125,0.631195068359375
1772790502642820900,9.90782080078125,0.2524566650390625,0.7012786865234375,0.6517791748046875
1772790502662853600,9.927853515625,0.2210235595703125,0.7046356201171875,0.6728363037109375
1772790502682887000,9.947886962890625,0.22772216796875,0.7396240234375,0.732940673828125
1772790502702919700,9.967919677734375,0.2523956298828125,0.8448638916015625,0.8176422119140625
1772790502722953000,9.987952880859375,0.200653076171875,0.87847900390625,0.8530120849609375
1772790502742985700,10.00798583984375,0.137115478515625,0.8785858154296875,0.8483428955078125
1772790502763018800,10.028018798828125,0.0969085693359375,0.855224609375,0.8347625732421875
1772790502783051800,10.0480517578125,0.10101318359375,0.8407440185546875,0.82464599609375
1772790502803084800,10.068084716796875,0.1134796142578125,0.8343048095703125,0.8371429443359375
1772790502823118600,10.08811865234375,0.121337890625,0.8345947265625,0.8285369873046875
1772790502843152000,10.10815185546875,0.1306304931640625,0.8304443359375,0.809478759765625
1772790502863184600,10.1281845703125,0.1372833251953125,0.81976318359375,0.795684814453125
1772790502883218000,10.148218017578126,0.1446990966796875,0.7861175537109375,0.7857666015625
1772790502903250700,10.168250732421875,0.1597900390625,0.72991943359375,0.7685546875
1772790502923283500,10.188283447265626,0.17791748046875,0.6733856201171875,0.7758636474609375
1772790502943316700,10.208316650390625,0.19482421875,0.6043243408203125,0.790771484375
1772790502963349500,10.228349609375,0.205047607421875,0.5498046875,0.8002166748046875
1772790502983382800,10.2483828125,0.1946868896484375,0.5117340087890625,0.7932281494140625
1772790503003415600,10.26841552734375,0.1876678466796875,0.5127410888671875,0.784332275390625
1772790503023449600,10.28844970703125,0.169677734375,0.54144287109375,0.765167236328125
1772790503043482600,10.308482666015625,0.163818359375,0.59088134765625,0.7580718994140625
1772790503063515600,10.328515625,0.1679840087890625,0.6584014892578125,0.7527313232421875
1772790503083548700,10.348548583984375,0.17626953125,0.6990814208984375,0.7310333251953125
1772790503103581700,10.368581787109376,0.19268798828125,0.71075439453125,0.692901611328125
1772790503123614500,10.388614501953125,0.2091064453125,0.7042236328125,0.651397705078125
1772790503143647700,10.408647705078126,0.227752685546875,0.674896240234375,0.592926025390625
1772790503163680500,10.428680419921875,0.259735107421875,0.6462860107421875,0.5278778076171875
1772790503183713800,10.4487138671875,0.29022216796875,0.62237548828125,0.4827423095703125
1772790503203746600,10.46874658203125,0.3078155517578125,0.606964111328125,0.4618377685546875
1772790503223780600,10.488780517578125,0.3213958740234375,0.599945068359375,0.45361328125
1772790503243813600,10.508813720703126,0.3377532958984375,0.6142425537109375,0.4582672119140625
1772790503263846700,10.5288466796875,0.3453369140625,0.640380859375,0.485809326171875
1772790503283879700,10.548879638671876,0.3334503173828125,0.6674652099609375,0.5170440673828125
1772790503303912700,10.56891259765625,0.303131103515625,0.68402099609375,0.5519561767578125
1772790503323945700,10.58894580078125,0.2879486083984375,0.6989288330078125,0.59649658203125
1772790503343978800,10.608978759765625,0.2900543212890625,0.702728271484375,0.6265869140625
1772790503364011800,10.62901171875,0.302154541015625,0.699676513671875,0.638458251953125
1772790503384044500,10.64904443359375,0.3277130126953125,0.6930999755859375,0.6538848876953125
1772790503404077800,10.669077880859374,0.3457489013671875,0.680908203125,0.6732177734375
1772790503424111600,10.689111572265626,0.360504150390625,0.6655426025390625,0.693603515625
1772790503444144600,10.70914453125,0.3777618408203125,0.6551055908203125,0.7296142578125
1772790503464177700,10.729177734375,0.3893890380859375,0.644989013671875,0.7623443603515625
1772790503484210700,10.749210693359375,0.3943328857421875,0.6389007568359375,0.7909393310546875
1772790503504243700,10.76924365234375,0.4300537109375,0.707183837890625,0.8616485595703125
1772790503524276700,10.78927685546875,0.4422454833984375,0.8336181640625,0.92486572265625
1772790503544309500,10.8093095703125,0.387115478515625,0.88641357421875,0.9344329833984375
1772790503564342800,10.8293427734375,0.334197998046875,0.89996337890625,0.933349609375
1772790503584375600,10.84937548828125,0.2719268798828125,0.857421875,0.9271697998046875
1772790503604408800,10.869408935546875,0.2166900634765625,0.7444610595703125,0.9080657958984375
1772790503624442600,10.889442626953125,0.18829345703125,0.642791748046875,0.9021759033203125
1772790503644475600,10.9094755859375,0.182403564453125,0.586517333984375,0.879974365234375
1772790503664508700,10.9295087890625,0.196014404296875,0.5761566162109375,0.8325347900390625
1772790503684541700,10.949541748046874,0.2022247314453125,0.5865020751953125,0.782379150390625
1772790503704574500,10.969574462890625,0.2069244384765625,0.6120452880859375,0.7568359375
1772790503724607700,10.989607666015624,0.1968841552734375,0.63885498046875,0.7562103271484375
1772790503744640500,11.009640625,0.1757354736328125,0.658233642578125,0.783416748046875
1772790503764673800,11.029673828125,0.1585540771484375,0.6685943603515625,0.822174072265625
1772790503784706600,11.04970654296875,0.1717987060546875,0.6818695068359375,0.8483123779296875
1772790503804739800,11.06973974609375,0.2023468017578125,0.6978759765625,0.8720855712890625
1772790503824773600,11.089773681640626,0.2645416259765625,0.7537689208984375,0.8730316162109375
1772790503844806700,11.109806640625,0.3440399169921875,0.8487396240234375,0.90252685546875
1772790503864839700,11.129839599609374,0.3951416015625,0.96282958984375,0.9586334228515625
1772790503884872700,11.149872802734375,0.4114532470703125,1.03448486328125,1.001708984375
1772790503904905500,11.169905517578124,0.3826904296875,1.0522308349609375,1.0081634521484375
1772790503924938500,11.1899384765625,0.3455810546875,1.03564453125,0.99151611328125
1772790503944971300,11.20997119140625,0.283233642578125,1.04010009765625,1.010162353515625
1772790503965004500,11.230004638671875,0.2116241455078125,1.0186004638671875,0.9997406005859375
1772790503985037300,11.250037353515625,0.1453399658203125,0.983001708984375,0.97662353515625
1772790504005070300,11.2700703125,0.0902252197265625,0.96026611328125,0.9505157470703125
1772790504025103400,11.290103271484375,0.05633544921875,0.9444122314453125,0.91851806640625
1772790504045137400,11.310137451171874,0.0586395263671875,0.9425201416015625,0.8450469970703125
1772790504065170200,11.330170166015625,0.08056640625,0.9383697509765625,0.7470245361328125
1772790504085203500,11.350203369140624,0.1068878173828125,0.925628662109375,0.6531524658203125
1772790504105236200,11.370236328125,0.124176025390625,0.8880462646484375,0.5416412353515625
1772790504125269500,11.39026953125,0.1399993896484375,0.8383941650390625,0.4483184814453125
1772790504145302300,11.41030224609375,0.1577606201171875,0.785125732421875,0.380828857421875
1772790504165335300,11.430335205078125,0.16766357421875,0.7445831298828125,0.3348388671875
1772790504185368300,11.450368408203126,0.1909332275390625,0.7154693603515625,0.2904815673828125
1772790504205401300,11.4704013671875,0.2212371826171875,0.70269775390625,0.2674407958984375
1772790504225434400,11.490434326171876,0.2669219970703125,0.692474365234375,0.2723846435546875
1772790504245468400,11.510468505859375,0.30364990234375,0.6749114990234375,0.2807464599609375
1772790504265501400,11.53050146484375,0.34613037109375,0.697479248046875,0.284271240234375
1772790504285534500,11.550534423828125,0.3564910888671875,0.7223052978515625,0.283203125
1772790504305567500,11.5705673828125,0.3659210205078125,0.72967529296875,0.3133087158203125
1772790504325600500,11.5906005859375,0.3878936767578125,0.7263336181640625,0.363250732421875
1772790504345633500,11.610633544921875,0.4460601806640625,0.8189544677734375,0.4804229736328125
1772790504365666300,11.630666259765626,0.4504852294921875,0.93505859375,0.542083740234375
1772790504385699600,11.650699462890625,0.39068603515625,1.0522613525390625,0.582244873046875
1772790504405732400,11.670732421875,0.2872772216796875,1.2078704833984375,0.6157379150390625
1772790504425765600,11.690765625,0.196868896484375,1.33062744140625,0.674041748046875
1772790504445799400,11.71079931640625,0.1510009765625,1.4285888671875,0.770263671875
1772790504465832400,11.73083251953125,0.113006591796875,1.512298583984375,0.8745269775390625
1772790504485865500,11.750865478515625,0.0624237060546875,1.5695648193359375,0.980316162109375
1772790504505898500,11.7708984375,0.0090179443359375,1.5677337646484375,1.0665130615234375
1772790504525931300,11.79093115234375,-0.04034423828125,1.4371490478515625,1.118499755859375
1772790504545964500,11.810964599609376,-0.0457305908203125,1.262725830078125,1.187530517578125
1772790504565997300,11.830997314453125,-0.0381622314453125,1.0561676025390625,1.2318115234375
1772790504586030600,11.851030517578126,-0.0080108642578125,0.8480072021484375,1.2853546142578125
1772790504606063400,11.8710634765625,0.0276031494140625,0.7177886962890625,1.3750152587890625
1772790504626096400,11.891096435546874,0.055023193359375,0.6144561767578125,1.3410797119140625
1772790504646130400,11.91113037109375,0.1290740966796875,0.5627288818359375,1.1903533935546875
1772790504666163500,11.93116357421875,0.1818389892578125,0.604339599609375,1.0334014892578125
1772790504686196200,11.9511962890625,0.175872802734375,0.6567230224609375,0.88946533203125
1772790504706229500,11.9712294921875,0.1387176513671875,0.678009033203125,0.7353668212890625
1772790504726262300,11.99126220703125,0.1327972412109375,0.7040557861328125,0.6380157470703125
1772790504746294500,12.01129443359375,0.116912841796875,0.7109222412109375,0.59210205078125
1772790504766327300,12.031327392578126,0.0899505615234375,0.6913909912109375,0.5601043701171875
1772790504786360600,12.051360595703125,0.070953369140625,0.6838836669921875,0.532562255859375
1772790504806393300,12.071393310546876,0.0602874755859375,0.6747894287109375,0.517913818359375
1772790504826426600,12.091426513671875,0.07061767578125,0.6673583984375,0.4944610595703125
1772790504846459400,12.11145947265625,0.097076416015625,0.6748809814453125,0.4843597412109375
1772790504866493400,12.131493408203125,0.1278076171875,0.6829833984375,0.4852142333984375
1772790504886526500,12.1515263671875,0.15704345703125,0.685638427734375,0.508697509765625
1772790504906559500,12.1715595703125,0.1757049560546875,0.696746826171875,0.5501861572265625
1772790504926592800,12.1915927734375,0.201904296875,0.7192230224609375,0.5869293212890625
1772790504946626000,12.2116259765625,0.2359771728515625,0.752166748046875,0.6205291748046875
1772790504966658800,12.231658935546875,0.302947998046875,0.7977447509765625,0.6664276123046875
1772790504986691800,12.25169189453125,0.399261474609375,0.8603973388671875,0.7298126220703125
1772790505006724900,12.271724853515625,0.5028533935546875,0.900115966796875,0.7461395263671875
1772790505026758000,12.2917578125,0.62469482421875,0.920135498046875,0.7036285400390625
1772790505046791000,12.311791015625,0.738372802734375,0.9085845947265625,0.6463623046875
1772790505066824000,12.331823974609375,0.7744903564453125,0.85552978515625,0.603546142578125
1772790505086857700,12.351857666015626,0.744049072265625,0.77191162109375,0.59600830078125
1772790505106891000,12.37189111328125,0.7176055908203125,0.7779083251953125,0.647918701171875
1772790505126923800,12.391923828125,0.6362457275390625,0.8680419921875,0.679351806640625
1772790505146956800,12.411956787109375,0.539642333984375,0.9796295166015625,0.685699462890625
1772790505166993000,12.431992919921875,0.4339752197265625,1.0827789306640625,0.7018890380859375
1772790505187025700,12.452025634765626,0.3284912109375,1.07635498046875,0.7246246337890625
1772790505207059000,12.472058837890625,0.2497711181640625,1.013916015625,0.7588348388671875
1772790505227092700,12.4920927734375,0.196685791015625,0.92681884765625,0.7852020263671875
1772790505247125800,12.512125732421875,0.172454833984375,0.8675079345703125,0.7871246337890625
1772790505267158800,12.53215869140625,0.1735382080078125,0.8470611572265625,0.7517547607421875
1772790505287191800,12.55219189453125,0.173797607421875,0.8368682861328125,0.70721435546875
1772790505307224800,12.572224853515625,0.1732635498046875,0.8262176513671875,0.674957275390625
1772790505327257900,12.5922578125,0.1676025390625,0.8087615966796875,0.653411865234375
1772790505347291000,12.612290771484375,0.1517181396484375,0.792083740234375,0.6397247314453125
1772790505367324000,12.632323974609376,0.1398162841796875,0.7970428466796875,0.65020751953125
1772790505387356700,12.652356689453125,0.1269073486328125,0.8355865478515625,0.669281005859375
1772790505407390000,12.672389892578124,0.1101837158203125,0.901458740234375,0.6776580810546875
1772790505427424000,12.692424072265625,0.07904052734375,0.9414520263671875,0.6690826416015625
1772790505447456800,12.712456787109375,0.0565032958984375,0.9533843994140625,0.657806396484375
1772790505467490000,12.732489990234376,0.0504913330078125,0.93658447265625,0.65521240234375
1772790505487522800,12.752522705078125,0.0760650634765625,0.9107513427734375,0.6650848388671875
1772790505507555800,12.772555908203126,0.0985870361328125,0.867034912109375,0.660919189453125
1772790505527588900,12.7925888671875,0.1225128173828125,0.835296630859375,0.6595001220703125
1772790505547622000,12.812621826171876,0.129302978515625,0.8066253662109375,0.6514129638671875
1772790505567655000,12.832655029296875,0.126495361328125,0.795135498046875,0.654388427734375
1772790505587688000,12.85268798828125,0.1223602294921875,0.79296875,0.6461639404296875
1772790505607721000,12.872720947265625,0.1284027099609375,0.7837371826171875,0.614349365234375
1772790505627755000,12.892755126953125,0.151824951171875,0.78509521484375,0.574920654296875
1772790505647787800,12.912787841796876,0.168792724609375,0.77099609375,0.530303955078125
1772790505667821000,12.932821044921875,0.19146728515625,0.77239990234375,0.4968414306640625
1772790505687853800,12.952853759765626,0.22119140625,0.780853271484375,0.446197509765625
1772790505707886800,12.972886962890625,0.258697509765625,0.7827911376953125,0.3791351318359375
1772790505727919900,12.992919921875,0.294158935546875,0.7841796875,0.3325347900390625
1772790505747953000,13.012952880859375,0.3026275634765625,0.7750091552734375,0.3203277587890625
1772790505767986000,13.03298583984375,0.295867919921875,0.7486419677734375,0.3261871337890625
1772790505788019000,13.05301904296875,0.2816619873046875,0.7128143310546875,0.3379669189453125
1772790505808051700,13.0730517578125,0.2833251953125,0.6996612548828125,0.378509521484375
1772790505828086000,13.0930859375,0.34735107421875,0.8146820068359375,0.45660400390625
1772790505848118800,13.113118896484375,0.3358306884765625,0.884735107421875,0.4473876953125
1772790505868151800,13.13315185546875,0.2830657958984375,0.9354248046875,0.4495086669921875
1772790505888184800,13.153184814453125,0.2494659423828125,0.9879608154296875,0.495758056640625
1772790505908217900,13.1732177734375,0.241119384765625,1.0041351318359375,0.5276641845703125
1772790505928250400,13.19325048828125,0.25823974609375,0.9979400634765625,0.5606842041015625
1772790505948283400,13.213283447265624,0.279754638671875,0.989593505859375,0.579498291015625
1772790505968316400,13.23331640625,0.282501220703125,0.9700775146484375,0.6052398681640625
1772790505988349400,13.253349365234374,0.267333984375,0.9264678955078125,0.621063232421875
1772790506008382200,13.27338232421875,0.25177001953125,0.873321533203125,0.6517486572265625
1772790506028415500,13.29341552734375,0.2513580322265625,0.8177032470703125,0.68939208984375
1772790506048449500,13.313449462890626,0.2584381103515625,0.7720947265625,0.7266845703125
1772790506068482300,13.333482421875,0.270294189453125,0.758697509765625,0.78759765625
1772790506088515600,13.353515625,0.26226806640625,0.786041259765625,0.863983154296875
1772790506108548400,13.37354833984375,0.23583984375,0.7970428466796875,0.920257568359375
1772790506128581400,13.393581298828124,0.218353271484375,0.81866455078125,0.9619293212890625
1772790506148614400,13.413614501953125,0.196868896484375,0.817657470703125,0.9561309814453125
1772790506168647200,13.433647216796874,0.1850433349609375,0.7902374267578125,0.9112091064453125
1772790506188680400,13.453680419921875,0.1864166259765625,0.7621612548828125,0.8598785400390625
1772790506208713200,13.473713134765624,0.2003326416015625,0.7436065673828125,0.8155670166015625
1772790506228746500,13.49374658203125,0.2236328125,0.7198944091796875,0.75445556640625
1772790506248780500,13.513780517578125,0.230987548828125,0.6977386474609375,0.685546875
1772790506268813300,13.533813232421876,0.2455291748046875,0.6804351806640625,0.633514404296875
1772790506288846600,13.5538466796875,0.257110595703125,0.6590118408203125,0.5773468017578125
1772790506308879400,13.57387939453125,0.2779388427734375,0.6563720703125,0.547760009765625
1772790506328912400,13.593912353515625,0.286590576171875,0.6522674560546875,0.5497283935546875
1772790506348945400,13.6139453125,0.2909698486328125,0.657958984375,0.5552520751953125
1772790506368978400,13.633978515625,0.2900238037109375,0.6676788330078125,0.5662384033203125
1772790506389011500,13.654011474609375,0.2885589599609375,0.6748046875,0.594268798828125
1772790506409044500,13.67404443359375,0.29949951171875,0.694122314453125,0.62310791015625
1772790506429077500,13.694077392578125,0.3139495849609375,0.7100830078125,0.656890869140625
1772790506449111600,13.714111572265624,0.3503570556640625,0.7408447265625,0.7066192626953125
1772790506469144300,13.734144287109375,0.3928070068359375,0.7716522216796875,0.7431488037109375
1772790506489177300,13.75417724609375,0.4344024658203125,0.7896575927734375,0.7598876953125
1772790506509210400,13.77421044921875,0.45904541015625,0.7804107666015625,0.75701904296875
1772790506529243400,13.794243408203124,0.4722747802734375,0.749053955078125,0.72760009765625
1772790506549276400,13.8142763671875,0.4659881591796875,0.715087890625,0.7085418701171875
1772790506569309400,13.834309326171875,0.4715728759765625,0.77783203125,0.7374420166015625
1772790506589342500,13.854342529296876,0.41693115234375,0.8745574951171875,0.7523956298828125
1772790506609375500,13.87437548828125,0.338226318359375,0.939544677734375,0.745880126953125
1772790506629408300,13.894408203125,0.252471923828125,0.9446563720703125,0.7094573974609375
1772790506649442600,13.914442626953125,0.200347900390625,0.9000244140625,0.6933746337890625
1772790506669475300,13.934475341796874,0.1825103759765625,0.8619384765625,0.7081146240234375
1772790506689508400,13.95450830078125,0.1727142333984375,0.838775634765625,0.72100830078125
1772790506709541400,13.974541259765624,0.16302490234375,0.8459320068359375,0.7087249755859375
1772790506729574400,13.994574462890625,0.1448516845703125,0.8667449951171875,0.66412353515625
1772790506749607400,14.014607421875,0.12115478515625,0.875152587890625,0.62506103515625
1772790506769640400,14.034640380859376,0.09918212890625,0.87261962890625,0.607940673828125
1772790506789673200,14.054673095703125,0.0816497802734375,0.862213134765625,0.5983428955078125
1772790506809706500,14.07470654296875,0.0608978271484375,0.8367462158203125,0.583160400390625
1772790506829739300,14.0947392578125,0.0394744873046875,0.79833984375,0.5646209716796875
1772790506849772500,14.1147724609375,0.0282745361328125,0.7535858154296875,0.544952392578125
1772790506869806300,14.134806396484375,0.034210205078125,0.7240447998046875,0.545166015625
1772790506889839400,14.15483935546875,0.057769775390625,0.737396240234375,0.5669708251953125
1772790506909872400,14.174872314453125,0.080230712890625,0.772125244140625,0.5905914306640625
1772790506929905200,14.1949052734375,0.1005859375,0.8341217041015625,0.61785888671875
1772790506949938200,14.214938232421876,0.1075592041015625,0.8893280029296875,0.6350250244140625
1772790506969971200,14.23497119140625,0.1160888671875,0.915008544921875,0.63507080078125
1772790506990004000,14.25500390625,0.13885498046875,0.89080810546875,0.6286163330078125
1772790507010037200,14.275037353515625,0.1633453369140625,0.83453369140625,0.6484832763671875
1772790507030070000,14.295070068359376,0.1808013916015625,0.770111083984375,0.670684814453125
1772790507050103300,14.315103271484375,0.1818695068359375,0.7210540771484375,0.679901123046875
1772790507070136000,14.335135986328124,0.171783447265625,0.701995849609375,0.6936492919921875
1772790507090170000,14.355170166015625,0.16619873046875,0.714691162109375,0.691253662109375
1772790507110203400,14.375203369140625,0.1676788330078125,0.7362060546875,0.659088134765625
1772790507130236200,14.395236083984376,0.188323974609375,0.7591400146484375,0.62261962890625
1772790507150269200,14.415269287109375,0.226776123046875,0.7798309326171875,0.5901031494140625
1772790507170302200,14.43530224609375,0.2639923095703125,0.7822265625,0.55322265625
1772790507190335000,14.4553349609375,0.2954559326171875,0.788818359375,0.517913818359375
1772790507210368300,14.4753681640625,0.3338470458984375,0.8004302978515625,0.4793853759765625
1772790507230401000,14.495401123046875,0.3688507080078125,0.8174591064453125,0.46160888671875
1772790507250434000,14.51543408203125,0.3913116455078125,0.815521240234375,0.44134521484375
1772790507270467000,14.535467041015625,0.3861541748046875,0.778900146484375,0.430084228515625
1772790507290501000,14.555501220703125,0.3694000244140625,0.72369384765625,0.427978515625
1772790507310534100,14.5755341796875,0.40985107421875,0.7125091552734375,0.4818878173828125
1772790507330567200,14.595567138671875,0.5019073486328125,0.8736724853515625,0.575469970703125
1772790507350600200,14.61560009765625,0.4593658447265625,0.9102935791015625,0.5202178955078125
1772790507370633200,14.63563330078125,0.3582763671875,0.9210662841796875,0.5028228759765625
1772790507390666200,14.655666259765624,0.3136444091796875,0.938262939453125,0.53277587890625
1772790507410699000,14.675698974609375,0.3275909423828125,0.9503631591796875,0.543426513671875
1772790507430732300,14.695732177734374,0.36181640625,0.9384613037109375,0.53497314453125
1772790507450765000,14.71576513671875,0.378082275390625,0.9004669189453125,0.5332489013671875
1772790507470798300,14.73579833984375,0.3810577392578125,0.8470001220703125,0.543304443359375
1772790507490832100,14.75583203125,0.390350341796875,0.77777099609375,0.5422821044921875
1772790507510865200,14.775865234375,0.3882904052734375,0.7145233154296875,0.5614776611328125
1772790507530898200,14.795898193359376,0.3564300537109375,0.6621246337890625,0.5947113037109375
1772790507550931200,14.81593115234375,0.308502197265625,0.639190673828125,0.6351318359375
1772790507570964200,14.835964111328124,0.2681732177734375,0.661041259765625,0.7079620361328125
1772790507590997200,14.855997314453125,0.2283935546875,0.705902099609375,0.79833984375
1772790507611030000,14.876030029296874,0.1740570068359375,0.750274658203125,0.866302490234375
1772790507631063300,14.896063232421875,0.1194915771484375,0.7881927490234375,0.8980865478515625
1772790507651096000,14.916095947265624,0.0753936767578125,0.773223876953125,0.8685302734375
1772790507671129300,14.93612939453125,0.07147216796875,0.727935791015625,0.811004638671875
1772790507691162000,14.956162109375,0.098663330078125,0.709136962890625,0.7742767333984375
1772790507711196200,14.976196044921876,0.1174468994140625,0.7034759521484375,0.726531982421875
1772790507731229200,14.996229248046875,0.132049560546875,0.708953857421875,0.6746673583984375
1772790507751262200,15.01626220703125,0.14581298828125,0.7220001220703125,0.6180419921875
1772790507771295000,15.036294921875,0.1589813232421875,0.728607177734375,0.564239501953125
1772790507791328300,15.056328369140624,0.1645660400390625,0.7106170654296875,0.5186309814453125
1772790507811361000,15.076361083984375,0.167938232421875,0.6905364990234375,0.4884796142578125
1772790507831394300,15.096394287109375,0.17022705078125,0.678253173828125,0.4790496826171875
1772790507851427000,15.116427001953125,0.176116943359375,0.662261962890625,0.4719696044921875
1772790507871460000,15.136460205078125,0.187469482421875,0.661346435546875,0.4773101806640625
1772790507891493000,15.1564931640625,0.20416259765625,0.67474365234375,0.4856109619140625
1772790507911527200,15.176527099609375,0.218719482421875,0.7118988037109375,0.5081939697265625
1772790507931560700,15.196560791015624,0.2549896240234375,0.779327392578125,0.5416717529296875
1772790507951593700,15.21659375,0.2879486083984375,0.859771728515625,0.594970703125
1772790507971626800,15.236626708984375,0.3249664306640625,0.9227142333984375,0.6623382568359375
1772790507991659500,15.256659423828125,0.362152099609375,0.944549560546875,0.7230224609375
1772790508011692800,15.27669287109375,0.4030609130859375,0.908721923828125,0.767822265625
1772790508031725600,15.2967255859375,0.4425201416015625,0.833404541015625,0.79693603515625
1772790508051758800,15.3167587890625,0.4785003662109375,0.75213623046875,0.8113861083984375
1772790508071791600,15.33679150390625,0.5394744873046875,0.7554168701171875,0.85546875
1772790508091825000,15.356824951171875,0.56939697265625,0.812652587890625,0.8886871337890625
1772790508111859000,15.37685888671875,0.5480499267578125,0.832672119140625,0.8910064697265625
1772790508131891700,15.3968916015625,0.4967041015625,0.8271026611328125,0.8983306884765625
1772790508151924700,15.4169248046875,0.43084716796875,0.78662109375,0.895477294921875
1772790508171957800,15.436957763671876,0.370025634765625,0.7228546142578125,0.8956451416015625
1772790508191990800,15.45699072265625,0.3222198486328125,0.688201904296875,0.8985595703125
1772790508212023800,15.47702392578125,0.2822418212890625,0.6881103515625,0.867828369140625
1772790508232056600,15.497056640625,0.25146484375,0.6981658935546875,0.8155364990234375
1772790508252089900,15.51708984375,0.2428741455078125,0.7149505615234375,0.772796630859375
1772790508272122600,15.53712255859375,0.2292938232421875,0.7381439208984375,0.734954833984375
1772790508292155600,15.55715576171875,0.2054290771484375,0.7545623779296875,0.70758056640625
1772790508312188700,15.577188720703125,0.1843414306640625,0.77423095703125,0.68817138671875
1772790508332222700,15.59722265625,0.1356201171875,0.79156494140625,0.6767425537109375
1772790508352255700,15.617255859375,0.0955352783203125,0.811859130859375,0.6888885498046875
1772790508372288800,15.637288818359375,0.0622100830078125,0.83050537109375,0.710205078125
1772790508392321800,15.65732177734375,0.0540771484375,0.862945556640625,0.7440643310546875
1772790508412354800,15.677354736328125,0.0796661376953125,0.9107208251953125,0.7664031982421875
1772790508432387800,15.697387939453124,0.1147613525390625,0.954742431640625,0.77581787109375
1772790508452420600,15.717420654296875,0.1524200439453125,0.9849395751953125,0.774078369140625
1772790508472454000,15.737453857421874,0.1868896484375,1.004058837890625,0.7700347900390625
1772790508492486700,15.757486572265625,0.195037841796875,0.9854888916015625,0.76763916015625
1772790508512520000,15.77752001953125,0.1770782470703125,0.9498291015625,0.7967376708984375
1772790508532552700,15.797552734375,0.1494903564453125,0.9026031494140625,0.7885894775390625
1772790508552586800,15.817586669921875,0.1276092529296875,0.868896484375,0.77203369140625
1772790508572619800,15.837619873046876,0.1075592041015625,0.856048583984375,0.7522735595703125
1772790508592652800,15.85765283203125,0.0951995849609375,0.867706298828125,0.7166900634765625
1772790508612685600,15.877685546875,0.0985107421875,0.876190185546875,0.660491943359375
1772790508632718800,15.89771875,0.1019744873046875,0.8676910400390625,0.5959014892578125
1772790508652751600,15.917751708984374,0.1258544921875,0.8438568115234375,0.5293121337890625
1772790508672785000,15.937784912109375,0.167633056640625,0.820648193359375,0.47064208984375
1772790508692817700,15.957817626953124,0.204071044921875,0.7991180419921875,0.4198150634765625
1772790508712850700,15.9778505859375,0.23211669921875,0.782196044921875,0.377960205078125
1772790508732883700,15.9978837890625,0.2662200927734375,0.76348876953125,0.3544464111328125
1772790508752913700,16.01791357421875,0.29766845703125,0.7581634521484375,0.3527069091796875
1772790508772947000,16.037947021484374,0.30560302734375,0.7473907470703125,0.35369873046875
1772790508792980700,16.057980712890625,0.3172454833984375,0.720001220703125,0.3511810302734375
1772790508813013800,16.078013671875,0.3209075927734375,0.6858062744140625,0.357177734375
1772790508833046800,16.098046875,0.363983154296875,0.7087860107421875,0.4263153076171875
1772790508853079800,16.118079833984375,0.4098358154296875,0.8415374755859375,0.493743896484375
1772790508873112600,16.138112548828126,0.352783203125,0.8639373779296875,0.4690399169921875
1772790508893145900,16.158145751953125,0.286041259765625,0.8806915283203125,0.48284912109375
1772790508913178600,16.1781787109375,0.2936248779296875,0.9293365478515625,0.5230560302734375
1772790508933211600,16.198211669921875,0.327239990234375,0.9485626220703125,0.5227203369140625
1772790508953244700,16.21824462890625,0.358184814453125,0.9413604736328125,0.5123443603515625
1772790508973277700,16.238277587890625,0.373382568359375,0.9139556884765625,0.5128326416015625
1772790508993310700,16.258310791015624,0.376953125,0.882354736328125,0.5293426513671875
1772790509013344500,16.278344482421875,0.3927764892578125,0.85504150390625,0.5530853271484375
1772790509033377500,16.29837744140625,0.4098052978515625,0.834991455078125,0.5945281982421875
1772790509053410600,16.31841064453125,0.4051513671875,0.8197479248046875,0.64166259765625
1772790509073443600,16.338443603515625,0.381591796875,0.819122314453125,0.7193756103515625
1772790509093476600,16.3584765625,0.3448028564453125,0.8212432861328125,0.820068359375
1772790509113509600,16.378509521484375,0.2943267822265625,0.794586181640625,0.91973876953125
1772790509133542700,16.398542724609374,0.2481536865234375,0.7774810791015625,1.0024871826171875
1772790509153578500,16.41857861328125,0.2245330810546875,0.77764892578125,1.0516510009765625
1772790509173612500,16.438612548828125,0.2004852294921875,0.75567626953125,1.0379791259765625
1772790509193645800,16.458645751953124,0.1977081298828125,0.7303314208984375,0.9805145263671875
1772790509213678600,16.4786787109375,0.2201080322265625,0.7171630859375,0.91192626953125
1772790509233711600,16.498711669921875,0.238189697265625,0.7075347900390625,0.851837158203125
1772790509253744600,16.51874462890625,0.2413330078125,0.6973876953125,0.7773895263671875
1772790509273777700,16.538777587890625,0.2546844482421875,0.7011260986328125,0.696441650390625
1772790509293810700,16.558810791015624,0.2554168701171875,0.697509765625,0.620941162109375
1772790509313843700,16.57884375,0.248779296875,0.68402099609375,0.54913330078125
1772790509333876700,16.598876708984374,0.241424560546875,0.6550750732421875,0.5135345458984375
1772790509353909500,16.618909423828125,0.2317657470703125,0.6404876708984375,0.5052490234375
1772790509373942500,16.638942626953124,0.217071533203125,0.64593505859375,0.50726318359375
1772790509393976600,16.6589765625,0.1962127685546875,0.6546630859375,0.521026611328125
1772790509414009600,16.679009521484375,0.184722900390625,0.6600341796875,0.5467529296875
1772790509434042600,16.699042724609374,0.2019805908203125,0.67926025390625,0.59930419921875
1772790509454075600,16.71907568359375,0.2379608154296875,0.70166015625,0.66217041015625
1772790509474108700,16.739108642578124,0.285369873046875,0.7368316650390625,0.7355194091796875
1772790509494141700,16.7591416015625,0.3341522216796875,0.762969970703125,0.8009185791015625
1772790509514174700,16.7791748046875,0.368255615234375,0.75250244140625,0.8379669189453125
1772790509534207500,16.79920751953125,0.4235382080078125,0.7118377685546875,0.8339080810546875
1772790509554240800,16.81924072265625,0.4587860107421875,0.6613616943359375,0.807891845703125
1772790509574273500,16.8392734375,0.4826507568359375,0.6168975830078125,0.7769927978515625
1772790509594307600,16.8593076171875,0.5248565673828125,0.6906280517578125,0.7971038818359375
1772790509614340600,16.879340576171874,0.5086517333984375,0.81719970703125,0.812255859375
1772790509634373600,16.89937353515625,0.447509765625,0.9111480712890625,0.8120880126953125
1772790509654406700,16.91940673828125,0.3668365478515625,0.9561004638671875,0.7917327880859375
1772790509674439700,16.939439697265627,0.285888671875,0.9321746826171875,0.78070068359375
1772790509694472400,16.959472412109374,0.2249755859375,0.8896484375,0.7953948974609375
1772790509714505700,16.979505615234373,0.1805572509765625,0.83465576171875,0.8059539794921875
1772790509734538500,16.99953857421875,0.158355712890625,0.80792236328125,0.79473876953125
1772790509754571800,17.01957177734375,0.15521240234375,0.78973388671875,0.742462158203125
1772790509774604500,17.0396044921875,0.16748046875,0.774810791015625,0.6855010986328125
1772790509794637600,17.059637451171874,0.1683349609375,0.756988525390625,0.6376495361328125
1772790509814671600,17.079671630859377,0.1639251708984375,0.7313995361328125,0.6055908203125
1772790509834704600,17.09970458984375,0.1507110595703125,0.717864990234375,0.598114013671875
1772790509854737400,17.1197373046875,0.129150390625,0.73480224609375,0.6143341064453125
1772790509874770700,17.139770751953126,0.11358642578125,0.782501220703125,0.638641357421875
1772790509894803500,17.159803466796873,0.09906005859375,0.845489501953125,0.672393798828125
1772790509914836700,17.179836669921876,0.1109619140625,0.906829833984375,0.7028350830078125
1772790509934870000,17.1998701171875,0.136138916015625,0.942779541015625,0.7222442626953125
1772790509954903000,17.219903076171875,0.175567626953125,0.943511962890625,0.7239227294921875
1772790509974936000,17.23993603515625,0.2001953125,0.918121337890625,0.725616455078125
1772790509994969000,17.259968994140625,0.2005157470703125,0.8748779296875,0.7428131103515625
1772790510015002000,17.280002197265624,0.188232421875,0.8284759521484375,0.7639007568359375
1772790510035036200,17.3000361328125,0.1845245361328125,0.7987518310546875,0.7718353271484375
1772790510055069200,17.320069091796874,0.186676025390625,0.7951202392578125,0.75897216796875
1772790510075102200,17.340102294921873,0.191192626953125,0.8119049072265625,0.7392578125
1772790510095135200,17.36013525390625,0.19970703125,0.830322265625,0.7083892822265625
1772790510115168000,17.38016796875,0.19757080078125,0.8318939208984375,0.659698486328125
1772790510135201300,17.400201171875,0.2098541259765625,0.82611083984375,0.6023101806640625
1772790510155234000,17.420234130859374,0.2264556884765625,0.802734375,0.53863525390625
1772790510175267300,17.440267333984377,0.234466552734375,0.77618408203125,0.4855804443359375
1772790510195300000,17.460300048828124,0.242279052734375,0.764495849609375,0.453125
1772790510215333000,17.4803330078125,0.2490997314453125,0.7505645751953125,0.414886474609375
1772790510235366100,17.5003662109375,0.2648468017578125,0.7402801513671875,0.372894287109375
1772790510255400200,17.520400146484373,0.27880859375,0.7374114990234375,0.347747802734375
1772790510275433000,17.540432861328124,0.2797088623046875,0.7419281005859375,0.3382568359375
1772790510295466200,17.56046630859375,0.273193359375,0.7418670654296875,0.337127685546875
1772790510315499000,17.5804990234375,0.2676849365234375,0.738189697265625,0.340606689453125
1772790510335532300,17.6005322265625,0.2564239501953125,0.723907470703125,0.3456268310546875
1772790510355565000,17.62056494140625,0.2587432861328125,0.7212066650390625,0.3553314208984375
1772790510375598000,17.64059814453125,0.3027496337890625,0.77349853515625,0.4170989990234375
1772790510395631000,17.660631103515627,0.3166961669921875,0.896728515625,0.480316162109375
1772790510415664000,17.6806640625,0.2375335693359375,0.94927978515625,0.5087890625
1772790510435697200,17.700697265625,0.1528778076171875,1.0056915283203125,0.5343780517578125
1772790510455731200,17.720731201171876,0.0953369140625,1.0700836181640625,0.5948028564453125
1772790510475764000,17.740763916015624,0.07568359375,1.121612548828125,0.672515869140625
1772790510495797200,17.76079736328125,0.105255126953125,1.13189697265625,0.7142333984375
1772790510515830000,17.780830078125,0.1654510498046875,1.1198577880859375,0.74139404296875
1772790510535863000,17.800863037109377,0.1981353759765625,1.09564208984375,0.77655029296875
1772790510555896000,17.82089599609375,0.2021942138671875,1.0528717041015625,0.8095855712890625
1772790510575929000,17.84092919921875,0.19720458984375,0.988128662109375,0.8382415771484375
1772790510595962000,17.860962158203126,0.189300537109375,0.902252197265625,0.8601531982421875
1772790510615995100,17.8809951171875,0.192047119140625,0.818023681640625,0.8820648193359375
1772790510636028200,17.901028076171876,0.213531494140625,0.7562408447265625,0.9193267822265625
1772790510656061200,17.921061279296875,0.2426605224609375,0.7281951904296875,0.9739837646484375
1772790510676095000,17.941094970703126,0.2667236328125,0.704864501953125,1.0148468017578125
1772790510696128300,17.961128173828126,0.2888031005859375,0.69287109375,1.0335235595703125
1772790510716161000,17.9811611328125,0.30645751953125,0.6814117431640625,1.0042572021484375
1772790510736194000,18.001194091796876,0.300689697265625,0.6717376708984375,0.9456787109375
1772790510756227000,18.02122705078125,0.27801513671875,0.6813201904296875,0.89068603515625
1772790510776260000,18.041260009765626,0.2531890869140625,0.68707275390625,0.819793701171875
1772790510796293000,18.061293212890625,0.2337646484375,0.709075927734375,0.7232513427734375
1772790510816326100,18.081326171875,0.2337799072265625,0.7300262451171875,0.651397705078125
1772790510836359000,18.10135888671875,0.243682861328125,0.7364501953125,0.62164306640625
1772790510856392200,18.12139208984375,0.267730712890625,0.7324371337890625,0.55615234375
1772790510876425000,18.141425048828125,0.286163330078125,0.7146759033203125,0.501922607421875
1772790510896458200,18.161458251953125,0.301849365234375,0.6940155029296875,0.448516845703125
1772790510916492300,18.1814921875,0.3349609375,0.6897735595703125,0.39947509765625
1772790510936525000,18.201525146484375,0.3383636474609375,0.7089996337890625,0.402191162109375
1772790510956558300,18.221558349609374,0.3073577880859375,0.72955322265625,0.4257354736328125
1772790510976591000,18.241591064453125,0.260772705078125,0.7444610595703125,0.490447998046875
1772790510996624000,18.261623779296876,0.257720947265625,0.7714385986328125,0.5710296630859375
1772790511016657200,18.2816572265625,0.3214569091796875,0.8380889892578125,0.6205291748046875
1772790511036690000,18.30168994140625,0.4326171875,0.850372314453125,0.6009521484375
1772790511056723200,18.32172314453125,0.506744384765625,0.829498291015625,0.5843048095703125
1772790511076756000,18.341755859375,0.5130767822265625,0.7744293212890625,0.5644073486328125
1772790511096789200,18.361789306640624,0.48529052734375,0.7151641845703125,0.5766448974609375
1772790511116822000,18.381822021484375,0.4784393310546875,0.7523651123046875,0.6696319580078125
1772790511136856000,18.40185595703125,0.42059326171875,0.8586578369140625,0.7489471435546875
1772790511156889000,18.42188916015625,0.3432769775390625,0.9356231689453125,0.8058929443359375
1772790511176922000,18.441922119140624,0.2572174072265625,0.9707794189453125,0.8473358154296875
1772790511196955100,18.461955078125,0.1916656494140625,0.94171142578125,0.8672332763671875
1772790511216988200,18.48198828125,0.1591796875,0.882415771484375,0.8823699951171875
1772790511237021200,18.502021240234374,0.138458251953125,0.8241729736328125,0.9009857177734375
1772790511257054200,18.52205419921875,0.1181182861328125,0.7901153564453125,0.89111328125
1772790511277087200,18.542087158203124,0.1030426025390625,0.7842559814453125,0.84173583984375
1772790511297120000,18.5621201171875,0.109619140625,0.7918701171875,0.7849884033203125
1772790511317153300,18.5821533203125,0.1143798828125,0.792144775390625,0.7423095703125
1772790511337187000,18.60218701171875,0.1242523193359375,0.791107177734375,0.6993560791015625
1772790511357220000,18.62222021484375,0.13153076171875,0.78900146484375,0.6617279052734375
1772790511377253000,18.642253173828124,0.1157684326171875,0.7729949951171875,0.634765625
1772790511397286100,18.6622861328125,0.09027099609375,0.7663421630859375,0.6077423095703125
1772790511417319200,18.682319091796874,0.0595550537109375,0.7589569091796875,0.5755157470703125
1772790511437352200,18.702352294921877,0.063690185546875,0.7707977294921875,0.5757293701171875
1772790511457385000,18.722385009765624,0.0905914306640625,0.8055419921875,0.5880279541015625
1772790511477418200,18.742418212890627,0.1238861083984375,0.8526458740234375,0.603515625
1772790511497451000,18.762450927734374,0.1376953125,0.8921356201171875,0.6092987060546875
1772790511517484300,18.782484375,0.149444580078125,0.8898468017578125,0.6243438720703125
1772790511537517000,18.80251708984375,0.165435791015625,0.8447265625,0.6319580078125
1772790511557550000,18.822550048828123,0.1820831298828125,0.7915496826171875,0.6456756591796875
1772790511577584000,18.842584228515626,0.1811676025390625,0.7375030517578125,0.64312744140625
1772790511597617200,18.8626171875,0.1750335693359375,0.7077789306640625,0.6555633544921875
1772790511617650000,18.88264990234375,0.157470703125,0.70343017578125,0.6681365966796875
1772790511637683200,18.90268310546875,0.1385040283203125,0.7067108154296875,0.659912109375
1772790511657716000,18.922716064453127,0.147705078125,0.7238922119140625,0.6314239501953125
1772790511677749200,18.942749267578126,0.16973876953125,0.7467803955078125,0.5973052978515625
1772790511697782000,18.962781982421873,0.1853179931640625,0.778564453125,0.5633392333984375
1772790511717815000,18.98281494140625,0.2005767822265625,0.8042449951171875,0.5261993408203125
1772790511737848000,19.00284814453125,0.2234954833984375,0.8421478271484375,0.505615234375
1772790511757881000,19.022881103515626,0.237884521484375,0.86114501953125,0.4731903076171875
1772790511777914000,19.0429140625,0.2525177001953125,0.865570068359375,0.4707489013671875
1772790511797948200,19.0629482421875,0.253448486328125,0.8390655517578125,0.478546142578125
1772790511817981000,19.08298095703125,0.2737884521484375,0.817718505859375,0.51025390625
1772790511838014200,19.10301416015625,0.3103790283203125,0.827850341796875,0.553436279296875
1772790511858047000,19.123046875,0.3103790283203125,0.8229217529296875,0.5689239501953125
1772790511878080300,19.143080322265625,0.2721405029296875,0.77947998046875,0.5709228515625
1772790511898113000,19.163113037109376,0.26959228515625,0.7895965576171875,0.59210205078125
1772790511918146000,19.18314599609375,0.29901123046875,0.8146820068359375,0.594635009765625
1772790511938178800,19.2031787109375,0.3350677490234375,0.8442535400390625,0.5972442626953125
1772790511958211600,19.223211669921874,0.3525390625,0.8553009033203125,0.58709716796875
1772790511978244900,19.243244873046876,0.3435821533203125,0.842315673828125,0.5742950439453125
1772790511998278700,19.263278564453124,0.321380615234375,0.8079681396484375,0.5568389892578125
1772790512018311700,19.283311767578127,0.298431396484375,0.756256103515625,0.54620361328125
1772790512038344700,19.3033447265625,0.2799530029296875,0.704132080078125,0.5440521240234375
1772790512058377700,19.323377685546873,0.2604217529296875,0.660369873046875,0.54937744140625
1772790512078410800,19.34341064453125,0.241546630859375,0.6317291259765625,0.562591552734375
1772790512098443800,19.36344384765625,0.2328033447265625,0.6339569091796875,0.593414306640625
1772790512118476500,19.3834765625,0.22705078125,0.667816162109375,0.63262939453125
1772790512138509800,19.403509765625,0.2004241943359375,0.7015228271484375,0.6587677001953125
1772790512158542600,19.42354248046875,0.15460205078125,0.73590087890625,0.689697265625
1772790512178576000,19.443575927734376,0.118316650390625,0.7553863525390625,0.7063446044921875
1772790512198608600,19.463608642578127,0.10736083984375,0.7492523193359375,0.702880859375
1772790512218642700,19.483642578125,0.098052978515625,0.7405242919921875,0.70391845703125
1772790512238675700,19.50367578125,0.097320556640625,0.736328125,0.7145843505859375
1772790512258708700,19.523708740234376,0.0923309326171875,0.7307891845703125,0.7350921630859375
1772790512278741800,19.54374169921875,0.08624267578125,0.726409912109375,0.7434234619140625
1772790512298774800,19.56377490234375,0.0755767822265625,0.7154083251953125,0.7255401611328125
1772790512318807800,19.583807861328125,0.0895538330078125,0.6947021484375,0.707794189453125
1772790512338840800,19.6038408203125,0.1223602294921875,0.6758880615234375,0.6849822998046875
1772790512358873900,19.623873779296876,0.158294677734375,0.675140380859375,0.680999755859375
1772790512378906600,19.64390673828125,0.1871490478515625,0.684295654296875,0.6752471923828125
1772790512398940000,19.66393994140625,0.222869873046875,0.6964874267578125,0.66552734375
1772790512418972700,19.68397265625,0.2611541748046875,0.7188262939453125,0.6564178466796875
1772790512439006700,19.7040068359375,0.2921905517578125,0.7315521240234375,0.672760009765625
1772790512459039700,19.724039794921875,0.320404052734375,0.748565673828125,0.709625244140625
1772790512479072800,19.74407275390625,0.34136962890625,0.745391845703125,0.705963134765625
1772790512499105800,19.764105712890625,0.367462158203125,0.73406982421875,0.7129058837890625
1772790512519138800,19.784138916015625,0.3927764892578125,0.7563323974609375,0.72796630859375
1772790512539171600,19.804171630859376,0.399627685546875,0.7649993896484375,0.728118896484375
1772790512559204900,19.824204833984375,0.3881072998046875,0.75384521484375,0.7198944091796875
1772790512579237600,19.844237548828126,0.367431640625,0.7146759033203125,0.70269775390625
1772790512599271000,19.86427099609375,0.3498077392578125,0.6803131103515625,0.692108154296875
1772790512619303700,19.8843037109375,0.3509979248046875,0.7281036376953125,0.7247467041015625
1772790512639336700,19.904336669921875,0.3245391845703125,0.8220367431640625,0.752593994140625
1772790512659370800,19.924370849609375,0.289764404296875,0.8921356201171875,0.765411376953125
1772790512679403800,19.94440380859375,0.2333221435546875,0.92791748046875,0.7430877685546875
1772790512699436500,19.9644365234375,0.1806793212890625,0.90924072265625,0.7193603515625
1772790512719469800,19.9844697265625,0.1396484375,0.8661956787109375,0.715423583984375
1772790512739499800,20.004499755859374,0.1027374267578125,0.81011962890625,0.7283477783203125
1772790512759532800,20.02453271484375,0.087799072265625,0.7688751220703125,0.7453765869140625
1772790512779565800,20.04456591796875,0.08575439453125,0.74359130859375,0.7470855712890625
1772790512799598600,20.0645986328125,0.091705322265625,0.7368927001953125,0.7276153564453125
1772790512819631900,20.0846318359375,0.10870361328125,0.741546630859375,0.7137603759765625
1772790512839664600,20.10466455078125,0.105560302734375,0.7594146728515625,0.6822052001953125
1772790512859698000,20.124697998046877,0.083770751953125,0.7630157470703125,0.66357421875
1772790512879730700,20.144730712890624,0.0526580810546875,0.7586517333984375,0.6536102294921875
1772790512899763700,20.164763671875,0.01971435546875,0.75439453125,0.645263671875
1772790512919797800,20.1847978515625,-0.0091094970703125,0.753326416015625,0.6460418701171875
1772790512939830500,20.20483056640625,-0.035858154296875,0.74383544921875,0.6451416015625
1772790512959863600,20.224863525390624,-0.048553466796875,0.73724365234375,0.6470947265625
1772790512979896600,20.244896484375,-0.037506103515625,0.7458953857421875,0.6609039306640625
1772790512999929600,20.2649296875,0.006561279296875,0.797943115234375,0.687103271484375
1772790513019962600,20.284962646484374,0.058868408203125,0.8525543212890625,0.712677001953125
1772790513039995600,20.30499560546875,0.092132568359375,0.9000396728515625,0.7294158935546875
1772790513060028700,20.325028564453124,0.1184234619140625,0.91131591796875,0.7300567626953125
1772790513080061700,20.345061767578127,0.1418914794921875,0.87939453125,0.71807861328125
1772790513100094500,20.365094482421874,0.1472320556640625,0.816925048828125,0.705322265625
1772790513120127700,20.385127685546873,0.1302032470703125,0.75482177734375,0.7037811279296875
1772790513140160500,20.405160400390624,0.1119842529296875,0.7143707275390625,0.7071990966796875
1772790513160195600,20.425195556640624,0.1030120849609375,0.69671630859375,0.7058868408203125
1772790513180228600,20.445228515625,0.099456787109375,0.6921234130859375,0.695343017578125
1772790513200261600,20.46526171875,0.112274169921875,0.7039031982421875,0.6703033447265625
1772790513220294700,20.485294677734377,0.145599365234375,0.7243804931640625,0.6359710693359375
1772790513240327700,20.50532763671875,0.1891326904296875,0.758575439453125,0.5911712646484375
1772790513260360700,20.525360595703123,0.206573486328125,0.777618408203125,0.5301666259765625
1772790513280393700,20.545393798828126,0.2193450927734375,0.7853240966796875,0.474578857421875
1772790513300426800,20.5654267578125,0.2407989501953125,0.793701171875,0.44097900390625
1772790513320459500,20.58545947265625,0.27532958984375,0.7847747802734375,0.419189453125
1772790513340493600,20.60549365234375,0.3152008056640625,0.76043701171875,0.41497802734375
1772790513360526600,20.625526611328127,0.34185791015625,0.7472686767578125,0.428924560546875
1772790513380559600,20.6455595703125,0.3497314453125,0.74566650390625,0.4688873291015625
1772790513400592600,20.665592529296877,0.348052978515625,0.7530975341796875,0.502197265625
1772790513420625700,20.685625732421876,0.3366241455078125,0.7697601318359375,0.5176544189453125
1772790513440658700,20.70565869140625,0.3484039306640625,0.785125732421875,0.5230560302734375
1772790513460691700,20.725691650390626,0.388916015625,0.804840087890625,0.5377044677734375
1772790513480724500,20.745724365234373,0.4670257568359375,0.83990478515625,0.591552734375
1772790513500757800,20.7657578125,0.5235137939453125,0.91705322265625,0.6562957763671875
1772790513520790500,20.78579052734375,0.487152099609375,0.9592132568359375,0.707183837890625
1772790513540823800,20.80582373046875,0.38897705078125,0.9892730712890625,0.725341796875
1772790513560856600,20.825856689453126,0.2792816162109375,1.0239105224609375,0.7376251220703125
1772790513580890600,20.845890625,0.1796417236328125,1.0707244873046875,0.772491455078125
1772790513600923600,20.865923583984376,0.0814208984375,1.0926055908203125,0.79888916015625
1772790513620956700,20.885956787109375,-0.0048370361328125,1.0722503662109375,0.811614990234375
1772790513640989400,20.905989501953126,-0.0822906494140625,0.9956512451171875,0.804931640625
1772790513661022700,20.926022705078125,-0.1218414306640625,0.91552734375,0.7897796630859375
1772790513681055500,20.946055419921876,-0.1425018310546875,0.817840576171875,0.7768096923828125
1772790513701088800,20.9660888671875,-0.1244354248046875,0.71844482421875,0.768890380859375
1772790513721121500,20.98612158203125,-0.07672119140625,0.635498046875,0.7709503173828125
1772790513741154600,21.006154541015626,-0.0123748779296875,0.5969696044921875,0.77911376953125
1772790513761187600,21.0261875,0.06317138671875,0.618011474609375,0.8065948486328125
1772790513781221600,21.0462216796875,0.1118621826171875,0.641265869140625,0.8226318359375
1772790513801254400,21.06625439453125,0.14569091796875,0.66326904296875,0.8202667236328125
1772790513821287700,21.08628759765625,0.1622772216796875,0.6755218505859375,0.796539306640625
1772790513841320400,21.106320556640625,0.1610565185546875,0.6830902099609375,0.771728515625
1772790513861353700,21.126353759765625,0.1444091796875,0.6833038330078125,0.758026123046875
1772790513881386500,21.146386474609375,0.1149444580078125,0.676239013671875,0.72320556640625
1772790513901419500,21.16641943359375,0.0916748046875,0.670501708984375,0.69073486328125
1772790513921452500,21.18645263671875,0.0949249267578125,0.6601409912109375,0.6548919677734375
1772790513941485600,21.206485595703125,0.14276123046875,0.6499176025390625,0.603851318359375
1772790513961518600,21.2265185546875,0.2059326171875,0.643280029296875,0.5265655517578125
1772790513981551400,21.24655126953125,0.2138214111328125,0.6574859619140625,0.4772796630859375
1772790514001585400,21.26658544921875,0.218475341796875,0.6762237548828125,0.4715118408203125
1772790514021618700,21.28661865234375,0.234649658203125,0.6961212158203125,0.5045166015625
1772790514041651500,21.3066513671875,0.2683868408203125,0.7370452880859375,0.5535125732421875
1772790514061684700,21.326684814453124,0.3232574462890625,0.795257568359375,0.6052703857421875
1772790514081717500,21.346717529296875,0.3802947998046875,0.847198486328125,0.6415252685546875
1772790514101750500,21.36675048828125,0.4755706787109375,0.90374755859375,0.663909912109375
1772790514121783600,21.386783447265625,0.629058837890625,0.8914642333984375,0.65081787109375
1772790514141816600,21.406816650390624,0.7863006591796875,0.8400726318359375,0.6402587890625
1772790514161849600,21.426849609375,0.8660125732421875,0.753814697265625,0.6027374267578125
1772790514181882600,21.446882568359374,0.8284454345703125,0.6837005615234375,0.5534515380859375
1772790514201915400,21.466915283203125,0.7252960205078125,0.6341094970703125,0.556732177734375
1772790514221948700,21.48694873046875,0.570281982421875,0.6105194091796875,0.6082916259765625
1772790514241982500,21.506982421875,0.414886474609375,0.61138916015625,0.6794891357421875
1772790514262015500,21.527015380859375,0.2811737060546875,0.6284637451171875,0.729034423828125
1772790514282048500,21.547048583984374,0.1737060546875,0.6571197509765625,0.7518157958984375
1772790514302081500,21.56708154296875,0.07452392578125,0.682647705078125,0.7412872314453125
1772790514322114600,21.587114501953124,0.0547637939453125,0.776031494140625,0.7751312255859375
1772790514342147600,21.607147705078123,0.0855865478515625,0.9687652587890625,0.8645172119140625
1772790514362180400,21.627180419921874,0.0760498046875,1.0622711181640625,0.8876495361328125
1772790514382213600,21.647213623046873,0.0556488037109375,1.080841064453125,0.8612060546875
1772790514402246400,21.667246337890624,0.0467681884765625,1.0278167724609375,0.8223114013671875
1772790514422279700,21.68727978515625,0.037078857421875,0.909332275390625,0.77117919921875
1772790514442312400,21.7073125,0.03546142578125,0.786407470703125,0.73638916015625
1772790514462346500,21.727346435546874,0.04119873046875,0.7151641845703125,0.7189483642578125
1772790514482379500,21.747379638671877,0.0519256591796875,0.69451904296875,0.6850128173828125
1772790514502412500,21.76741259765625,0.06488037109375,0.7049713134765625,0.6471099853515625
1772790514522445600,21.787445556640623,0.0768585205078125,0.7218475341796875,0.603240966796875
1772790514542478600,21.807478515625,0.083984375,0.729766845703125,0.559417724609375
1772790514562511400,21.827511474609373,0.0888671875,0.7337493896484375,0.54681396484375
1772790514582544600,21.847544677734376,0.089019775390625,0.7474517822265625,0.5727996826171875
1772790514602577400,21.867577392578124,0.080535888671875,0.7835693359375,0.610870361328125
1772790514622610700,21.887610595703126,0.05731201171875,0.813507080078125,0.6276702880859375
1772790514642643500,21.9076435546875,0.0596923828125,0.8519134521484375,0.649169921875
1772790514662676500,21.927676513671877,0.0827484130859375,0.87811279296875,0.6779632568359375
1772790514682710500,21.94771044921875,0.1403045654296875,0.88616943359375,0.69769287109375
1772790514702743600,21.96774365234375,0.1970367431640625,0.875152587890625,0.6949005126953125
1772790514722776300,21.9877763671875,0.253173828125,0.8488006591796875,0.6826629638671875
1772790514742809600,22.0078095703125,0.29364013671875,0.8232574462890625,0.6732177734375
1772790514762842400,22.02784228515625,0.3264312744140625,0.7912750244140625,0.6497039794921875
1772790514782875600,22.047875732421875,0.3474578857421875,0.7676544189453125,0.634307861328125
1772790514802908400,22.067908447265626,0.3516998291015625,0.75830078125,0.647308349609375
1772790514822941400,22.08794140625,0.325927734375,0.7536468505859375,0.6676788330078125
1772790514842974500,22.107974365234377,0.28326416015625,0.7519683837890625,0.6588592529296875
1772790514863007500,22.128007568359376,0.2498779296875,0.7629547119140625,0.631072998046875
1772790514883040500,22.14804052734375,0.22564697265625,0.7684173583984375,0.5913238525390625
1772790514903073500,22.168073486328126,0.22943115234375,0.786346435546875,0.55322265625
1772790514923107600,22.188107666015625,0.2489776611328125,0.806976318359375,0.5097808837890625
1772790514943140900,22.208140869140625,0.2634429931640625,0.81353759765625,0.4737548828125
1772790514963173600,22.228173583984375,0.27667236328125,0.7970428466796875,0.4488677978515625
1772790514983206700,22.24820654296875,0.286712646484375,0.771820068359375,0.46746826171875
1772790515003239700,22.26823974609375,0.32330322265625,0.820526123046875,0.5511322021484375
1772790515023272700,22.288272705078125,0.3103179931640625,0.89862060546875,0.5833282470703125
1772790515043305700,22.3083056640625,0.2227630615234375,0.88287353515625,0.5603485107421875
1772790515063338800,22.3283388671875,0.187347412109375,0.913421630859375,0.5679931640625
1772790515083371500,22.34837158203125,0.1942138671875,0.9269866943359375,0.5560455322265625
1772790515103404800,22.36840478515625,0.2655792236328125,0.9152069091796875,0.548553466796875
1772790515123437600,22.3884375,0.336395263671875,0.895965576171875,0.5585174560546875
1772790515143470800,22.408470947265624,0.3769073486328125,0.8626861572265625,0.5653228759765625
1772790515163505000,22.4285048828125,0.3934326171875,0.835845947265625,0.5626983642578125
1772790515183537700,22.44853759765625,0.394378662109375,0.7856292724609375,0.5482635498046875
1772790515203571000,22.468571044921877,0.366485595703125,0.7134552001953125,0.550140380859375
1772790515223603700,22.488603759765624,0.3289794921875,0.64447021484375,0.565338134765625
1772790515243636700,22.50863671875,0.2935028076171875,0.5911712646484375,0.580108642578125
1772790515263669800,22.528669677734374,0.2600250244140625,0.57708740234375,0.60699462890625
1772790515283702800,22.548702880859373,0.2423553466796875,0.6104888916015625,0.6668701171875
1772790515303735800,22.56873583984375,0.2115631103515625,0.680633544921875,0.721343994140625
1772790515323768800,22.588768798828124,0.181549072265625,0.7542266845703125,0.7510833740234375
1772790515343801900,22.6088017578125,0.1464385986328125,0.8211517333984375,0.7633819580078125
1772790515363834600,22.628834716796874,0.101318359375,0.826263427734375,0.7512664794921875
1772790515383867600,22.64886767578125,0.0883941650390625,0.8068389892578125,0.7480621337890625
1772790515403901700,22.668901611328124,0.087921142578125,0.778961181640625,0.727386474609375
1772790515423934700,22.688934814453123,0.0891265869140625,0.745697021484375,0.703216552734375
1772790515443967700,22.7089677734375,0.1080780029296875,0.7235107421875,0.6698150634765625
1772790515464000800,22.729000732421873,0.1302642822265625,0.7079620361328125,0.626007080078125
1772790515484033800,22.74903369140625,0.1540374755859375,0.68829345703125,0.5840301513671875
1772790515504066800,22.76906689453125,0.1777801513671875,0.6697998046875,0.5481109619140625
1772790515524099800,22.789099853515626,0.1961822509765625,0.6618804931640625,0.531463623046875
1772790515544132600,22.809132568359374,0.20831298828125,0.6632232666015625,0.5292205810546875
1772790515564166000,22.829165771484377,0.2081146240234375,0.68292236328125,0.54180908203125
1772790515584198700,22.84919873046875,0.2011260986328125,0.707366943359375,0.5686798095703125
1772790515604232000,22.86923193359375,0.1899871826171875,0.72918701171875,0.61279296875
1772790515624264700,22.8892646484375,0.19873046875,0.75213623046875,0.639404296875
1772790515644298800,22.909298828125,0.217926025390625,0.7542266845703125,0.6604766845703125
1772790515664331800,22.929331787109376,0.2672882080078125,0.757354736328125,0.69464111328125
1772790515684364800,22.94936474609375,0.3305206298828125,0.733428955078125,0.7124786376953125
1772790515704397600,22.9693974609375,0.3933563232421875,0.7166595458984375,0.73077392578125
1772790515724430800,22.989430908203126,0.4299468994140625,0.697296142578125,0.7252044677734375
1772790515744463600,23.009463623046877,0.441925048828125,0.6821441650390625,0.6929473876953125
1772790515764497000,23.029496826171876,0.4553375244140625,0.6671905517578125,0.6876220703125
1772790515784529700,23.04952978515625,0.4664459228515625,0.6581878662109375,0.729583740234375
1772790515804562700,23.069562744140626,0.4827880859375,0.725982666015625,0.79486083984375
1772790515824595700,23.089595703125,0.454925537109375,0.816925048828125,0.811553955078125
1772790515844628700,23.109628662109376,0.3941802978515625,0.861053466796875,0.772491455078125
1772790515864661800,23.129661865234375,0.32586669921875,0.8592071533203125,0.72515869140625
1772790515884695800,23.14969580078125,0.2821807861328125,0.8330230712890625,0.7150726318359375
1772790515904728600,23.169728515625,0.25079345703125,0.7980194091796875,0.7383270263671875
1772790515924761900,23.189761962890625,0.2427520751953125,0.8000640869140625,0.7617950439453125
1772790515944794000,23.209794189453124,0.2332000732421875,0.813720703125,0.7757110595703125
1772790515964827100,23.2298271484375,0.2348480224609375,0.81494140625,0.7720794677734375
1772790515984860200,23.249860107421874,0.2293853759765625,0.8191986083984375,0.7569580078125
1772790516004893200,23.26989306640625,0.2293243408203125,0.8211822509765625,0.678192138671875
1772790516024926200,23.28992626953125,0.2498321533203125,0.809295654296875,0.6476593017578125
1772790516044959000,23.309958984375,0.2392578125,0.786224365234375,0.6521453857421875
1772790516064992300,23.3299921875,0.1937408447265625,0.749969482421875,0.6634521484375
1772790516085025000,23.35002490234375,0.15875244140625,0.7285003662109375,0.6668243408203125
1772790516105058300,23.370058349609376,0.1220550537109375,0.7176055908203125,0.666473388671875
1772790516125092400,23.39009228515625,0.0930023193359375,0.7300872802734375,0.66595458984375
1772790516145125000,23.410125,0.066864013671875,0.738983154296875,0.662017822265625
1772790516165158100,23.430158203125,0.0717620849609375,0.7493743896484375,0.659637451171875
1772790516185191200,23.450191162109373,0.108795166015625,0.7850189208984375,0.6709747314453125
1772790516205224000,23.470223876953124,0.1532440185546875,0.83795166015625,0.7033538818359375
1772790516225257200,23.49025732421875,0.176055908203125,0.9034271240234375,0.73577880859375
1772790516245290000,23.5102900390625,0.18896484375,0.9377288818359375,0.7430877685546875
1772790516265323300,23.5303232421875,0.188385009765625,0.94305419921875,0.7352142333984375
1772790516285356000,23.55035595703125,0.1914825439453125,0.919525146484375,0.724029541015625
1772790516305389000,23.57038916015625,0.1855621337890625,0.8715362548828125,0.7166595458984375
1772790516325422000,23.590422119140626,0.177825927734375,0.8228302001953125,0.72137451171875
1772790516345455000,23.610455078125,0.1661529541015625,0.7852783203125,0.7334136962890625
1772790516365489200,23.6304892578125,0.15313720703125,0.768341064453125,0.72821044921875
1772790516385522200,23.650522216796876,0.1505126953125,0.7586517333984375,0.70037841796875
1772790516405555200,23.67055517578125,0.1640167236328125,0.7591705322265625,0.6703338623046875
1772790516425588200,23.690588134765626,0.173065185546875,0.7700347900390625,0.6292572021484375
1772790516445621200,23.710621337890625,0.18304443359375,0.78533935546875,0.5657501220703125
1772790516465654000,23.730654052734376,0.1925048828125,0.793701171875,0.5047454833984375
1772790516485687300,23.750687255859376,0.2053680419921875,0.7887725830078125,0.4433746337890625
1772790516505720000,23.770719970703126,0.21209716796875,0.7664031982421875,0.404815673828125
1772790516525753300,23.79075341796875,0.213409423828125,0.744293212890625,0.4034423828125
1772790516545786000,23.8107861328125,0.204376220703125,0.72900390625,0.4097442626953125
1772790516565819100,23.830819091796876,0.19329833984375,0.72149658203125,0.4073638916015625
1772790516585852200,23.85085205078125,0.1949462890625,0.727874755859375,0.3857421875
1772790516605885200,23.87088525390625,0.2154693603515625,0.737091064453125,0.3658294677734375
1772790516625919000,23.8909189453125,0.2440643310546875,0.742462158203125,0.3688507080078125
1772790516645952300,23.9109521484375,0.29083251953125,0.7620849609375,0.4043426513671875
1772790516665985000,23.930985107421876,0.346466064453125,0.8223876953125,0.4866790771484375
1772790516686018300,23.951018310546875,0.3741912841796875,0.8899688720703125,0.5488433837890625
1772790516706051000,23.971051025390626,0.328216552734375,0.9446563720703125,0.607025146484375
1772790516726084400,23.99108447265625,0.2624969482421875,0.9996490478515625,0.6653289794921875
1772790516746117000,24.0111171875,0.2246551513671875,1.0576019287109375,0.725433349609375
1772790516766150100,24.031150146484375,0.2202606201171875,1.0818939208984375,0.7794952392578125
1772790516786183200,24.05118310546875,0.23883056640625,1.078704833984375,0.8356170654296875
1772790516806216200,24.07121630859375,0.2486724853515625,1.0516510009765625,0.8682403564453125
1772790516826249200,24.091249267578124,0.2503509521484375,1.0092010498046875,0.8651580810546875
1772790516846282200,24.1112822265625,0.239013671875,0.94134521484375,0.8517913818359375
1772790516866315000,24.13131494140625,0.205078125,0.8421630859375,0.8327789306640625
1772790516886349300,24.151349365234374,0.1602325439453125,0.73992919921875,0.81719970703125
1772790516906382000,24.171382080078125,0.1191253662109375,0.65679931640625,0.8090972900390625
1772790516926415000,24.1914150390625,0.0856781005859375,0.5956573486328125,0.8094940185546875
1772790516946448600,24.21144873046875,0.074493408203125,0.5604248046875,0.831085205078125
1772790516966481400,24.2314814453125,0.08441162109375,0.5625457763671875,0.8570556640625
1772790516986514700,24.2515146484375,0.0985260009765625,0.591033935546875,0.8603515625
1772790517006547500,24.27154736328125,0.1158905029296875,0.6343841552734375,0.842376708984375
1772790517026580500,24.29158056640625,0.115020751953125,0.697021484375,0.8229522705078125
1772790517046613500,24.311613525390626,0.0826416015625,0.7343597412109375,0.7920074462890625
1772790517066646500,24.331646484375,0.0546112060546875,0.7520751953125,0.7700347900390625
1772790517086679600,24.351679443359377,0.0293731689453125,0.7476043701171875,0.7509307861328125
1772790517106712600,24.371712646484376,0.010711669921875,0.7287445068359375,0.73175048828125
1772790517126745300,24.391745361328127,0.01220703125,0.708953857421875,0.709320068359375
1772790517146779600,24.411779541015626,0.046417236328125,0.681640625,0.669036865234375
1772790517166812400,24.4318125,0.100128173828125,0.6563873291015625,0.64349365234375
1772790517186845400,24.451845458984376,0.1673736572265625,0.631591796875,0.6207733154296875
1772790517206878500,24.47187841796875,0.251739501953125,0.6146697998046875,0.5953369140625
1772790517226911500,24.491911376953126,0.3460693359375,0.6184539794921875,0.4701995849609375
1772790517246944500,24.511944580078126,0.4255523681640625,0.6425018310546875,0.3723297119140625
1772790517266977500,24.5319775390625,0.4305572509765625,0.6915283203125,0.4104766845703125
1772790517287010300,24.55201025390625,0.385955810546875,0.7475128173828125,0.5111541748046875
1772790517307043600,24.572043701171875,0.36163330078125,0.7574920654296875,0.597137451171875
1772790517327076400,24.592076416015626,0.4181671142578125,0.75189208984375,0.6161346435546875
1772790517347109600,24.612109619140625,0.5455169677734375,0.765167236328125,0.6381378173828125
1772790517367142400,24.632142333984376,0.6745758056640625,0.7657318115234375,0.6721649169921875
1772790517387175700,24.65217578125,0.7238006591796875,0.730712890625,0.67034912109375
1772790517407208400,24.67220849609375,0.69097900390625,0.6965179443359375,0.6556243896484375
1772790517427242500,24.692242431640626,0.5999603271484375,0.6684417724609375,0.6492919921875
1772790517447275500,24.712275634765625,0.454010009765625,0.650634765625,0.6768341064453125
1772790517467308500,24.73230859375,0.3123321533203125,0.634002685546875,0.72247314453125
1772790517487341300,24.75234130859375,0.22943115234375,0.6877593994140625,0.80126953125
1772790517507374600,24.77237451171875,0.1928253173828125,0.8206329345703125,0.88323974609375
1772790517527407400,24.792407470703125,0.1512451171875,0.924285888671875,0.9154815673828125
1772790517547440600,24.812440673828124,0.098846435546875,0.9495697021484375,0.885986328125
1772790517567473400,24.832473388671875,0.087493896484375,0.890960693359375,0.8319244384765625
1772790517587506400,24.85250634765625,0.1472625732421875,0.8324127197265625,0.7886810302734375
1772790517607539500,24.87253955078125,0.184417724609375,0.7755279541015625,0.7603302001953125
1772790517627572500,24.892572509765625,0.1683807373046875,0.715789794921875,0.7709197998046875
1772790517647605500,24.91260546875,0.1423797607421875,0.679901123046875,0.7969818115234375
1772790517667639600,24.9326396484375,0.11688232421875,0.65814208984375,0.81768798828125
1772790517687672300,24.95267236328125,0.1070404052734375,0.639312744140625,0.8178558349609375
1772790517707705600,24.97270556640625,0.110504150390625,0.645843505859375,0.801422119140625
1772790517727738400,24.99273828125,0.0961456298828125,0.68194580078125,0.7641754150390625
1772790517747771400,25.012771484375,0.045654296875,0.715087890625,0.73272705078125
1772790517767804400,25.032804443359375,-0.0098114013671875,0.7204132080078125,0.7323455810546875
1772790517787837400,25.05283740234375,-0.054107666015625,0.71441650390625,0.7296142578125
1772790517807870500,25.072870361328125,-0.0662841796875,0.7178955078125,0.72906494140625
1772790517827903500,25.092903564453124,-0.051788330078125,0.748504638671875,0.7379150390625
1772790517847936500,25.1129365234375,-0.042205810546875,0.811614990234375,0.76263427734375
1772790517867969500,25.132969482421874,-0.04248046875,0.8991241455078125,0.789459228515625
1772790517888002300,25.153002197265625,-0.0183868408203125,0.954254150390625,0.7916412353515625
1772790517908035600,25.17303564453125,0.04022216796875,0.9979095458984375,0.788055419921875
1772790517928068400,25.193068359375,0.1007537841796875,0.9834136962890625,0.7595062255859375
1772790517948102400,25.213102294921875,0.1675872802734375,0.932647705078125,0.7266998291015625
1772790517968135700,25.2331357421875,0.22625732421875,0.86572265625,0.71026611328125
1772790517988168400,25.25316845703125,0.25970458984375,0.8011932373046875,0.7145233154296875
1772790518008201500,25.273201416015624,0.2729034423828125,0.7521820068359375,0.72607421875
1772790518028234500,25.293234375,0.2582855224609375,0.723724365234375,0.73284912109375
1772790518048267500,25.313267578125,0.24468994140625,0.7147979736328125,0.723907470703125
1772790518068300500,25.333300537109373,0.2328948974609375,0.72296142578125,0.6999359130859375
1772790518088333300,25.353333251953124,0.222076416015625,0.7445220947265625,0.6766204833984375
1772790518108366600,25.37336669921875,0.2168121337890625,0.7811737060546875,0.6788330078125
1772790518128399400,25.3933994140625,0.2251434326171875,0.77703857421875,0.6074676513671875
1772790518148432400,25.413432373046874,0.2542724609375,0.7823333740234375,0.5454864501953125
1772790518168465400,25.43346533203125,0.2724151611328125,0.7999725341796875,0.50225830078125
1772790518188498400,25.45349853515625,0.272857666015625,0.80023193359375,0.4655914306640625
1772790518208531500,25.473531494140627,0.262725830078125,0.7816162109375,0.456787109375
1772790518228565500,25.4935654296875,0.295196533203125,0.7928314208984375,0.481781005859375
1772790518248598500,25.5135986328125,0.377410888671875,0.8788909912109375,0.55877685546875
1772790518268631600,25.533631591796876,0.3937225341796875,0.9239044189453125,0.5795135498046875
1772790518288664600,25.55366455078125,0.364654541015625,0.8972015380859375,0.5788726806640625
1772790518308697300,25.573697265625,0.338775634765625,0.8522186279296875,0.594390869140625
1772790518328730600,25.593730712890626,0.362823486328125,0.8195953369140625,0.623291015625
1772790518348763400,25.613763427734376,0.3900299072265625,0.8072509765625,0.6607666015625
1772790518368796700,25.633796630859376,0.3801116943359375,0.803131103515625,0.6957244873046875
1772790518388829400,25.653829345703127,0.3430938720703125,0.8131866455078125,0.7225799560546875
1772790518408862500,25.673862548828126,0.298431396484375,0.7867584228515625,0.6925811767578125
1772790518428895500,25.6938955078125,0.277862548828125,0.7625274658203125,0.628204345703125
1772790518448928500,25.713928466796876,0.2486572265625,0.743316650390625,0.5891571044921875
1772790518468961500,25.73396142578125,0.2119598388671875,0.7404327392578125,0.5828094482421875
1772790518488994600,25.75399462890625,0.15655517578125,0.7608642578125,0.60382080078125
1772790518509028400,25.7740283203125,0.0864410400390625,0.7906494140625,0.6312713623046875
1772790518529061600,25.7940615234375,0.0302581787109375,0.834014892578125,0.696685791015625
1772790518549094400,25.814094482421876,-0.010162353515625,0.8970489501953125,0.7827606201171875
1772790518569127700,25.834127685546875,-0.051849365234375,0.92431640625,0.8534393310546875
1772790518589160400,25.854160400390626,-0.074005126953125,0.9338226318359375,0.88714599609375
1772790518609193500,25.874193359375,-0.093475341796875,0.898406982421875,0.874420166015625
1772790518629226500,25.8942265625,-0.094940185546875,0.8381500244140625,0.8347320556640625
1772790518649259500,25.914259521484375,-0.0816192626953125,0.792724609375,0.7997589111328125
1772790518669292500,25.93429248046875,-0.0794219970703125,0.7496795654296875,0.761474609375
1772790518689325600,25.95432568359375,-0.0699615478515625,0.7211761474609375,0.721588134765625
1772790518709358300,25.9743583984375,-0.033538818359375,0.7111358642578125,0.6957244873046875
1772790518729391600,25.9943916015625,-0.0049591064453125,0.6983642578125,0.67706298828125
1772790518749424400,26.01442431640625,0.012969970703125,0.6972503662109375,0.6644439697265625
1772790518769457700,26.034457763671874,0.039154052734375,0.698028564453125,0.65576171875
1772790518789491500,26.054491455078125,0.0760498046875,0.70751953125,0.641265869140625
1772790518809524500,26.0745244140625,0.1096038818359375,0.7145843505859375,0.6334686279296875
1772790518829557500,26.0945576171875,0.13372802734375,0.715576171875,0.6316680908203125
1772790518849590500,26.114590576171874,0.148468017578125,0.7140045166015625,0.6390533447265625
1772790518869623300,26.134623291015625,0.163116455078125,0.71893310546875,0.65478515625
1772790518889656600,26.154656494140625,0.1712493896484375,0.7315673828125,0.666839599609375
1772790518909689300,26.174689453125,0.1778106689453125,0.739593505859375,0.693756103515625
1772790518929722600,26.19472265625,0.19000244140625,0.7648773193359375,0.7265472412109375
1772790518949756000,26.214755859375,0.22027587890625,0.781890869140625,0.76751708984375
1772790518969789000,26.234788818359377,0.268463134765625,0.8063812255859375,0.8187713623046875
