time,seconds_elapsed,z,y,x
1772790492790285800,0.055285888671875,-0.04506095126271248,-0.29669639468193054,-0.004460528492927551
1772790492810318800,0.07531884765625,-0.07271788269281387,-0.3615638017654419,-0.06917214393615723
1772790492830353000,0.095352783203125,-0.07444680482149124,-0.4646179974079132,-0.028540831059217453
1772790492850386000,0.115385986328125,-0.13393943011760712,-0.5491014719009399,0.049122538417577744
1772790492870418700,0.135418701171875,-0.2170625478029251,-0.593476414680481,0.060858290642499924
1772790492890452000,0.155451904296875,-0.31289905309677124,-0.6151276230812073,0.030707312747836113
1772790492910484200,0.175484130859375,-0.4027104377746582,-0.6034113168716431,0.007279218174517155
1772790492930517500,0.195517578125,-0.4768504500389099,-0.639436662197113,0.0559796467423439
1772790492950550300,0.21555029296875,-0.5374922156333923,-0.6830787062644958,0.1439608931541443
1772790492970584300,0.235584228515625,-0.565535843372345,-0.7001732587814331,0.17469723522663116
1772790492990617600,0.25561767578125,-0.5930691957473755,-0.6672589778900146,0.08640972524881363
1772790493010650400,0.275650390625,-0.597449541091919,-0.5715591311454773,-0.06838225573301315
1772790493030683400,0.295683349609375,-0.5926929116249084,-0.4258924424648285,-0.22916367650032043
1772790493050716400,0.31571630859375,-0.5674615502357483,-0.2567489743232727,-0.33716657757759094
1772790493070749200,0.335749267578125,-0.5872986316680908,-0.11552872508764267,-0.38945454359054565
1772790493090782500,0.355782470703125,-0.6497745513916016,0.03145672753453255,-0.3229128122329712
1772790493110816500,0.37581640625,-0.7440485954284668,0.266478031873703,-0.1300453543663025
1772790493130849300,0.395849365234375,-0.8546739220619202,0.5632774829864502,0.12653423845767975
1772790493150882600,0.415882568359375,-0.9479673504829407,0.8795976042747498,0.2764132022857666
1772790493170915300,0.435915283203125,-0.9638988971710205,1.1810871362686157,0.24432584643363953
1772790493190948600,0.455948486328125,-1.0464789867401123,1.536994457244873,0.24985723197460175
1772790493210981400,0.4759814453125,-1.1859769821166992,1.9198282957077026,0.3572806417942047
1772790493231014400,0.496014404296875,-1.4244178533554077,2.463041067123413,0.7246240377426147
1772790493251048400,0.51604833984375,-1.7393791675567627,3.2361884117126465,1.3064253330230713
1772790493271081500,0.53608154296875,-2.031005382537842,4.152924537658691,2.075052261352539
1772790493291114200,0.5561142578125,-2.1444528102874756,5.0455121994018555,2.9992778301239014
1772790493311147500,0.5761474609375,-2.328042507171631,5.779331684112549,3.999589204788208
1772790493331180300,0.59618017578125,-2.6855826377868652,6.198290824890137,4.832083225250244
1772790493351213600,0.616213623046875,-3.2632534503936768,6.233425617218018,5.394134521484375
1772790493371246300,0.636246337890625,-4.088290214538574,5.757230758666992,5.706610202789307
1772790493391280400,0.6562802734375,-5.022419452667236,4.894277572631836,5.633562088012695
1772790493411313400,0.6763134765625,-5.941014766693115,3.874022960662842,5.032589435577393
1772790493431346400,0.696346435546875,-6.8457865715026855,2.6752665042877197,4.116673469543457
1772790493451379200,0.716379150390625,-7.805525779724121,1.3357545137405396,3.4106130599975586
1772790493471412500,0.73641259765625,-8.720250129699707,0.18197432160377502,3.0496063232421875
1772790493491445200,0.7564453125,-8.83627986907959,-0.6760439872741699,3.0838985443115234
1772790493511478500,0.776478515625,-8.307093620300293,-1.372025966644287,3.440788984298706
1772790493531512600,0.7965126953125,-7.3511223793029785,-1.8067729473114014,4.063894271850586
1772790493551545300,0.81654541015625,-6.484018325805664,-2.047299861907959,4.623256206512451
1772790493571578600,0.83657861328125,-6.009738445281982,-2.214401960372925,4.357905864715576
1772790493591611400,0.856611328125,-5.42446756362915,-1.6016786098480225,3.1698100566864014
1772790493611644400,0.87664453125,-4.200964450836182,-0.6794229745864868,2.3079237937927246
1772790493631677400,0.896677490234375,-2.322445869445801,-0.8098542094230652,2.084495782852173
1772790493651710500,0.91671044921875,-0.556869626045227,-1.9518262147903442,1.6273986101150513
1772790493671743500,0.936743408203125,0.3216360807418823,-2.5189170837402344,0.3438577651977539
1772790493691777500,0.956777587890625,0.7091494798660278,-3.400696039199829,-1.1321028470993042
1772790493711810300,0.976810302734375,0.7342004776000977,-4.363705635070801,-2.5035488605499268
1772790493731843600,0.996843505859375,0.5126971006393433,-5.1719770431518555,-3.533348798751831
1772790493751876400,1.01687646484375,0.12496750056743622,-6.027689456939697,-4.174846172332764
1772790493771909400,1.036909423828125,-0.43243077397346497,-6.521571636199951,-4.515232086181641
1772790493791942400,1.0569423828125,-0.8696634769439697,-6.4307732582092285,-4.656891822814941
1772790493811975400,1.076975341796875,-1.0167485475540161,-5.73491907119751,-4.599167346954346
1772790493832009200,1.09700927734375,-1.074804663658142,-4.577571392059326,-4.297353267669678
1772790493852042500,1.11704248046875,-1.134277105331421,-3.1364998817443848,-3.8527750968933105
1772790493872075300,1.1370751953125,-1.1760623455047607,-1.5683528184890747,-3.2881276607513428
1772790493892108500,1.157108642578125,-1.2785463333129883,-0.019628295674920082,-2.5729241371154785
1772790493912141800,1.177141845703125,-1.393646001815796,1.3593980073928833,-1.6424182653427124
1772790493932174600,1.197174560546875,-1.3573071956634521,2.3682024478912354,-0.5513901710510254
1772790493952208000,1.217207763671875,-1.1136258840560913,3.004424810409546,0.6070947051048279
1772790493972240600,1.23724072265625,-0.5853918194770813,3.178729295730591,1.635799527168274
1772790493992274700,1.257274658203125,0.0068051754496991634,2.912961483001709,2.3337175846099854
1772790494012307700,1.2773076171875,0.49106401205062866,2.22312593460083,2.52755069732666
1772790494032340700,1.2973408203125,0.875528872013092,1.115142822265625,2.1843454837799072
1772790494052373800,1.317373779296875,1.1926189661026,-0.12000443786382675,1.490096092224121
1772790494072406800,1.33740673828125,1.412300944328308,-1.2602232694625854,0.7096258997917175
1772790494092439600,1.357439453125,1.431494116783142,-1.9224371910095215,0.08854983747005463
1772790494112472800,1.377472900390625,1.260347843170166,-1.9988030195236206,-0.231063574552536
1772790494132505600,1.397505615234375,1.1860805749893188,-1.6693165302276611,-0.3782021701335907
1772790494152539600,1.41753955078125,1.364491581916809,-1.0723955631256104,-0.4754328429698944
1772790494172573000,1.437572998046875,1.6394842863082886,-0.3572915494441986,-0.4850093126296997
1772790494192605700,1.457605712890625,1.951619267463684,0.3722095191478729,-0.4546801447868347
1772790494212638700,1.477638671875,2.137277126312256,0.9630483388900757,-0.2675350308418274
1772790494232671700,1.497671630859375,2.122865915298462,1.3768450021743774,0.09117758274078369
1772790494252704500,1.51770458984375,1.9960922002792358,1.5903774499893188,0.4667360186576843
1772790494272737800,1.53773779296875,1.8259865045547485,1.5893281698226929,0.7204806804656982
1772790494292770600,1.5577705078125,1.7024867534637451,1.4091427326202393,0.7171948552131653
1772790494312804600,1.5778046875,1.669403076171875,1.1691292524337769,0.4872833788394928
1772790494332838000,1.597837890625,1.695273518562317,0.9151167273521423,0.16335749626159668
1772790494352870700,1.61787060546875,1.6851143836975098,0.6928423643112183,-0.07366037368774414
1772790494372904000,1.637904052734375,1.6418049335479736,0.5382829308509827,-0.13132713735103607
1772790494392936700,1.657936767578125,1.6082206964492798,0.5039326548576355,-0.00944889523088932
1772790494412969700,1.6779697265625,1.6007566452026367,0.6253988742828369,0.2391020655632019
1772790494433002800,1.698002685546875,1.6219713687896729,0.8397881388664246,0.5122614502906799
1772790494453035800,1.718035888671875,1.669182538986206,1.132861614227295,0.7478755712509155
1772790494473069600,1.738069580078125,1.7085440158843994,1.449885606765747,0.9785460233688354
1772790494493102800,1.758102783203125,1.7252976894378662,1.7389613389968872,1.240909218788147
1772790494513135600,1.778135498046875,1.6833889484405518,1.9519418478012085,1.5663059949874878
1772790494533169000,1.7981689453125,1.6266937255859375,2.075136184692383,1.8085812330245972
1772790494553201700,1.81820166015625,1.6190229654312134,2.132079839706421,1.8806668519973755
1772790494573234700,1.838234619140625,1.6742124557495117,2.0926196575164795,1.7925100326538086
1772790494593267700,1.858267822265625,1.7710490226745605,1.9016761779785156,1.6136358976364136
1772790494613300700,1.87830078125,1.8492170572280884,1.5875850915908813,1.409616470336914
1772790494633334500,1.89833447265625,1.9019449949264526,1.2259340286254883,1.172608733177185
1772790494653367800,1.918367919921875,2.006026268005371,1.0176926851272583,0.9362931251525879
1772790494673400600,1.938400634765625,2.1659252643585205,1.08192777633667,0.8708704710006714
1772790494693433900,1.958433837890625,2.2833263874053955,1.1737751960754395,0.8559436798095703
1772790494713466600,1.978466552734375,2.371295928955078,1.199588418006897,0.8138356804847717
1772790494733499600,1.998499755859375,2.3680410385131836,0.8549870848655701,0.6962363123893738
1772790494753532700,2.01853271484375,2.194805860519409,0.18441644310951233,0.5568960309028625
1772790494773565700,2.038565673828125,1.9681942462921143,-0.4760504364967346,0.34270942211151123
1772790494793599700,2.058599853515625,1.6776121854782104,-0.9946741461753845,0.1504528820514679
1772790494813632800,2.0786328125,1.1888086795806885,-1.1881810426712036,0.15890470147132874
1772790494833665800,2.098665771484375,0.5908966064453125,-0.9762280583381653,0.321810245513916
1772790494853698800,2.11869873046875,0.12356428056955338,-0.5402949452400208,0.4880964457988739
1772790494873731800,2.13873193359375,-0.24542680382728577,-0.14863954484462738,0.37473607063293457
1772790494893764600,2.1587646484375,-0.5661835074424744,-0.0443461574614048,0.1121734082698822
1772790494913798100,2.178798095703125,-0.8808538317680359,-0.313777357339859,0.09157678484916687
1772790494933831000,2.198830810546875,-1.1704643964767456,-0.7504614591598511,0.1859102100133896
1772790494953864200,2.2188642578125,-1.4724571704864502,-1.192797303199768,0.31166762113571167
1772790494973898000,2.23889794921875,-1.9170095920562744,-1.4986491203308105,0.41522011160850525
1772790494993931000,2.258930908203125,-2.5275652408599854,-1.7359954118728638,0.4081054627895355
1772790495013964000,2.278964111328125,-3.2088799476623535,-1.9395884275436401,0.1563187688589096
1772790495033997000,2.2989970703125,-3.7831971645355225,-2.110661029815674,-0.4918626844882965
1772790495054029800,2.31902978515625,-4.080023288726807,-2.0779879093170166,-1.3994868993759155
1772790495074063000,2.33906298828125,-4.046350955963135,-1.7471753358840942,-2.2127346992492676
1772790495094096000,2.359095947265625,-3.739116907119751,-0.9901699423789978,-2.7263002395629883
1772790495114129200,2.379129150390625,-3.2320427894592285,-0.061708372086286545,-2.801088809967041
1772790495134163200,2.3991630859375,-2.663234233856201,0.6199740171432495,-2.4513156414031982
1772790495154196000,2.419196044921875,-2.0312540531158447,0.7871723771095276,-1.9784858226776123
1772790495174229200,2.439229248046875,-1.3696887493133545,0.46684467792510986,-1.6849210262298584
1772790495194262000,2.459261962890625,-0.8455057144165039,-0.15362603962421417,-1.559485912322998
1772790495214294800,2.479294677734375,-0.47401922941207886,-0.8917903900146484,-1.508081316947937
1772790495234328000,2.499328125,-0.22902439534664154,-1.516472578048706,-1.4228023290634155
1772790495254360800,2.51936083984375,-0.1313931792974472,-1.9688411951065063,-1.2492589950561523
1772790495274394000,2.53939404296875,-0.10653043538331985,-2.2817044258117676,-1.1085509061813354
1772790495294427000,2.559427001953125,-0.12332672625780106,-2.418443202972412,-0.9887036085128784
1772790495314461000,2.5794609375,-0.21779997646808624,-2.3932788372039795,-0.8429368138313293
1772790495334494200,2.599494140625,-0.3950498402118683,-2.20363712310791,-0.6661977171897888
1772790495354527000,2.61952685546875,-0.6022632122039795,-1.8181270360946655,-0.49408507347106934
1772790495374560000,2.63956005859375,-0.799927294254303,-1.3250550031661987,-0.2637227177619934
1772790495394593000,2.659593017578125,-1.002112627029419,-0.6976560354232788,0.019532954320311546
1772790495414626000,2.6796259765625,-1.1637544631958008,-0.031184017658233643,0.28076961636543274
1772790495434659000,2.6996591796875,-1.306801438331604,0.5280872583389282,0.5693457722663879
1772790495454692000,2.719692138671875,-1.356128215789795,0.9030275940895081,0.8969489336013794
1772790495474726000,2.739725830078125,-1.305320143699646,1.0317509174346924,1.1568057537078857
1772790495494759200,2.75975927734375,-1.2201069593429565,0.9047319889068604,1.3167810440063477
1772790495514792000,2.7797919921875,-1.1367665529251099,0.5064882040023804,1.399912714958191
1772790495534825000,2.799824951171875,-1.0077332258224487,0.0755528137087822,1.4807984828948975
1772790495554858000,2.81985791015625,-0.9466493725776672,-0.32718425989151,1.5177767276763916
1772790495574891000,2.83989111328125,-0.8333483934402466,-0.6368116140365601,1.515708327293396
1772790495594924000,2.859924072265625,-0.5962119698524475,-0.5841127038002014,1.3929286003112793
1772790495614957000,2.87995703125,-0.29444387555122375,-0.24192342162132263,1.0452723503112793
1772790495634990000,2.899989990234375,-0.22114117443561554,0.20335792005062103,0.5657656788825989
1772790495655024000,2.920024169921875,-0.3077216148376465,0.5729290246963501,0.05733759328722954
1772790495675057000,2.940056884765625,-0.3415466845035553,0.7938100099563599,-0.3542534112930298
1772790495695090200,2.960090087890625,-0.25237393379211426,0.847067654132843,-0.5137304067611694
1772790495715123000,2.980123046875,-0.005147091578692198,0.7164446711540222,-0.4488374590873718
1772790495735156000,3.000156005859375,0.36490899324417114,0.4283612072467804,-0.3395402431488037
1772790495755189000,3.02018896484375,0.7229148149490356,0.10846815258264542,-0.2907271683216095
1772790495775222000,3.040221923828125,0.9496667385101318,-0.1046433225274086,-0.28734204173088074
1772790495795255000,3.060255126953125,1.0643880367279053,-0.1652882993221283,-0.34149742126464844
1772790495815289000,3.0802890625,1.112382411956787,0.01728205196559429,-0.4047357738018036
1772790495835322000,3.100322021484375,1.1321337223052979,0.3711053729057312,-0.4004962742328644
1772790495855355100,3.120355224609375,1.1610583066940308,0.7968766689300537,-0.2924150824546814
1772790495875388200,3.14038818359375,1.2156622409820557,1.275146245956421,-0.06938653439283371
1772790495895421000,3.1604208984375,1.3082653284072876,1.721644639968872,0.20989890396595
1772790495915453400,3.180453369140625,1.4573858976364136,2.086794853210449,0.47912317514419556
1772790495935486500,3.200486572265625,1.5966150760650635,2.2971243858337402,0.7103627920150757
1772790495955519500,3.22051953125,1.7255781888961792,2.4279732704162598,0.9249871969223022
1772790495975552500,3.240552490234375,1.8499871492385864,2.4854958057403564,1.0735913515090942
1772790495995586300,3.26058642578125,2.001214027404785,2.4441821575164795,1.1142207384109497
1772790496015619600,3.28061962890625,2.1522271633148193,2.3134779930114746,1.0802388191223145
1772790496035652400,3.30065234375,2.2863993644714355,2.0333480834960938,0.9296850562095642
1772790496055685600,3.320685546875,2.4179463386535645,1.6597541570663452,0.6773752570152283
1772790496075718400,3.340718505859375,2.56535005569458,1.184504747390747,0.363010972738266
1772790496095751400,3.36075146484375,2.703766345977783,0.6206960082054138,0.06473798304796219
1772790496115784400,3.380784423828125,2.8004543781280518,0.011425759643316269,-0.16150180995464325
1772790496135817500,3.4008173828125,2.8337509632110596,-0.6032214164733887,-0.29478609561920166
1772790496155851500,3.4208515625,2.7947187423706055,-1.1279305219650269,-0.32423585653305054
1772790496175884500,3.440884521484375,2.6456611156463623,-1.5991888046264648,-0.2816130518913269
1772790496195917300,3.460917236328125,2.34074330329895,-1.9009127616882324,-0.20155362784862518
1772790496215950600,3.48095068359375,1.9201310873031616,-2.042271375656128,-0.1588362455368042
1772790496235983400,3.5009833984375,1.4348992109298706,-1.9617936611175537,-0.11428636312484741
1772790496256016400,3.521016357421875,0.9975197315216064,-1.6667231321334839,-0.06672284007072449
1772790496276049400,3.54104931640625,0.7040393948554993,-1.195497751235962,-0.026486733928322792
1772790496296082400,3.56108251953125,0.4958781898021698,-0.6652024984359741,0.04932733625173569
1772790496316115500,3.581115478515625,0.2874576151371002,-0.19271805882453918,0.11135928332805634
1772790496336149500,3.6011494140625,0.10015669465065002,0.27889660000801086,0.12729883193969727
1772790496356182500,3.6211826171875,-0.07058069109916687,0.6809708476066589,0.0026162895374000072
1772790496376215600,3.641215576171875,-0.3192155361175537,0.8971958160400391,-0.0876116082072258
1772790496396248600,3.66124853515625,-0.6838875412940979,0.8431043028831482,0.0596284419298172
1772790496416281300,3.68128125,-1.1584454774856567,0.5987470746040344,0.5039036273956299
1772790496436314600,3.701314697265625,-1.6175822019577026,0.2811182141304016,0.9358784556388855
1772790496456347400,3.721347412109375,-2.0185744762420654,-0.05444326624274254,1.0672622919082642
1772790496476380700,3.741380615234375,-2.366556406021118,-0.4052433669567108,0.9875970482826233
1772790496496413400,3.761413330078125,-2.712280035018921,-0.7133843898773193,0.7601918578147888
1772790496516447500,3.781447509765625,-3.0492799282073975,-0.9032148122787476,0.38017502427101135
1772790496536480500,3.80148046875,-3.36616849899292,-0.8576489090919495,-0.17450203001499176
1772790496556513500,3.821513427734375,-3.5931997299194336,-0.5514453053474426,-0.7429822683334351
1772790496576546300,3.84154638671875,-3.672675371170044,0.027299264445900917,-1.1544467210769653
1772790496596579600,3.86157958984375,-3.597731351852417,0.7683832049369812,-1.3417226076126099
1772790496616612400,3.8816123046875,-3.3850793838500977,1.5274293422698975,-1.2510590553283691
1772790496636645600,3.901645751953125,-3.0720810890197754,2.0778398513793945,-0.8351321816444397
1772790496656678400,3.921678466796875,-2.6396429538726807,2.1953957080841064,-0.22143198549747467
1772790496676711700,3.941711669921875,-2.107013702392578,1.722027063369751,0.3194456398487091
1772790496696745500,3.961745361328125,-1.5187256336212158,0.8469366431236267,0.6176344752311707
1772790496716778500,3.981778564453125,-0.9186643362045288,-0.16657033562660217,0.6115568280220032
1772790496736809500,4.0018095703125,-0.3952818214893341,-1.073914885520935,0.35519272089004517
1772790496756842500,4.021842529296875,-0.06490442901849747,-1.7784677743911743,0.012535499408841133
1772790496776875500,4.04187548828125,0.07709211856126785,-2.3596670627593994,-0.27045226097106934
1772790496796908300,4.061908203125,0.010282997973263264,-2.6927459239959717,-0.4531107544898987
1772790496816941600,4.081941650390625,-0.14652526378631592,-2.7347464561462402,-0.580626904964447
1772790496836974300,4.101974365234375,-0.2607943117618561,-2.50201416015625,-0.656322181224823
1772790496857007600,4.122007568359375,-0.30347251892089844,-2.031421422958374,-0.7165889739990234
1772790496877040400,4.142040283203125,-0.2571345865726471,-1.368820071220398,-0.7741897106170654
1772790496897074400,4.162074462890625,-0.18820612132549286,-0.7469751238822937,-0.6819911003112793
1772790496917107700,4.182107666015625,-0.2497565746307373,-0.35974645614624023,-0.3797084391117096
1772790496937141000,4.20214111328125,-0.38314658403396606,-0.10985007137060165,-0.03478407859802246
1772790496957173800,4.222173828125,-0.4589955508708954,0.0862715020775795,0.2582424581050873
1772790496977207000,4.24220703125,-0.4713968336582184,0.20523810386657715,0.5660793781280518
1772790496997239800,4.26223974609375,-0.47898682951927185,0.2825089395046234,0.8435879349708557
1772790497017272800,4.28227294921875,-0.40405747294425964,0.33817538619041443,1.065020203590393
1772790497037305900,4.302305908203125,-0.27969369292259216,0.33130761981010437,1.1990680694580078
1772790497057339000,4.3223388671875,-0.14159654080867767,0.35084137320518494,1.1735328435897827
1772790497077372700,4.34237255859375,0.056714411824941635,0.4010542035102844,1.0213919878005981
1772790497097406000,4.362406005859375,0.29938483238220215,0.5330631136894226,0.7361727952957153
1772790497117438700,4.382438720703125,0.6269387602806091,0.7924365997314453,0.20706476271152496
1772790497137475000,4.40247509765625,0.8694241046905518,1.0259127616882324,-0.3057103753089905
1772790497157507800,4.4225078125,0.9403272867202759,1.1013169288635254,-0.584069550037384
1772790497177541000,4.442541015625,0.9635074138641357,1.0352697372436523,-0.6190017461776733
1772790497197574000,4.462573974609375,1.0591868162155151,0.8564033508300781,-0.5752009749412537
1772790497217608000,4.48260791015625,1.2824639081954956,0.5661720633506775,-0.527949869632721
1772790497237641000,4.502640869140625,1.6143726110458374,0.20014826953411102,-0.5200860500335693
1772790497257674000,4.522674072265625,1.9242031574249268,-0.12449771910905838,-0.5501150488853455
1772790497277706800,4.542706787109375,2.102189064025879,-0.37830761075019836,-0.5830285549163818
1772790497297740000,4.562739990234375,2.1241650581359863,-0.5152119398117065,-0.594448983669281
1772790497317772800,4.582772705078125,2.0979483127593994,-0.5444608926773071,-0.5768880844116211
1772790497337806000,4.60280615234375,2.0770883560180664,-0.42677369713783264,-0.4644702076911926
1772790497357838800,4.6228388671875,1.9996302127838135,-0.20553238689899445,-0.24917520582675934
1772790497377872000,4.642871826171875,1.8449921607971191,0.10252451151609421,0.059609800577163696
1772790497397906000,4.662906005859375,1.6824873685836792,0.47375717759132385,0.4094306528568268
1772790497417939000,4.68293896484375,1.455184817314148,0.8072826862335205,0.7446414232254028
1772790497437971700,4.7029716796875,1.1322500705718994,1.0457404851913452,0.9985913634300232
1772790497458005000,4.7230048828125,0.776685357093811,1.15199875831604,1.1069519519805908
1772790497478037800,4.743037841796875,0.4275952875614166,1.2071576118469238,1.1153044700622559
1772790497498071000,4.763071044921875,0.12372460216283798,1.4201256036758423,1.1970744132995605
1772790497518103800,4.783103759765625,0.10264541953802109,1.7935463190078735,1.42245614528656
1772790497538136800,4.80313671875,0.5518578290939331,2.0383479595184326,1.8395105600357056
1772790497558171000,4.8231708984375,1.2137750387191772,1.9404441118240356,2.0288448333740234
1772790497578204000,4.843203857421875,2.0023398399353027,1.5782909393310547,1.5800111293792725
1772790497598236700,4.863236572265625,2.7232422828674316,0.7134882807731628,0.7906981110572815
1772790497618270000,4.88327001953125,3.0592503547668457,-0.47240322828292847,0.1735781878232956
1772790497638302700,4.903302734375,3.047720432281494,-1.641631841659546,-0.1445811539888382
1772790497658336000,4.9233359375,2.8212223052978516,-2.4028851985931396,-0.20888930559158325
1772790497678368800,4.94336865234375,2.4094934463500977,-2.6193878650665283,-0.04232242330908775
1772790497698402000,4.963402099609375,1.9883173704147339,-2.3830342292785645,0.19878900051116943
1772790497718434800,4.983434814453125,1.780738115310669,-1.8270946741104126,0.4372742772102356
1772790497738468900,5.00346875,1.684746265411377,-1.0326913595199585,0.7361789345741272
1772790497758502000,5.023501953125,1.561760425567627,-0.16472317278385162,1.0170109272003174
1772790497778535000,5.043534912109375,1.3485288619995117,0.7253526449203491,1.16162109375
1772790497798568000,5.06356787109375,1.1166703701019287,1.5007301568984985,1.1407461166381836
1772790497818601000,5.08360107421875,0.8487379550933838,2.0765273571014404,0.9949114322662354
1772790497838634000,5.103634033203125,0.4533222019672394,2.363269805908203,1.1003433465957642
1772790497858667000,5.1236669921875,0.09291582554578781,2.3493854999542236,1.476123571395874
1772790497878700000,5.143699951171875,-0.2742161154747009,2.1714446544647217,1.8529568910598755
1772790497898732800,5.16373291015625,-0.7024462819099426,1.8301373720169067,1.9901189804077148
1772790497918766800,5.183766845703125,-1.2519909143447876,1.3653638362884521,1.717086911201477
1772790497938800000,5.203800048828125,-1.8789682388305664,0.7958595752716064,1.0628808736801147
1772790497958833000,5.2238330078125,-2.4663279056549072,0.1110982894897461,0.26834356784820557
1772790497978866200,5.2438662109375,-2.949864625930786,-0.5896518230438232,-0.4302147626876831
1772790497998899000,5.26389892578125,-3.277015209197998,-1.0965485572814941,-0.9646598100662231
1772790498018932200,5.28393212890625,-3.4477269649505615,-1.3164747953414917,-1.3985813856124878
1772790498038965000,5.303965087890625,-3.4668638706207275,-1.2434203624725342,-1.784916639328003
1772790498058998000,5.323998046875,-3.3480541706085205,-0.9816169142723083,-2.0915372371673584
1772790498079031000,5.344031005859375,-3.1186606884002686,-0.6245786547660828,-2.2598876953125
1772790498099065000,5.364065185546875,-2.8234665393829346,-0.2919389009475708,-2.2447428703308105
1772790498119097900,5.384097900390625,-2.49377179145813,-0.12540026009082794,-2.0465879440307617
1772790498139131100,5.404131103515625,-2.1468002796173096,-0.1633569747209549,-1.74553644657135
1772790498159164000,5.424163818359375,-1.8066141605377197,-0.36995676159858704,-1.4317198991775513
1772790498179197200,5.444197265625,-1.4855245351791382,-0.6759483814239502,-1.2095304727554321
1772790498199230000,5.46422998046875,-1.2121915817260742,-1.047315001487732,-1.1033968925476074
1772790498219263000,5.484262939453125,-1.0413599014282227,-1.419787883758545,-1.0710152387619019
1772790498239296000,5.5042958984375,-1.0034610033035278,-1.7702889442443848,-1.0916465520858765
1772790498259329000,5.5243291015625,-1.0877705812454224,-2.0709757804870605,-1.1436692476272583
1772790498279362800,5.54436279296875,-1.287397861480713,-2.295158624649048,-1.1903091669082642
1772790498299396000,5.56439599609375,-1.51825749874115,-2.412414312362671,-1.2045533657073975
1772790498319428900,5.584428955078125,-1.7310336828231812,-2.333911418914795,-1.1974400281906128
1772790498339462100,5.604462158203125,-1.9226497411727905,-2.0628297328948975,-1.1960070133209229
1772790498359495000,5.624494873046875,-2.0516273975372314,-1.6392134428024292,-1.2177695035934448
1772790498379528000,5.64452783203125,-2.166806936264038,-1.1491804122924805,-1.1797784566879272
1772790498399561000,5.66456103515625,-2.282589912414551,-0.6716497540473938,-1.0249689817428589
1772790498419594000,5.684593994140625,-2.4051098823547363,-0.2787671983242035,-0.760169506072998
1772790498439627000,5.704626953125,-2.4671123027801514,-0.04229286313056946,-0.398019015789032
1772790498459660000,5.724659912109375,-2.442152500152588,0.025169800966978073,-0.05228158086538315
1772790498479694000,5.744694091796875,-2.351144313812256,-0.05874134227633476,0.161818727850914
1772790498499727000,5.76472705078125,-2.2887368202209473,-0.28486502170562744,0.2734336853027344
1772790498519760100,5.784760009765625,-2.196958541870117,-0.630990743637085,0.3378768563270569
1772790498539793000,5.80479296875,-2.0108869075775146,-0.972521185874939,0.3344954252243042
1772790498559826200,5.824826171875,-1.7110474109649658,-1.1536842584609985,0.27571654319763184
1772790498579859000,5.84485888671875,-1.3187947273254395,-1.1365690231323242,0.3095485270023346
1772790498599892200,5.864892333984375,-0.8996842503547668,-0.9860745072364807,0.4115681052207947
1772790498619925000,5.884925048828125,-0.456226646900177,-0.7149937748908997,0.39313530921936035
1772790498639958000,5.9049580078125,0.01637444645166397,-0.42459362745285034,0.19957701861858368
1772790498659992000,5.924991943359375,0.4512167274951935,-0.25546905398368835,-0.01738831214606762
1772790498680025000,5.945025146484375,0.7877422571182251,-0.18655230104923248,-0.1896791160106659
1772790498700057900,5.965057861328125,0.979254424571991,-0.14769598841667175,-0.27108022570610046
1772790498720091100,5.985091064453125,1.0632801055908203,-0.0942617878317833,-0.28649380803108215
1772790498740124000,6.0051240234375,1.1303499937057495,-0.014597051776945591,-0.25750023126602173
1772790498760157200,6.0251572265625,1.2315186262130737,0.09123776853084564,-0.17154645919799805
1772790498780190000,6.04518994140625,1.4021649360656738,0.23330968618392944,-0.052008338272571564
1772790498800223200,6.06522314453125,1.617928385734558,0.4128173887729645,0.11820999532938004
1772790498820256000,6.085256103515625,1.8565657138824463,0.5954705476760864,0.3661841154098511
1772790498840290000,6.1052900390625,2.127201795578003,0.8296348452568054,0.6507202386856079
1772790498860323000,6.125322998046875,2.4165122509002686,1.1403131484985352,0.9526782035827637
1772790498880356000,6.145356201171875,2.7959492206573486,1.5342212915420532,1.2456963062286377
1772790498900388900,6.165388916015625,3.224414825439453,1.9089088439941406,1.641992211341858
1772790498920421600,6.185421630859375,3.5426266193389893,2.3582327365875244,1.9424428939819336
1772790498940454700,6.20545458984375,3.633389949798584,2.916520833969116,1.8649139404296875
1772790498960487700,6.22548779296875,3.415703535079956,3.288283109664917,1.4136615991592407
1772790498980520700,6.245520751953125,2.9993069171905518,3.182316541671753,0.7376405000686646
1772790499000553700,6.2655537109375,2.6020700931549072,2.5466575622558594,-0.016396284103393555
1772790499020586800,6.285586669921875,2.3093838691711426,1.5113143920898438,-0.7323794364929199
1772790499040620500,6.30562060546875,2.1733055114746094,0.3486975431442261,-1.2869163751602173
1772790499060653600,6.325653564453125,2.166534423828125,-0.6040816307067871,-1.499044418334961
1772790499080686600,6.3456865234375,2.197748899459839,-1.1851855516433716,-1.4137965440750122
1772790499100719600,6.3657197265625,2.1554923057556152,-1.4457998275756836,-1.2487261295318604
1772790499120752600,6.385752685546875,2.028630495071411,-1.5435208082199097,-1.0719934701919556
1772790499140785700,6.40578564453125,1.8312143087387085,-1.5711637735366821,-0.8973395824432373
1772790499160818700,6.425818603515625,1.6497998237609863,-1.519461750984192,-0.7877547740936279
1772790499180851700,6.445851806640625,1.4921419620513916,-1.3374663591384888,-0.7147865891456604
1772790499200884500,6.465884521484375,1.3416563272476196,-1.045972466468811,-0.6328877210617065
1772790499220918500,6.48591845703125,1.1728318929672241,-0.6515929698944092,-0.5190551280975342
1772790499240951600,6.50595166015625,0.969459593296051,-0.21288403868675232,-0.3216480612754822
1772790499260984600,6.525984619140625,0.7345794439315796,0.1916208267211914,-0.03307086601853371
1772790499281017600,6.546017578125,0.5160633325576782,0.540495753288269,0.29781410098075867
1772790499301050600,6.566050537109375,0.2776542603969574,0.7736863493919373,0.6071162819862366
1772790499321083600,6.586083740234375,0.008325307630002499,0.92328941822052,0.7108879685401917
1772790499341116700,6.60611669921875,-0.3360395133495331,0.9441822171211243,0.4199448227882385
1772790499361149400,6.6261494140625,-0.8091785907745361,0.7371619343757629,-0.04400474205613136
1772790499381182700,6.6461826171875,-1.2960017919540405,0.32205554842948914,-0.4033530652523041
1772790499401215500,6.666215576171875,-1.7259531021118164,-0.17379096150398254,-0.6473433375358582
1772790499421249500,6.68624951171875,-2.1133289337158203,-0.6007683873176575,-0.8817744851112366
1772790499441282600,6.706282470703125,-2.5114948749542236,-0.862534761428833,-1.132430911064148
1772790499461315600,6.726315673828125,-2.92659854888916,-1.0153932571411133,-1.3389966487884521
1772790499481348600,6.7463486328125,-3.3610293865203857,-1.070864200592041,-1.4239184856414795
1772790499501381600,6.766381591796875,-3.749037504196167,-1.0403470993041992,-1.3197954893112183
1772790499521414400,6.786414306640625,-4.012438774108887,-0.8885594010353088,-1.0214264392852783
1772790499541447700,6.80644775390625,-4.156612873077393,-0.5722046494483948,-0.6494309902191162
1772790499561480400,6.82648046875,-4.155837535858154,-0.11950482428073883,-0.3350808024406433
1772790499581513700,6.846513671875,-4.046294212341309,0.40068137645721436,-0.07285956293344498
1772790499601546500,6.86654638671875,-3.8200392723083496,0.8628977537155151,0.12622211873531342
1772790499621580500,6.88658056640625,-3.407742738723755,1.1823230981826782,0.17299814522266388
1772790499641613800,6.90661376953125,-2.843790054321289,1.22484290599823,0.1692100614309311
1772790499661646600,6.926646484375,-2.2800939083099365,0.8685050010681152,0.1502869725227356
1772790499681679600,6.9466796875,-1.7906546592712402,0.229721337556839,0.07879095524549484
1772790499701712600,6.966712646484375,-1.417331337928772,-0.5735636949539185,-0.09940914809703827
1772790499721745400,6.986745361328125,-1.1399147510528564,-1.3104898929595947,-0.3748854696750641
1772790499741778700,7.00677880859375,-0.8950146436691284,-1.9332700967788696,-0.6627926230430603
1772790499761811500,7.0268115234375,-0.737756609916687,-2.430532455444336,-0.9410995841026306
1772790499781844700,7.0468447265625,-0.6617225408554077,-2.773054599761963,-1.1357505321502686
1772790499801878800,7.066878662109375,-0.6938826441764832,-2.964905023574829,-1.2443969249725342
1772790499821911600,7.08691162109375,-0.8062235713005066,-2.9574944972991943,-1.3156760931015015
1772790499841944600,7.106944580078125,-0.9181804656982422,-2.7650058269500732,-1.3564866781234741
1772790499861977600,7.1269775390625,-0.9805857539176941,-2.4290621280670166,-1.305019736289978
1772790499882010600,7.1470107421875,-0.9774272441864014,-1.980454444885254,-1.1414638757705688
1772790499902043600,7.167043701171875,-0.90796959400177,-1.5089046955108643,-0.8412925601005554
1772790499922077000,7.187076904296875,-0.851333498954773,-1.1221983432769775,-0.45914095640182495
1772790499942110000,7.20710986328125,-0.8225729465484619,-0.8808333277702332,-0.09976121783256531
1772790499962143000,7.22714306640625,-0.7877039313316345,-0.7398676872253418,0.19988861680030823
1772790499982176000,7.247176025390625,-0.7110884785652161,-0.7093534469604492,0.4173032343387604
1772790500002209800,7.267209716796875,-0.6106194257736206,-0.7470417022705078,0.583686888217926
1772790500022243000,7.2872431640625,-0.46062859892845154,-0.8071830868721008,0.661483645439148
1772790500042275800,7.30727587890625,-0.2865654528141022,-0.8179779648780823,0.6472839713096619
1772790500062309000,7.32730908203125,-0.13670538365840912,-0.784017026424408,0.5551047921180725
1772790500082342000,7.347341796875,0.007929828017950058,-0.7068114876747131,0.38654425740242004
1772790500102375000,7.367375,0.14890052378177643,-0.6192970871925354,0.15216369926929474
1772790500122408000,7.387407958984375,0.2637847661972046,-0.5621858239173889,-0.10176284611225128
1772790500142441000,7.40744091796875,0.3614996075630188,-0.5201539993286133,-0.33602088689804077
1772790500162474000,7.427473876953125,0.45127958059310913,-0.4880032241344452,-0.49118784070014954
1772790500182507000,7.447507080078125,0.5518274903297424,-0.3889429569244385,-0.6127179861068726
1772790500202540800,7.467540771484375,0.6286386251449585,-0.29147231578826904,-0.6937947273254395
1772790500222574000,7.487573974609375,0.6208717823028564,-0.23106837272644043,-0.6148772835731506
1772790500242606800,7.50760693359375,0.6010900735855103,-0.20942538976669312,-0.41559934616088867
1772790500262639900,7.527639892578125,0.6034954786300659,-0.1729307621717453,-0.2537800669670105
1772790500282673000,7.5476728515625,0.67200767993927,-0.13039448857307434,-0.18098708987236023
1772790500302706000,7.567705810546875,0.8171302676200867,-0.14438700675964355,-0.1775745153427124
1772790500322739000,7.587739013671875,0.9825618267059326,-0.24072179198265076,-0.22711437940597534
1772790500342772000,7.60777197265625,1.0926121473312378,-0.3389658033847809,-0.26249128580093384
1772790500362805000,7.627804931640625,1.172463059425354,-0.4133414924144745,-0.2172497659921646
1772790500382838000,7.647838134765625,1.2545528411865234,-0.3994123637676239,-0.05698765069246292
1772790500402872000,7.6678720703125,1.3778998851776123,-0.2607772648334503,0.1796635091304779
1772790500422905000,7.687905029296875,1.4850702285766602,-0.059715792536735535,0.4073041081428528
1772790500442938000,7.707938232421875,1.5642428398132324,0.14449992775917053,0.550743043422699
1772790500462971000,7.727970947265625,1.560461163520813,0.30334949493408203,0.6391304135322571
1772790500483004200,7.748004150390625,1.4872833490371704,0.4405265152454376,0.6808730959892273
1772790500503037000,7.768036865234375,1.3959965705871582,0.5673025846481323,0.6763228178024292
1772790500523070200,7.7880703125,1.3109029531478882,0.7320771217346191,0.6019313931465149
1772790500543103000,7.80810302734375,1.2129853963851929,0.8744454979896545,0.527130126953125
1772790500563136000,7.828135986328125,1.0299221277236938,0.9731488823890686,0.47361284494400024
1772790500583170000,7.848170166015625,0.8097104430198669,1.0059564113616943,0.41486749053001404
1772790500603203000,7.868203125,0.6121419668197632,0.9700036644935608,0.37339088320732117
1772790500623235800,7.88823583984375,0.4451470971107483,0.8733903169631958,0.3178376257419586
1772790500643269000,7.90826904296875,0.34240129590034485,0.7325741052627563,0.21570725739002228
1772790500663302000,7.928302001953125,0.31598591804504395,0.5265122652053833,0.08260486274957657
1772790500683335200,7.948335205078125,0.38811472058296204,0.26143187284469604,-0.003457049373537302
1772790500703368000,7.968367919921875,0.5571367740631104,-0.035956136882305145,-0.017425328493118286
1772790500723401000,7.98840087890625,0.7506822347640991,-0.318664014339447,-0.004488225560635328
1772790500743431200,8.00843115234375,0.8573261499404907,-0.5717353820800781,-0.04057459160685539
1772790500763464000,8.0284638671875,0.8810253739356995,-0.7348631024360657,-0.11302641779184341
1772790500783497200,8.048497314453124,0.8003374338150024,-0.8400568962097168,-0.18603645265102386
1772790500803530000,8.068530029296875,0.6832531690597534,-0.831160843372345,-0.2698911428451538
1772790500823564000,8.08856396484375,0.5657249093055725,-0.7624803185462952,-0.36408740282058716
1772790500843597000,8.10859716796875,0.4428328275680542,-0.6193716526031494,-0.431940495967865
1772790500863630000,8.128630126953125,0.28603413701057434,-0.45519548654556274,-0.474643737077713
1772790500883662800,8.148662841796876,0.07534908503293991,-0.3160189390182495,-0.49901753664016724
1772790500903696100,8.168696044921875,-0.17061008512973785,-0.2499656230211258,-0.5334399342536926
1772790500923728100,8.18872802734375,-0.4536631107330322,-0.2474132627248764,-0.5844104290008545
1772790500943761200,8.20876123046875,-0.7595705389976501,-0.24900981783866882,-0.6352358460426331
1772790500963794000,8.2287939453125,-1.031265139579773,-0.2532743513584137,-0.6881376504898071
1772790500983827200,8.2488271484375,-1.2169157266616821,-0.2665672302246094,-0.7562479972839355
1772790501003860000,8.26885986328125,-1.3495291471481323,-0.24951475858688354,-0.9253597855567932
1772790501023894000,8.28889404296875,-1.4411909580230713,-0.1868697553873062,-1.2653120756149292
1772790501043927300,8.30892724609375,-1.6052578687667847,-0.18738800287246704,-1.476867437362671
1772790501063960000,8.3289599609375,-1.7535253763198853,-0.2789756953716278,-1.4530904293060303
1772790501083993000,8.3489931640625,-1.820631504058838,-0.3869783282279968,-1.3064759969711304
1772790501104026000,8.369026123046876,-1.8350143432617188,-0.47866058349609375,-1.1481249332427979
1772790501124059100,8.38905908203125,-1.8485392332077026,-0.511147677898407,-1.0678783655166626
1772790501144092200,8.409092041015626,-1.8743793964385986,-0.5333768129348755,-1.0512261390686035
1772790501164127200,8.429127197265625,-1.8965542316436768,-0.5748230814933777,-1.051708459854126
1772790501184161300,8.449161376953125,-1.8948087692260742,-0.6287164092063904,-1.0153073072433472
1772790501204194000,8.469194091796876,-1.8502476215362549,-0.6998278498649597,-0.9506781697273254
1772790501224227000,8.48922705078125,-1.768206000328064,-0.7285497784614563,-0.8979848623275757
1772790501244260000,8.509260009765624,-1.6336003541946411,-0.6959273815155029,-0.8721189498901367
1772790501264293000,8.529293212890625,-1.4398702383041382,-0.6992579698562622,-0.884873628616333
1772790501284326100,8.549326171875,-1.1823164224624634,-0.7836122512817383,-0.9473966360092163
1772790501304359200,8.569359130859375,-0.9097509980201721,-0.9375250935554504,-1.0887748003005981
1772790501324392200,8.58939208984375,-0.6743168830871582,-1.128461241722107,-1.2735726833343506
1772790501344425200,8.60942529296875,-0.5187691450119019,-1.319641351699829,-1.3865095376968384
1772790501364459000,8.629458984375,-0.43755364418029785,-1.442097783088684,-1.3815139532089233
1772790501384492000,8.649491943359376,-0.3642945885658264,-1.4891456365585327,-1.2934060096740723
1772790501404525000,8.669525146484375,-0.3077828586101532,-1.459743857383728,-1.1229562759399414
1772790501424558000,8.68955810546875,-0.30913999676704407,-1.396560549736023,-0.8969196081161499
1772790501444591000,8.709591064453125,-0.352588415145874,-1.2960667610168457,-0.7116038203239441
1772790501464624000,8.7296240234375,-0.433067262172699,-1.2063323259353638,-0.526914119720459
1772790501484657200,8.7496572265625,-0.5346250534057617,-1.1705280542373657,-0.3292572498321533
1772790501504690200,8.769690185546875,-0.6456463932991028,-1.1143598556518555,-0.1404804140329361
1772790501524723000,8.789722900390625,-0.7349703907966614,-1.0283477306365967,0.03142423555254936
1772790501544756200,8.809756103515625,-0.7902253866195679,-0.8780362010002136,0.16540972888469696
1772790501564790000,8.8297900390625,-0.8211425542831421,-0.7352026104927063,0.26081135869026184
1772790501584823000,8.849822998046875,-0.8182247877120972,-0.611190676689148,0.3034978210926056
1772790501604856000,8.86985595703125,-0.7908011674880981,-0.4985741078853607,0.2904944121837616
1772790501624889000,8.88988916015625,-0.7633271813392639,-0.40215277671813965,0.23723278939723969
1772790501644922000,8.909922119140624,-0.7186595797538757,-0.3407714366912842,0.1736879050731659
1772790501664955100,8.929955078125,-0.6723118424415588,-0.36384186148643494,0.09506606310606003
1772790501684988000,8.94998779296875,-0.6345034241676331,-0.4560554027557373,0.01329636387526989
1772790501705021200,8.970021240234376,-0.6090894341468811,-0.5882424712181091,-0.0765424445271492
1772790501725054000,8.990053955078125,-0.5695252418518066,-0.678503155708313,-0.18437303602695465
1772790501745088000,9.010087890625,-0.5050123333930969,-0.7173067331314087,-0.24357616901397705
1772790501765121300,9.030121337890625,-0.420475035905838,-0.6782240271568298,-0.27893203496932983
1772790501785154000,9.050154052734374,-0.26706579327583313,-0.5475839972496033,-0.34995216131210327
1772790501805187300,9.070187255859375,-0.061466556042432785,-0.33141228556632996,-0.48015809059143066
1772790501825220000,9.09022021484375,0.07343266904354095,-0.23492568731307983,-0.5005136728286743
1772790501845253000,9.110253173828125,0.1041485071182251,-0.3007712960243225,-0.4026968479156494
1772790501865286100,9.1302861328125,0.15701571106910706,-0.38908302783966064,-0.3687029182910919
1772790501885319000,9.15031884765625,0.24888092279434204,-0.44058725237846375,-0.3986443281173706
1772790501905352200,9.170352294921875,0.3914777636528015,-0.4769532382488251,-0.43533840775489807
1772790501925385700,9.1903857421875,0.5637238025665283,-0.5180495381355286,-0.4374881088733673
1772790501945419800,9.210419677734375,0.7019176483154297,-0.5631030201911926,-0.4009737968444824
1772790501965452500,9.23045263671875,0.7539457082748413,-0.5902276039123535,-0.36439234018325806
1772790501985485800,9.25048583984375,0.7523123621940613,-0.5996759533882141,-0.31074216961860657
1772790502005518600,9.2705185546875,0.7397196292877197,-0.5632417798042297,-0.23064838349819183
1772790502025552000,9.2905517578125,0.7520045042037964,-0.47297608852386475,-0.11190229654312134
1772790502045584600,9.310584716796875,0.8028983473777771,-0.35378310084342957,0.05663079023361206
1772790502065618000,9.330617919921876,0.8762170076370239,-0.20754733681678772,0.27465179562568665
1772790502085650700,9.350650634765625,0.9629747867584229,-0.06839609891176224,0.5232048630714417
1772790502105683700,9.37068359375,1.0253833532333374,0.06545144319534302,0.7189168930053711
1772790502125716700,9.390716796875,1.0341522693634033,0.2095164805650711,0.8000069260597229
1772790502145749800,9.410749755859374,0.9559006690979004,0.3634647727012634,0.7520649433135986
1772790502165783600,9.430783447265625,0.8195414543151855,0.5119764804840088,0.5815179944038391
1772790502185816800,9.45081689453125,0.7008313536643982,0.6312589049339294,0.3812999427318573
1772790502205849600,9.470849609375,0.6218537092208862,0.6862601041793823,0.2535579800605774
1772790502225883000,9.4908828125,0.5854097008705139,0.7255936861038208,0.20258958637714386
1772790502245915600,9.51091552734375,0.5548278093338013,0.7139753699302673,0.22417105734348297
1772790502265948700,9.53094873046875,0.5638063549995422,0.6639004945755005,0.3483593165874481
1772790502285981700,9.550981689453126,0.608492374420166,0.49775251746177673,0.48540636897087097
1772790502306014700,9.5710146484375,0.6674827337265015,0.3032216727733612,0.45449987053871155
1772790502326047700,9.5910478515625,0.7861044406890869,0.04572780802845955,0.3004642128944397
1772790502346081800,9.611081787109375,0.9572402238845825,-0.31481707096099854,0.11048603057861328
1772790502366114600,9.631114501953125,1.1433136463165283,-0.710558295249939,-0.05170553922653198
1772790502386147800,9.65114794921875,1.3390262126922607,-1.0274931192398071,-0.13990357518196106
1772790502406180600,9.6711806640625,1.50288724899292,-1.2134519815444946,-0.139479860663414
1772790502426213600,9.691213623046876,1.6108859777450562,-1.3152081966400146,-0.08416520804166794
1772790502446246700,9.71124658203125,1.6120766401290894,-1.3125578165054321,-0.03015230968594551
1772790502466279700,9.73127978515625,1.4781132936477661,-1.2202446460723877,-0.005689577199518681
1772790502486312700,9.751312744140625,1.1267094612121582,-1.097225308418274,0.04111521318554878
1772790502506345700,9.771345703125,0.6988512873649597,-0.9420663118362427,0.03281014412641525
1772790502526378800,9.791378662109375,0.2811880111694336,-0.7197445631027222,-0.09262420982122421
1772790502546411800,9.811411865234374,-0.10047787427902222,-0.4788054823875427,-0.3382536768913269
1772790502566445800,9.83144580078125,-0.4257265329360962,-0.27769899368286133,-0.6209633946418762
1772790502586478600,9.851478515625,-0.6705504059791565,-0.15568946301937103,-0.8883509039878845
1772790502606511900,9.871511962890626,-0.8437435030937195,-0.06912261247634888,-1.122767686843872
1772790502626544600,9.891544677734375,-1.0237680673599243,-0.07418900728225708,-1.3140180110931396
1772790502646578000,9.911577880859374,-1.2227128744125366,-0.12390250712633133,-1.460583209991455
1772790502666610700,9.931610595703125,-1.4058492183685303,-0.16005517542362213,-1.5535906553268433
1772790502686643700,9.951643798828124,-1.5291160345077515,-0.0655561089515686,-1.698244333267212
1772790502706676700,9.9716767578125,-1.5797187089920044,0.11438782513141632,-1.9294804334640503
1772790502726709800,9.991709716796874,-1.6295338869094849,0.21121050417423248,-1.9699764251708984
1772790502746742800,10.01174267578125,-1.690319299697876,0.11040294170379639,-1.8006007671356201
1772790502766776800,10.03177685546875,-1.692945122718811,-0.020143883302807808,-1.5928534269332886
1772790502786809600,10.0518095703125,-1.6433730125427246,-0.13788169622421265,-1.4608157873153687
1772790502806843000,10.0718427734375,-1.570725440979004,-0.21478714048862457,-1.3733069896697998
1772790502826875600,10.091875732421874,-1.52663254737854,-0.3326687514781952,-1.3061110973358154
1772790502846909000,10.111908935546875,-1.5518732070922852,-0.4860900044441223,-1.2375794649124146
1772790502866941700,10.131941650390624,-1.6123254299163818,-0.6334882378578186,-1.1647961139678955
1772790502886974700,10.151974609375,-1.6696430444717407,-0.7204939723014832,-1.068063735961914
1772790502907007700,10.1720078125,-1.7036688327789307,-0.6947801113128662,-0.9692854285240173
1772790502927040500,10.19204052734375,-1.6582266092300415,-0.5972857475280762,-0.9155284762382507
1772790502947073800,10.21207373046875,-1.4957101345062256,-0.5204226970672607,-0.9257289171218872
1772790502967107600,10.232107666015626,-1.242540955543518,-0.5247266292572021,-1.0222834348678589
1772790502987140600,10.252140625,-0.9409094452857971,-0.6675772666931152,-1.1619800329208374
1772790503007173600,10.272173583984374,-0.6337679028511047,-0.974012017250061,-1.3206688165664673
1772790503027206700,10.29220654296875,-0.385991632938385,-1.3089582920074463,-1.4167473316192627
1772790503047239400,10.312239501953124,-0.16061604022979736,-1.5295330286026,-1.4249600172042847
1772790503067272700,10.332272705078125,0.030792800709605217,-1.6200469732284546,-1.336681604385376
1772790503087305500,10.352305419921874,0.14499419927597046,-1.6292303800582886,-1.1690118312835693
1772790503107338800,10.3723388671875,0.20712682604789734,-1.6436587572097778,-0.9583179950714111
1772790503127371500,10.39237158203125,0.22461020946502686,-1.6561039686203003,-0.7404940724372864
1772790503147404500,10.412404541015626,0.1681802123785019,-1.6248470544815063,-0.5351536870002747
1772790503167438800,10.43243896484375,0.011835887096822262,-1.5366636514663696,-0.3999039828777313
1772790503187471600,10.4524716796875,-0.17326340079307556,-1.3820314407348633,-0.35016173124313354
1772790503207504600,10.472504638671875,-0.35933738946914673,-1.2004995346069336,-0.33140429854393005
1772790503227537700,10.49253759765625,-0.5393140912055969,-0.98231041431427,-0.35706785321235657
1772790503247570700,10.51257080078125,-0.7306944131851196,-0.7987275719642639,-0.4126448333263397
1772790503267603700,10.532603759765625,-0.9201253652572632,-0.6624512076377869,-0.4885976314544678
1772790503287636700,10.55263671875,-1.0973272323608398,-0.5451482534408569,-0.5102249383926392
1772790503307669800,10.572669677734375,-1.2449671030044556,-0.46049755811691284,-0.42419496178627014
1772790503327702800,10.592702880859376,-1.3469622135162354,-0.42350438237190247,-0.2828703224658966
1772790503347735600,10.612735595703125,-1.4194751977920532,-0.41872933506965637,-0.14038720726966858
1772790503367769600,10.63276953125,-1.4893094301223755,-0.4474896192550659,-0.017135843634605408
1772790503387802600,10.652802734375,-1.5508008003234863,-0.4855744242668152,0.05997731536626816
1772790503407835600,10.672835693359374,-1.5771714448928833,-0.4558298587799072,0.10891769826412201
1772790503427868700,10.69286865234375,-1.5763630867004395,-0.38522037863731384,0.14811277389526367
1772790503447901700,10.712901611328125,-1.4983305931091309,-0.2845859229564667,0.1540641337633133
1772790503467934700,10.732934814453126,-1.3705705404281616,-0.1812182515859604,0.1369762271642685
1772790503487967700,10.7529677734375,-1.1953494548797607,-0.03639689087867737,0.07557971030473709
1772790503508000500,10.77300048828125,-0.9742357134819031,0.17399416863918304,-0.11841905117034912
1772790503528033800,10.79303369140625,-0.7597466111183167,0.3812522888183594,-0.3436359167098999
1772790503548066600,10.813066650390626,-0.6783505082130432,0.45926371216773987,-0.37428730726242065
1772790503568100600,10.8331005859375,-0.6461606621742249,0.46651071310043335,-0.2762230634689331
1772790503588133600,10.853133544921874,-0.5562174320220947,0.506803572177887,-0.10824365168809891
1772790503608166700,10.873166748046875,-0.3620556890964508,0.5120944380760193,0.12218476831912994
1772790503628199700,10.89319970703125,-0.012470518238842487,0.5076581835746765,0.35474449396133423
1772790503648232700,10.913232666015626,0.40370431542396545,0.4994337856769562,0.5277426242828369
1772790503668265500,10.933265380859375,0.7564671635627747,0.5251697897911072,0.6181785464286804
1772790503688298800,10.953298828125,0.9982103109359741,0.6182147860527039,0.665206789970398
1772790503708331500,10.97333154296875,1.1668781042099,0.7758115530014038,0.6847714185714722
1772790503728364800,10.99336474609375,1.3266627788543701,1.029673457145691,0.7213712334632874
1772790503748397600,11.0133974609375,1.5345957279205322,1.2972302436828613,0.8046988844871521
1772790503768430600,11.0334306640625,1.7800259590148926,1.390707015991211,0.9051341414451599
1772790503788464600,11.053464599609375,2.055539608001709,1.2873491048812866,0.9444780945777893
1772790503808497700,11.07349755859375,2.329508066177368,0.9921582341194153,0.9569648504257202
1772790503828530400,11.093530517578126,2.436084270477295,0.6331921219825745,0.8509862422943115
1772790503848563700,11.113563720703125,2.4341673851013184,0.36478275060653687,0.5754300355911255
1772790503868596500,11.133596435546876,2.421605110168457,0.21689023077487946,0.33838123083114624
1772790503888629800,11.153629638671875,2.4375534057617188,0.3423711955547333,0.21060810983181
1772790503908662500,11.17366259765625,2.4773566722869873,0.7941122651100159,0.093173086643219
1772790503928695600,11.193695556640625,2.5045077800750732,1.2688742876052856,-0.1320035755634308
1772790503948728300,11.213728271484374,2.554124116897583,1.4158519506454468,-0.3679924011230469
1772790503968761300,11.23376123046875,2.5870039463043213,1.3370323181152344,-0.511447012424469
1772790503988795400,11.25379541015625,2.712890386581421,1.154538869857788,-0.5283200144767761
1772790504008828400,11.273828369140626,2.9480762481689453,0.9478232860565186,-0.42122766375541687
1772790504028861200,11.293861083984375,3.2030608654022217,0.6288450360298157,-0.2181275337934494
1772790504048894500,11.31389453125,3.3187317848205566,0.1765177845954895,-0.015634620562195778
1772790504068927200,11.33392724609375,3.274505615234375,-0.2769003212451935,0.10737279802560806
1772790504088960500,11.35396044921875,3.09576416015625,-0.7427210211753845,0.19484299421310425
1772790504108993300,11.3739931640625,2.7648096084594727,-1.1551575660705566,0.2462420016527176
1772790504129026300,11.3940263671875,2.338383197784424,-1.471193552017212,0.27457964420318604
1772790504149059300,11.414059326171875,1.868025541305542,-1.6502485275268555,0.30365070700645447
1772790504169092400,11.43409228515625,1.3903673887252808,-1.6510049104690552,0.3653590679168701
1772790504189126400,11.45412646484375,0.9058782458305359,-1.4931271076202393,0.4337993860244751
1772790504209159400,11.474159423828125,0.41289329528808594,-1.165664792060852,0.5155355334281921
1772790504229192400,11.4941923828125,0.001558748190291226,-0.7159647345542908,0.5395764112472534
1772790504249225500,11.5142255859375,-0.37008485198020935,-0.1810142546892166,0.4878482222557068
1772790504269258500,11.534258544921874,-0.7971019744873047,0.24129091203212738,0.37496110796928406
1772790504289291300,11.554291259765625,-1.3128862380981445,0.5311789512634277,0.3390513062477112
1772790504309324500,11.574324462890624,-1.8085010051727295,0.7428834438323975,0.3728225827217102
1772790504329357300,11.594357421875,-2.1729378700256348,0.9290059208869934,0.3437650799751282
1772790504349390600,11.614390625,-2.418440341949463,1.0343259572982788,0.00726430444046855
1772790504369423400,11.63442333984375,-2.7816858291625977,0.8683505654335022,-0.5170878767967224
1772790504389457400,11.65445751953125,-3.3580031394958496,0.42088356614112854,-1.0153080224990845
1772790504409490400,11.674490478515626,-4.079581260681152,-0.23464445769786835,-1.4214835166931152
1772790504429523500,11.6945234375,-4.6811628341674805,-0.7467937469482422,-1.7706923484802246
1772790504449556200,11.71455615234375,-5.1491804122924805,-1.013778567314148,-2.063026189804077
1772790504469589500,11.734589599609375,-5.5260419845581055,-0.9653242230415344,-2.271775007247925
1772790504489622300,11.754622314453124,-5.701980113983154,-0.7812358736991882,-2.2712268829345703
1772790504509655600,11.774655517578125,-5.7154459953308105,-0.5170655250549316,-1.9559240341186523
1772790504529688300,11.794688232421874,-5.533792018890381,-0.10030742734670639,-1.4088481664657593
1772790504549721600,11.8147216796875,-5.094174385070801,0.3211628496646881,-0.8164793848991394
1772790504569754400,11.83475439453125,-4.489720821380615,0.7987557649612427,-0.27540892362594604
1772790504589788400,11.854788330078126,-3.6403844356536865,1.1866419315338135,0.23524340987205505
1772790504609821400,11.874821533203125,-2.4290900230407715,1.1181739568710327,0.6905826926231384
1772790504629854500,11.8948544921875,-1.2006124258041382,0.711085855960846,0.885169506072998
1772790504649887200,11.91488720703125,-0.21396900713443756,0.08356387168169022,0.5860615968704224
1772790504669920500,11.93492041015625,0.3801175057888031,-0.6796959638595581,-0.03145726025104523
1772790504689953300,11.954953369140625,0.5632691979408264,-1.5710111856460571,-0.6342448592185974
1772790504709986600,11.974986572265625,0.42854124307632446,-2.4765214920043945,-1.0748214721679688
1772790504730019300,11.995019287109375,0.1939132809638977,-3.2455310821533203,-1.4076883792877197
1772790504750050300,12.01505029296875,0.01823705993592739,-3.777247905731201,-1.5787197351455688
1772790504770083300,12.035083251953125,-0.08756313472986221,-4.044106960296631,-1.5490039587020874
1772790504790116400,12.055116455078124,-0.13339747488498688,-3.973546028137207,-1.3740776777267456
1772790504810149400,12.0751494140625,-0.14496012032032013,-3.6550989151000977,-1.0586265325546265
1772790504830183400,12.095183349609375,-0.17574173212051392,-3.189160108566284,-0.6695613265037537
1772790504850216400,12.115216552734376,-0.2489003688097,-2.625490427017212,-0.26659122109413147
1772790504870249500,12.13524951171875,-0.3471078872680664,-1.9784003496170044,0.11469648778438568
1772790504890282500,12.155282470703124,-0.39080849289894104,-1.3046990633010864,0.4760877192020416
1772790504910315500,12.1753154296875,-0.3989306092262268,-0.6962312459945679,0.8532419204711914
1772790504930348800,12.195348876953124,-0.35782286524772644,-0.17944805324077606,1.265700340270996
1772790504950381800,12.2153818359375,-0.28126096725463867,0.2599618136882782,1.7232564687728882
1772790504970414800,12.235414794921875,-0.10375621914863586,0.6408820152282715,2.1496737003326416
1772790504990447900,12.25544775390625,0.18290802836418152,0.9425488710403442,2.4917871952056885
1772790505010481000,12.27548095703125,0.4185280203819275,1.0782520771026611,2.7175538539886475
1772790505030515000,12.295514892578124,0.459551602602005,1.0872187614440918,2.6105196475982666
1772790505050547700,12.315547607421875,0.3643507957458496,0.8524128794670105,2.087185859680176
1772790505070581000,12.3355810546875,0.24617408215999603,0.44624245166778564,1.3138952255249023
1772790505090613800,12.35561376953125,0.20179544389247894,0.02058596909046173,0.5027621984481812
1772790505110647000,12.37564697265625,0.3464876413345337,-0.1822233349084854,-0.354983389377594
1772790505130679800,12.3956796875,0.4875033497810364,-0.23611906170845032,-0.9799359440803528
1772790505150713000,12.415713134765625,0.47787976264953613,-0.185371994972229,-1.270882248878479
1772790505170745900,12.435745849609376,0.3935025632381439,0.03580353781580925,-1.2713813781738281
1772790505190779000,12.45577880859375,0.3608894944190979,0.4278796911239624,-1.0284582376480103
1772790505210812000,12.47581201171875,0.482564777135849,0.870535671710968,-0.7014065980911255
1772790505230846000,12.495845947265625,0.7426149845123291,1.2258352041244507,-0.3885815739631653
1772790505250878700,12.515878662109374,1.0455596446990967,1.4129436016082764,-0.16024427115917206
1772790505270912000,12.535912109375,1.2545433044433594,1.463128924369812,-0.06692203879356384
1772790505290944800,12.55594482421875,1.3490729331970215,1.395340919494629,-0.047866590321063995
1772790505310978000,12.57597802734375,1.3811707496643066,1.287153959274292,-0.06739821285009384
1772790505331010800,12.5960107421875,1.3831454515457153,1.1936482191085815,-0.10387419909238815
1772790505351043800,12.6160439453125,1.405890703201294,1.2133958339691162,-0.14558516442775726
1772790505371076900,12.636076904296875,1.478868842124939,1.2935253381729126,-0.2023051679134369
1772790505391110000,12.65610986328125,1.5883632898330688,1.4293816089630127,-0.24549737572669983
1772790505411143000,12.676142822265625,1.6528089046478271,1.5717859268188477,-0.21882502734661102
1772790505431177000,12.696177001953124,1.6461808681488037,1.7130533456802368,-0.06007345765829086
1772790505451209700,12.716209716796875,1.592162013053894,1.8180873394012451,0.1623191386461258
1772790505471243000,12.736242919921875,1.5281487703323364,1.8220927715301514,0.34363165497779846
1772790505491275800,12.75627587890625,1.5030391216278076,1.7102320194244385,0.4078175723552704
1772790505511308800,12.776308837890625,1.48703134059906,1.5060234069824219,0.34135785698890686
1772790505531341800,12.796341796875,1.4849789142608643,1.2192068099975586,0.1713336706161499
1772790505551374800,12.816374755859375,1.477621078491211,0.8905885219573975,-0.03785869851708412
1772790505571408000,12.836407958984376,1.498441457748413,0.5013142228126526,-0.24200011789798737
1772790505591441000,12.85644091796875,1.515403389930725,0.04441726580262184,-0.38079848885536194
1772790505611474000,12.876473876953124,1.4971617460250854,-0.43461695313453674,-0.48335522413253784
1772790505631508000,12.896508056640625,1.4482113122940063,-0.8411141633987427,-0.6088926196098328
1772790505651540700,12.916540771484375,1.3790109157562256,-1.1708297729492188,-0.6732268929481506
1772790505671573800,12.93657373046875,1.2849680185317993,-1.477825403213501,-0.6612599492073059
1772790505691606800,12.956606689453125,1.0945277214050293,-1.6891027688980103,-0.6109533905982971
1772790505711639800,12.976639892578126,0.7903811931610107,-1.7321878671646118,-0.5991843342781067
1772790505731672800,12.9966728515625,0.4436914324760437,-1.6067068576812744,-0.6294493079185486
1772790505751705900,13.016705810546876,0.1082063615322113,-1.3571908473968506,-0.6021322011947632
1772790505771739000,13.03673876953125,-0.1621825098991394,-0.9799809455871582,-0.5054594278335571
1772790505791772000,13.05677197265625,-0.3620873689651489,-0.5443511605262756,-0.3376193046569824
1772790505811804700,13.0768046875,-0.4757508337497711,-0.12574994564056396,-0.20127426087856293
1772790505831838700,13.096838623046875,-0.5815829634666443,0.2081151157617569,-0.32146456837654114
1772790505851872000,13.1168720703125,-0.8610867857933044,0.4005412757396698,-0.4203365743160248
1772790505871904800,13.13690478515625,-1.2218780517578125,0.4435337781906128,-0.3439890742301941
1772790505891938000,13.15693798828125,-1.552118182182312,0.3988187611103058,-0.17764616012573242
1772790505911970800,13.176970703125,-1.8702479600906372,0.2412291318178177,-0.029316343367099762
1772790505932003600,13.197003662109376,-2.1803951263427734,-0.03862568736076355,0.024285100400447845
1772790505952036400,13.217036376953125,-2.497288703918457,-0.422826886177063,-0.07222200185060501
1772790505972069400,13.2370693359375,-2.7745251655578613,-0.8146005272865295,-0.22463417053222656
1772790505992102400,13.257102294921875,-2.9918642044067383,-1.0874613523483276,-0.30965134501457214
1772790506012135400,13.277135498046874,-3.101461410522461,-1.2367488145828247,-0.30207329988479614
1772790506032168400,13.29716845703125,-3.067730188369751,-1.2015591859817505,-0.25172197818756104
1772790506052202500,13.317202392578125,-2.915728807449341,-0.9143801331520081,-0.21870331466197968
1772790506072235300,13.3372353515625,-2.6282546520233154,-0.42017385363578796,-0.20698434114456177
1772790506092268500,13.3572685546875,-2.2515711784362793,0.14382241666316986,-0.14195367693901062
1772790506112301300,13.37730126953125,-1.8345376253128052,0.5644471645355225,-0.007979629561305046
1772790506132334600,13.39733447265625,-1.4151430130004883,0.7371235489845276,0.1168251559138298
1772790506152367400,13.417367431640624,-1.0620648860931396,0.5922699570655823,0.19687683880329132
1772790506172400400,13.437400390625,-0.8123824000358582,0.17424450814723969,0.18165554106235504
1772790506192433400,13.457433349609374,-0.633682906627655,-0.4030963182449341,0.07812649011611938
1772790506212466400,13.477466552734375,-0.4688204824924469,-0.9942438006401062,-0.07806790620088577
1772790506232499500,13.49749951171875,-0.3621038794517517,-1.500922441482544,-0.21663297712802887
1772790506252533500,13.517533447265626,-0.328273743391037,-1.872857689857483,-0.32494133710861206
1772790506272566300,13.537566162109375,-0.3279573619365692,-2.1170296669006348,-0.37583115696907043
1772790506292599600,13.557599609375,-0.38634878396987915,-2.1358258724212646,-0.37705352902412415
1772790506312632300,13.57763232421875,-0.41501396894454956,-1.9396419525146484,-0.36012569069862366
1772790506332665300,13.597665283203124,-0.4006643295288086,-1.5140217542648315,-0.2810995876789093
1772790506352698400,13.617698486328125,-0.35614559054374695,-0.9460514783859253,-0.12229715287685394
1772790506372731400,13.6377314453125,-0.298310250043869,-0.3090880811214447,0.0833233892917633
1772790506392764400,13.657764404296875,-0.2100059688091278,0.2167229950428009,0.3026501536369324
1772790506412797400,13.67779736328125,-0.13122273981571198,0.6024943590164185,0.4817067086696625
1772790506432830200,13.697830322265625,-0.027607925236225128,0.8433325886726379,0.6371037364006042
1772790506452864500,13.717864501953125,0.11555296182632446,0.9627566933631897,0.7190992832183838
1772790506472897300,13.737897216796876,0.27535009384155273,0.9800068140029907,0.715266764163971
1772790506492930300,13.757930419921875,0.41475430130958557,0.882485568523407,0.6153300404548645
1772790506512963300,13.77796337890625,0.5206413269042969,0.701216995716095,0.4294792115688324
1772790506532996400,13.797996337890625,0.5977198481559753,0.4419254660606384,0.11961933970451355
1772790506553029400,13.818029296875,0.7037551999092102,0.22155369818210602,-0.29762157797813416
1772790506573062400,13.8380625,0.8590835332870483,0.13819356262683868,-0.7717031240463257
1772790506593095400,13.858095458984375,0.9766994118690491,0.12675794959068298,-1.069500207901001
1772790506613128400,13.87812841796875,0.9910905957221985,0.08882174640893936,-1.0889476537704468
1772790506633161200,13.8981611328125,0.9455822110176086,0.10114339739084244,-0.9097704291343689
1772790506653195300,13.9181953125,0.9558836221694946,0.18605881929397583,-0.6919947266578674
1772790506673228500,13.938228515625,1.0730091333389282,0.32771554589271545,-0.5432731509208679
1772790506693261300,13.95826123046875,1.2635180950164795,0.4785178601741791,-0.4393653869628906
1772790506713294600,13.978294677734375,1.414111614227295,0.5921618342399597,-0.34584128856658936
1772790506733327400,13.998327392578124,1.4359588623046875,0.6925137639045715,-0.23084492981433868
1772790506753360400,14.0183603515625,1.386168360710144,0.7845606207847595,-0.06349961459636688
1772790506773393400,14.038393310546875,1.3303011655807495,0.8804599642753601,0.1263217180967331
1772790506793426400,14.058426513671876,1.2819037437438965,0.9932445883750916,0.3283320665359497
1772790506813459500,14.07845947265625,1.2310163974761963,1.0949597358703613,0.5491217374801636
1772790506833492500,14.098492431640626,1.182469129562378,1.1987258195877075,0.7805594801902771
1772790506853525500,14.118525390625,1.155140995979309,1.2896379232406616,0.9997730255126953
1772790506873559600,14.1385595703125,1.171487808227539,1.393041729927063,1.1513116359710693
1772790506893592300,14.15859228515625,1.2299902439117432,1.4851261377334595,1.2122751474380493
1772790506913625600,14.17862548828125,1.2915143966674805,1.5394799709320068,1.245843529701233
1772790506933658000,14.198658203125,1.317263126373291,1.5339986085891724,1.281630516052246
1772790506953691100,14.218691162109375,1.263838768005371,1.5209957361221313,1.3685566186904907
1772790506973724200,14.23872412109375,1.116118311882019,1.5417885780334473,1.4724196195602417
1772790506993757200,14.258757080078125,0.9641889333724976,1.5594512224197388,1.5034606456756592
1772790507013790200,14.278790283203126,0.9079445600509644,1.5463199615478516,1.4402875900268555
1772790507033823200,14.2988232421875,0.968031644821167,1.4437930583953857,1.2518640756607056
1772790507053856300,14.318856201171876,1.0726819038391113,1.2663134336471558,0.9803735017776489
1772790507073889300,14.33888916015625,1.2292661666870117,0.9760842323303223,0.7185506820678711
1772790507093923000,14.358923095703124,1.3573894500732422,0.5804828405380249,0.5103769898414612
1772790507113956000,14.3789560546875,1.402052879333496,0.11967393755912781,0.36593642830848694
1772790507133989000,14.398989013671875,1.3556350469589233,-0.34182578325271606,0.24954883754253387
1772790507154022100,14.419022216796876,1.2695387601852417,-0.7471011281013489,0.11550076305866241
1772790507174055200,14.43905517578125,1.1567072868347168,-1.0660545825958252,0.026034530252218246
1772790507194088200,14.459088134765626,1.0005770921707153,-1.2549374103546143,-0.03596652299165726
1772790507214121200,14.479121337890625,0.7962278723716736,-1.2931157350540161,-0.10007759928703308
1772790507234154200,14.499154296875,0.5614292621612549,-1.1983602046966553,-0.14591006934642792
1772790507254187000,14.51918701171875,0.31292781233787537,-0.9755741953849792,-0.17826774716377258
1772790507274220300,14.53922021484375,0.10766094923019409,-0.7069800496101379,-0.14731541275978088
1772790507294254000,14.559254150390625,-0.05089407414197922,-0.4764384627342224,-0.05756928771734238
1772790507314287000,14.579287109375,-0.0774465873837471,-0.21211998164653778,-0.1122884601354599
1772790507334320000,14.599320068359376,-0.11071159690618515,0.020121779292821884,-0.5188484787940979
1772790507354353200,14.619353271484375,-0.38673147559165955,0.08189566433429718,-0.7876107096672058
1772790507374386200,14.63938623046875,-0.7068860530853271,0.004350007511675358,-0.7014108300209045
1772790507394419200,14.659419189453125,-0.9535112380981445,-0.06943526864051819,-0.4783197045326233
1772790507414452000,14.679451904296876,-1.205877423286438,-0.16687047481536865,-0.336753785610199
1772790507434485200,14.6994853515625,-1.4996994733810425,-0.3101266920566559,-0.3146974742412567
1772790507454518000,14.71951806640625,-1.771304965019226,-0.485209584236145,-0.3414425551891327
1772790507474551300,14.73955126953125,-2.0089786052703857,-0.6700965762138367,-0.38946014642715454
1772790507494585000,14.759585205078125,-2.19760799407959,-0.7800739407539368,-0.5373412370681763
1772790507514618000,14.7796181640625,-2.2874410152435303,-0.7858889698982239,-0.762502133846283
1772790507534651100,14.799651123046875,-2.248844623565674,-0.6425350308418274,-0.926125705242157
1772790507554684200,14.81968408203125,-2.098067045211792,-0.24357856810092926,-0.997551441192627
1772790507574717000,14.839717041015625,-1.8452973365783691,0.3435685634613037,-1.039894938468933
1772790507594750200,14.859750244140624,-1.515575647354126,0.8516741394996643,-1.0372111797332764
1772790507614783000,14.879782958984375,-1.1710734367370605,1.0616086721420288,-0.9183748364448547
1772790507634816300,14.899816162109374,-0.8785209059715271,0.8601328730583191,-0.704893171787262
1772790507654849000,14.91984912109375,-0.6768184304237366,0.311273455619812,-0.5177374482154846
1772790507674882000,14.939882080078124,-0.5223148465156555,-0.3879445493221283,-0.46527183055877686
1772790507694915000,14.9599150390625,-0.34934040904045105,-0.9772091507911682,-0.5416829586029053
1772790507714949000,14.97994921875,-0.2144332081079483,-1.4158227443695068,-0.5959597826004028
1772790507734982100,14.999982177734376,-0.15629586577415466,-1.752846598625183,-0.6133246421813965
1772790507755015200,15.02001513671875,-0.19519852101802826,-1.9599286317825317,-0.5954639315605164
1772790507775048200,15.040048095703124,-0.3002761900424957,-2.080876588821411,-0.5532573461532593
1772790507795081200,15.060081298828125,-0.4495953917503357,-2.0773303508758545,-0.4883457124233246
1772790507815114200,15.0801142578125,-0.5845286846160889,-1.9717192649841309,-0.412295937538147
1772790507835147300,15.100147216796875,-0.68829745054245,-1.7519402503967285,-0.31866347789764404
1772790507855180300,15.12018017578125,-0.761142909526825,-1.4497164487838745,-0.20646874606609344
1772790507875213000,15.140213134765625,-0.8095285296440125,-1.071213722229004,-0.09517978131771088
1772790507895246300,15.160246337890625,-0.870682954788208,-0.6896868348121643,0.047388821840286255
1772790507915280100,15.180280029296876,-0.9637146592140198,-0.375042587518692,0.2091606706380844
1772790507935313700,15.200313720703125,-1.1003265380859375,-0.16932697594165802,0.34314510226249695
1772790507955347000,15.220346923828124,-1.2533323764801025,0.030372019857168198,0.4937383532524109
1772790507975379700,15.240379638671875,-1.3789142370224,0.2009059488773346,0.7137807011604309
1772790507995412700,15.260412841796875,-1.461238980293274,0.34935399889945984,0.9635593891143799
1772790508015445800,15.28044580078125,-1.4500453472137451,0.4389544725418091,1.1509257555007935
1772790508035478800,15.300478759765625,-1.3510578870773315,0.465412437915802,1.2271249294281006
1772790508055511800,15.32051171875,-1.1602870225906372,0.4542234241962433,1.1555235385894775
1772790508075544800,15.340544921875,-0.8989548087120056,0.4916703999042511,0.8422307968139648
1772790508095577600,15.36057763671875,-0.6448959112167358,0.5389822721481323,0.4155500531196594
1772790508115612000,15.38061181640625,-0.47397661209106445,0.5332996249198914,0.09183138608932495
1772790508135644700,15.400644775390624,-0.32307472825050354,0.5140377283096313,-0.11937619745731354
1772790508155677700,15.420677734375,-0.1296091228723526,0.5202823281288147,-0.28536516427993774
1772790508175710700,15.440710693359375,0.160660520195961,0.5176221132278442,-0.4031437337398529
1772790508195743700,15.46074365234375,0.5362381339073181,0.48647457361221313,-0.4846377968788147
1772790508215776800,15.48077685546875,0.8779643177986145,0.43539169430732727,-0.518916666507721
1772790508235809800,15.500809814453126,1.125933051109314,0.3478514552116394,-0.5110440850257874
1772790508255842600,15.520842529296875,1.2982311248779297,0.26003292202949524,-0.533934473991394
1772790508275875800,15.540875732421876,1.4093317985534668,0.24945004284381866,-0.5699753165245056
1772790508295908600,15.56090869140625,1.491052508354187,0.34532251954078674,-0.5738073587417603
1772790508315942000,15.58094189453125,1.5610803365707397,0.5527777075767517,-0.5438870191574097
1772790508335975700,15.6009755859375,1.6190674304962158,0.8892068266868591,-0.4198388159275055
1772790508356008700,15.6210087890625,1.7173881530761719,1.2635953426361084,-0.18291522562503815
1772790508376041700,15.641041748046876,1.863755226135254,1.6647547483444214,0.1468198001384735
1772790508396074800,15.66107470703125,2.0450875759124756,2.009068489074707,0.48162949085235596
1772790508416107800,15.681107666015626,2.188589334487915,2.1709492206573486,0.7164044380187988
1772790508436140800,15.701140869140625,2.2717907428741455,2.265707492828369,0.8194610476493835
1772790508456173600,15.721173583984376,2.267301321029663,2.2671868801116943,0.7964188456535339
1772790508476206800,15.741206787109375,2.1602704524993896,2.1584537029266357,0.6355452537536621
1772790508496239600,15.761239501953124,2.040544271469116,1.911124587059021,0.38788115978240967
1772790508516273000,15.78127294921875,2.021286725997925,1.5317453145980835,0.12851110100746155
1772790508536305700,15.8013056640625,2.0449411869049072,1.1048238277435303,-0.09914708882570267
1772790508556339700,15.821339599609376,2.117802381515503,0.7023453712463379,-0.3117315173149109
1772790508576372700,15.841372802734375,2.2161593437194824,0.28676092624664307,-0.47327569127082825
1772790508596405800,15.86140576171875,2.2625889778137207,-0.10926283895969391,-0.5436151027679443
1772790508616438500,15.8814384765625,2.2195730209350586,-0.4687784016132355,-0.5371545553207397
1772790508636471800,15.901471923828124,2.0963971614837646,-0.8089442253112793,-0.456445574760437
1772790508656504600,15.921504638671875,1.9008152484893799,-1.0701472759246826,-0.36697107553482056
1772790508676537900,15.941537841796874,1.6510282754898071,-1.2721619606018066,-0.3019433319568634
1772790508696570600,15.961570556640625,1.36696195602417,-1.3522144556045532,-0.24436500668525696
1772790508716603600,15.981603759765624,1.0454643964767456,-1.2766613960266113,-0.15143133699893951
1772790508736636700,16.00163671875,0.7380303740501404,-1.0271756649017334,-0.08366426825523376
1772790508756670700,16.021670654296877,0.4885028302669525,-0.6625566482543945,-0.03647864982485771
1772790508776703700,16.041703857421876,0.21918481588363647,-0.3140473961830139,0.07562045753002167
1772790508796736800,16.06173681640625,-0.057064883410930634,-0.0011084076249971986,0.1640682965517044
1772790508816769800,16.081769775390626,-0.29428356885910034,0.24983593821525574,0.2244405597448349
1772790508836802800,16.101802734375,-0.42296937108039856,0.46188828349113464,0.13891901075839996
1772790508856835800,16.1218359375,-0.5894294381141663,0.5602428317070007,-0.1513786017894745
1772790508876868600,16.14186865234375,-0.9157002568244934,0.44195130467414856,-0.22650930285453796
1772790508896902000,16.16190185546875,-1.2285466194152832,0.23472142219543457,-0.06833910942077637
1772790508916934700,16.1819345703125,-1.4969871044158936,-0.016460997983813286,0.06405381858348846
1772790508936967700,16.2019677734375,-1.8336048126220703,-0.3009260296821594,0.09887651354074478
1772790508957001700,16.222001708984376,-2.2160706520080566,-0.608205258846283,0.05040990933775902
1772790508977034500,16.242034423828127,-2.5514094829559326,-0.8466929197311401,-0.015668708831071854
1772790508997067800,16.26206787109375,-2.8324179649353027,-1.0280389785766602,-0.04643753916025162
1772790509017100500,16.2821005859375,-3.0646352767944336,-1.0774720907211304,-0.1224936917424202
1772790509037133600,16.302133544921876,-3.2170958518981934,-0.9817194938659668,-0.2464827448129654
1772790509057166600,16.32216650390625,-3.2667312622070312,-0.7063038945198059,-0.35293275117874146
1772790509077199600,16.34219970703125,-3.1840522289276123,-0.21865351498126984,-0.40176448225975037
1772790509097232600,16.362232666015625,-2.9526169300079346,0.40250352025032043,-0.39475584030151367
1772790509117265700,16.382265625,-2.577509641647339,0.9265449047088623,-0.329582154750824
1772790509137298700,16.402298583984376,-2.1019248962402344,1.1702054738998413,-0.22568638622760773
1772790509157331700,16.422331787109375,-1.5996489524841309,0.9630443453788757,-0.1422295719385147
1772790509177365500,16.442365478515626,-1.2009679079055786,0.37952789664268494,-0.13991768658161163
1772790509197398800,16.462398681640625,-0.9310200810432434,-0.38335272669792175,-0.24679459631443024
1772790509217431600,16.482431640625,-0.7031546831130981,-1.1078121662139893,-0.49167147278785706
1772790509237464600,16.502464599609375,-0.47646135091781616,-1.7164456844329834,-0.7293775081634521
1772790509257497600,16.52249755859375,-0.36257871985435486,-2.191556215286255,-0.8751986026763916
1772790509277530600,16.542530517578125,-0.3315792679786682,-2.5325701236724854,-0.9970009326934814
1772790509297563600,16.562563720703125,-0.4057120680809021,-2.653273344039917,-1.0625131130218506
1772790509317596700,16.5825966796875,-0.5335955023765564,-2.583895444869995,-1.0290683507919312
1772790509337629400,16.60262939453125,-0.6308913826942444,-2.2981772422790527,-0.9212015271186829
1772790509357662700,16.622662841796874,-0.6689000129699707,-1.8168481588363647,-0.7718101739883423
1772790509377695500,16.642695556640625,-0.6883531212806702,-1.2148102521896362,-0.5517513155937195
1772790509397729500,16.6627294921875,-0.7124208807945251,-0.5903950929641724,-0.2250719964504242
1772790509417762600,16.682762451171875,-0.7423753142356873,-0.06428790837526321,0.13964152336120605
1772790509437795600,16.702795654296875,-0.7305428981781006,0.3284013271331787,0.44891759753227234
1772790509457828600,16.72282861328125,-0.6841242909431458,0.6192206144332886,0.690156877040863
1772790509477861600,16.742861572265625,-0.5612814426422119,0.7943812608718872,0.8562278747558594
1772790509497894400,16.762894287109376,-0.397536963224411,0.8021872639656067,0.9860795736312866
1772790509517927700,16.782927734375,-0.2297530323266983,0.6705834269523621,1.0838642120361328
1772790509537960400,16.80296044921875,-0.07237912714481354,0.39894020557403564,1.0156313180923462
1772790509557993700,16.82299365234375,0.0889732837677002,0.07350164651870728,0.7423966526985168
1772790509578026500,16.843026611328124,0.26066088676452637,-0.24777624011039734,0.3435616195201874
1772790509598060500,16.863060546875,0.48111337423324585,-0.3430638909339905,-0.2064828723669052
1772790509618093800,16.88309375,0.6398305892944336,-0.31146013736724854,-0.6239176392555237
1772790509638126600,16.903126708984374,0.6868806481361389,-0.2539401352405548,-0.7846692204475403
1772790509658159600,16.92315966796875,0.653998851776123,-0.1275893896818161,-0.7343704104423523
1772790509678192600,16.943192626953124,0.6599763035774231,0.059777047485113144,-0.544310986995697
1772790509698225400,16.963225341796875,0.792898416519165,0.28099972009658813,-0.3205564320087433
1772790509718258700,16.9832587890625,1.028260350227356,0.4724072217941284,-0.05534607917070389
1772790509738291500,17.00329150390625,1.2778400182724,0.5782071352005005,0.19149325788021088
1772790509758324700,17.02332470703125,1.4273171424865723,0.6299691796302795,0.371274471282959
1772790509778357500,17.043357421875,1.4800724983215332,0.6232113838195801,0.48118072748184204
1772790509798390500,17.063390625,1.4666658639907837,0.6666158437728882,0.5336849689483643
1772790509818424600,17.083424560546874,1.4431171417236328,0.7851081490516663,0.5826860666275024
1772790509838457600,17.10345751953125,1.46297025680542,1.0198900699615479,0.6257736086845398
1772790509858490600,17.12349072265625,1.5426874160766602,1.3565999269485474,0.6974301934242249
1772790509878523600,17.143523681640627,1.6449222564697266,1.7385443449020386,0.8161286115646362
1772790509898556700,17.163556640625,1.7260855436325073,2.0567100048065186,1.0262049436569214
1772790509918589700,17.183589599609373,1.7823359966278076,2.264472723007202,1.2195544242858887
1772790509938623200,17.203623291015624,1.803364872932434,2.401170015335083,1.3524240255355835
1772790509958656000,17.223656005859375,1.7676899433135986,2.4239509105682373,1.3459235429763794
1772790509978689300,17.243689208984375,1.714707374572754,2.3171961307525635,1.1758716106414795
1772790509998722000,17.26372216796875,1.6909879446029663,2.026674747467041,0.9467816948890686
1772790510018755000,17.283755126953125,1.7290294170379639,1.5817826986312866,0.6842705011367798
1772790510038789000,17.3037890625,1.801265001296997,1.0856783390045166,0.3924013376235962
1772790510058822100,17.323822265625,1.8710170984268188,0.5710139870643616,0.08645925670862198
1772790510078855000,17.34385498046875,1.926874041557312,0.04741385579109192,-0.17041780054569244
1772790510098888200,17.36388818359375,1.9450281858444214,-0.4001290202140808,-0.3318282663822174
1772790510118921000,17.3839208984375,1.9028842449188232,-0.7149738073348999,-0.4017096161842346
1772790510138954200,17.403954345703124,1.7978332042694092,-0.9564204812049866,-0.4094493091106415
1772790510158987000,17.423987060546875,1.6381497383117676,-1.1151331663131714,-0.39751115441322327
1772790510179020300,17.444020263671874,1.477088212966919,-1.1529135704040527,-0.3572036623954773
1772790510199053000,17.464052978515625,1.312496542930603,-1.1063793897628784,-0.23725275695323944
1772790510219086000,17.484086181640624,1.1012881994247437,-0.9377046227455139,-0.08301099389791489
1772790510239119000,17.504119140625,0.8383444547653198,-0.6770908832550049,0.027482224628329277
1772790510259153200,17.524153076171874,0.5539897084236145,-0.39827999472618103,0.08846595138311386
1772790510279186000,17.54418603515625,0.24154844880104065,-0.1893603354692459,0.1453593224287033
1772790510299219200,17.56421923828125,-0.08449863642454147,-0.10169467329978943,0.176367849111557
1772790510319252000,17.584251953125,-0.4049783945083618,-0.09634730964899063,0.19535325467586517
1772790510339285200,17.60428515625,-0.731924831867218,-0.13126134872436523,0.22556841373443604
1772790510359318000,17.624318115234374,-1.0780960321426392,-0.15856380760669708,0.1887054741382599
1772790510379351000,17.64435107421875,-1.3719189167022705,-0.09668126702308655,-0.09839075058698654
1772790510399384000,17.664384033203124,-1.6237812042236328,-0.017236776649951935,-0.521891713142395
1772790510419417000,17.6844169921875,-1.9655803442001343,0.016222646459937096,-0.6838627457618713
1772790510439450000,17.7044501953125,-2.3303208351135254,0.015845010057091713,-0.5676301717758179
1772790510459484200,17.724484130859373,-2.61415696144104,0.032997630536556244,-0.21087734401226044
1772790510479517200,17.74451708984375,-2.8210763931274414,0.0460796095430851,0.3143744468688965
1772790510499550200,17.76455029296875,-3.0306432247161865,0.05698845162987709,0.7676301002502441
1772790510519583200,17.784583251953126,-3.1689870357513428,0.10790809243917465,0.9904801845550537
1772790510539616000,17.804615966796874,-3.246964931488037,0.13846120238304138,1.1179753541946411
1772790510559649300,17.824649169921877,-3.2948591709136963,0.11605869233608246,1.2504528760910034
1772790510579682000,17.84468212890625,-3.263932943344116,0.07535520941019058,1.4083610773086548
1772790510599715000,17.864715087890627,-3.13527774810791,0.0970517173409462,1.5815720558166504
1772790510619748000,17.884748046875,-2.886046886444092,0.25951412320137024,1.7089898586273193
1772790510639781000,17.904781005859373,-2.488858461380005,0.5732547640800476,1.7382569313049316
1772790510659814100,17.924814208984376,-1.935327410697937,0.9003202319145203,1.6614176034927368
1772790510679848200,17.94484814453125,-1.2643122673034668,1.07516610622406,1.488586187362671
1772790510699881000,17.964880859375,-0.5685590505599976,0.966702938079834,1.149763822555542
1772790510719914200,17.984914306640626,0.023363379761576653,0.5529143214225769,0.6325843930244446
1772790510739947000,18.004947021484377,0.41815757751464844,-0.09678726643323898,-0.010335994884371758
1772790510759980300,18.024980224609376,0.668422281742096,-0.9588130712509155,-0.649896502494812
1772790510780013000,18.045012939453127,0.7768467664718628,-1.87958824634552,-1.2283846139907837
1772790510800046000,18.065046142578126,0.7022489309310913,-2.7064971923828125,-1.69452702999115
1772790510820079000,18.0850791015625,0.6022038459777832,-3.4626259803771973,-2.027435779571533
1772790510840112000,18.105112060546876,0.551860511302948,-4.074010372161865,-2.210714340209961
1772790510860145200,18.125145263671875,0.5074674487113953,-4.313840866088867,-2.2869975566864014
1772790510880178200,18.14517822265625,0.4916509687900543,-4.094522953033447,-2.226804494857788
1772790510900211200,18.165211181640625,0.4187341332435608,-3.469250440597534,-1.9988338947296143
1772790510920245200,18.185245361328125,0.2696501314640045,-2.7405261993408203,-1.750318169593811
1772790510940278000,18.205278076171876,0.1300347000360489,-1.9305320978164673,-1.5805085897445679
1772790510960311300,18.225311279296875,0.04201136529445648,-1.1580774784088135,-1.3171123266220093
1772790510980344000,18.245343994140626,0.03765310347080231,-0.5547372698783875,-0.7824439406394958
1772790511000377000,18.265377197265625,0.13844016194343567,-0.13480494916439056,-0.07136419415473938
1772790511020410000,18.28541015625,0.18668518960475922,0.12722666561603546,0.5331829786300659
1772790511040443100,18.305443115234375,0.1308767944574356,0.3219253122806549,0.7421822547912598
1772790511060476200,18.32547607421875,0.029515814036130905,0.4156195819377899,0.6115856170654297
1772790511080509200,18.34550927734375,-0.11477931588888168,0.461082398891449,0.3195468485355377
1772790511100542000,18.3655419921875,-0.2037198394536972,0.5196876525878906,-0.018865300342440605
1772790511120575200,18.3855751953125,-0.14771835505962372,0.6711645126342773,-0.43797096610069275
1772790511140609000,18.405609130859375,-0.034623224288225174,0.9053506851196289,-0.802100419998169
1772790511160642000,18.42564208984375,0.027150128036737442,1.0043017864227295,-0.9067767858505249
1772790511180675000,18.445675048828125,0.05278278887271881,1.0003246068954468,-0.780649721622467
1772790511200708000,18.4657080078125,0.10569899529218674,0.9432527422904968,-0.5746867060661316
1772790511220741000,18.4857412109375,0.28311026096343994,0.8729469180107117,-0.43764445185661316
1772790511240774100,18.505774169921875,0.6203413009643555,0.7743955850601196,-0.35352370142936707
1772790511260807000,18.525806884765625,1.0047552585601807,0.689333438873291,-0.23823466897010803
1772790511280840200,18.545840087890625,1.2967778444290161,0.6361777782440186,-0.09128490835428238
1772790511300873000,18.565873046875,1.4782978296279907,0.5636023879051208,0.03798679634928703
1772790511320906200,18.58590625,1.6007230281829834,0.5029760599136353,0.1394748091697693
1772790511340940000,18.60593994140625,1.6513899564743042,0.4879206717014313,0.22182241082191467
1772790511360973000,18.62597314453125,1.6674541234970093,0.5294396281242371,0.26482313871383667
1772790511381006000,18.646006103515624,1.6807031631469727,0.6263054609298706,0.3260990083217621
1772790511401039000,18.6660390625,1.6320961713790894,0.7376833558082581,0.47158750891685486
1772790511421072100,18.686072021484375,1.56681489944458,0.956757664680481,0.6875200867652893
1772790511441105200,18.706105224609374,1.5344295501708984,1.2019360065460205,0.9048651456832886
1772790511461138000,18.726137939453125,1.4963138103485107,1.4342992305755615,1.0567595958709717
1772790511481171200,18.746171142578124,1.4224859476089478,1.5851675271987915,1.141220211982727
1772790511501204000,18.766203857421875,1.2741976976394653,1.6518669128417969,1.2114205360412598
1772790511521237200,18.7862373046875,1.1166071891784668,1.6383678913116455,1.286348819732666
1772790511541270000,18.80627001953125,1.0034679174423218,1.5931191444396973,1.268696904182434
1772790511561303000,18.826302978515624,0.9693227410316467,1.4979748725891113,1.1093649864196777
1772790511581337000,18.846337158203124,0.9538401365280151,1.35740065574646,0.8749456405639648
1772790511601370000,18.8663701171875,0.9930639863014221,1.1196563243865967,0.6061874032020569
1772790511621403100,18.886403076171874,1.0809639692306519,0.7904030084609985,0.38974082469940186
1772790511641436200,18.906436279296877,1.146612524986267,0.4370154142379761,0.2587665915489197
1772790511661469200,18.92646923828125,1.1540472507476807,0.0557175911962986,0.13171568512916565
1772790511681502200,18.946502197265627,1.0980274677276611,-0.2985052168369293,-0.020365459844470024
1772790511701535200,18.96653515625,0.9702686667442322,-0.5962077379226685,-0.1231115460395813
1772790511721568000,18.986568115234373,0.7787250876426697,-0.8079495429992676,-0.16939249634742737
1772790511741601300,19.006601318359376,0.5533753037452698,-0.8889319896697998,-0.19447919726371765
1772790511761634000,19.026634033203123,0.2681121528148651,-0.8197638392448425,-0.16318252682685852
1772790511781667000,19.0466669921875,-0.010982610285282135,-0.6464259028434753,-0.05326535180211067
1772790511801701000,19.066701171875,-0.2454150915145874,-0.4262218773365021,0.12820564210414886
1772790511821734100,19.086734130859377,-0.40698614716529846,-0.22250524163246155,0.2141873985528946
1772790511841767200,19.10676708984375,-0.5061308145523071,-0.018919361755251884,0.16991420090198517
1772790511861800200,19.12680029296875,-0.5812375545501709,0.07183344662189484,0.07222439348697662
1772790511881833000,19.1468330078125,-0.6185787916183472,0.054188404232263565,0.09159303456544876
1772790511901866200,19.1668662109375,-0.608866274356842,-0.06496541947126389,0.1444740891456604
1772790511921899000,19.18689892578125,-0.6387935280799866,-0.22317981719970703,0.13770566880702972
1772790511941931800,19.206931884765623,-0.7237547636032104,-0.41108688712120056,0.030106503516435623
1772790511961964800,19.22696484375,-0.8518757224082947,-0.5945243239402771,-0.1564471274614334
1772790511981997800,19.246997802734374,-0.9951311349868774,-0.8032365441322327,-0.2999100089073181
1772790512002031900,19.267031982421877,-1.1536009311676025,-1.012722134590149,-0.36904460191726685
1772790512022064600,19.287064697265624,-1.2720261812210083,-1.1841678619384766,-0.40556639432907104
1772790512042098000,19.307097900390627,-1.308454990386963,-1.2505724430084229,-0.4252200126647949
1772790512062130700,19.327130615234374,-1.282135009765625,-1.17337167263031,-0.4331551492214203
1772790512082163700,19.347163818359373,-1.2126206159591675,-0.9108604788780212,-0.4288078248500824
1772790512102196700,19.36719677734375,-1.1019984483718872,-0.5198541283607483,-0.4554263651371002
1772790512122229800,19.387229736328123,-0.9607539772987366,-0.07480046898126602,-0.5386056900024414
1772790512142262800,19.4072626953125,-0.8501877784729004,0.30587923526763916,-0.585038959980011
1772790512162295800,19.4272958984375,-0.8101620674133301,0.5199057459831238,-0.5214413404464722
1772790512182328600,19.44732861328125,-0.8297392725944519,0.5295056700706482,-0.393724650144577
1772790512202361900,19.46736181640625,-0.8837133049964905,0.4331706166267395,-0.28744110465049744
1772790512222395600,19.487395751953127,-0.9287753105163574,0.32477569580078125,-0.21607796847820282
1772790512242428700,19.5074287109375,-0.9049980640411377,0.1898128092288971,-0.16757142543792725
1772790512262461700,19.527461669921873,-0.8274292349815369,-0.00509942090138793,-0.08209007233381271
1772790512282494700,19.54749462890625,-0.7709984183311462,-0.29314106702804565,0.06120956316590309
1772790512302527700,19.56752783203125,-0.7321429252624512,-0.5846823453903198,0.2516311705112457
1772790512322560800,19.587560791015626,-0.6965916156768799,-0.7903175354003906,0.42448604106903076
1772790512342593800,19.60759375,-0.6663117408752441,-0.8986507058143616,0.5561796426773071
1772790512362626800,19.627626708984376,-0.6508507132530212,-0.9877254366874695,0.663487434387207
1772790512382659600,19.64765966796875,-0.6337351202964783,-1.013302206993103,0.7363051772117615
1772790512402692900,19.66769287109375,-0.6393299102783203,-0.960342526435852,0.7602922916412354
1772790512422725600,19.6877255859375,-0.6759872436523438,-0.8938031792640686,0.7516774535179138
1772790512442759700,19.707759765625,-0.6588711142539978,-0.8784047961235046,0.703697681427002
1772790512462792700,19.727792724609376,-0.612234354019165,-0.9394119381904602,0.6462788581848145
1772790512482825700,19.74782568359375,-0.5616177916526794,-1.0092318058013916,0.5567287802696228
1772790512502858800,19.767858642578126,-0.4432184398174286,-1.0118168592453003,0.38232898712158203
1772790512522891800,19.787891845703125,-0.3174368143081665,-0.97438645362854,0.1617652028799057
1772790512542924500,19.807924560546876,-0.20473556220531464,-0.8919786810874939,-0.027941087260842323
1772790512562957800,19.827957763671876,-0.11062957346439362,-0.754952609539032,-0.18043048679828644
1772790512582990600,19.847990478515626,0.011608452536165714,-0.5908113718032837,-0.32687824964523315
1772790512603024000,19.86802392578125,0.19164958596229553,-0.3789915144443512,-0.524512767791748
1772790512623056600,19.888056640625,0.43801596760749817,-0.06768903136253357,-0.8047369718551636
1772790512643089700,19.908089599609376,0.64466392993927,0.2468491941690445,-1.046425223350525
1772790512663124000,19.9281240234375,0.7315183877944946,0.4057954251766205,-1.140999436378479
1772790512683156700,19.94815673828125,0.6593765616416931,0.4084988236427307,-1.1026264429092407
1772790512703189800,19.968189697265625,0.5374078154563904,0.39180344343185425,-1.0105394124984741
1772790512723222800,19.988222900390625,0.4829823672771454,0.39351534843444824,-0.8876190781593323
1772790512743255800,20.008255859375,0.5445349216461182,0.4116986095905304,-0.7195632457733154
1772790512763288800,20.028288818359375,0.7300472855567932,0.42219623923301697,-0.5575359463691711
1772790512783321600,20.048321533203126,0.9443747401237488,0.4291689395904541,-0.4162563383579254
1772790512803354600,20.068354736328125,1.1207114458084106,0.42296937108039856,-0.32364463806152344
1772790512823387600,20.0883876953125,1.2238260507583618,0.37669748067855835,-0.32133567333221436
1772790512843420700,20.108420654296875,1.2358055114746094,0.3517380654811859,-0.34830230474472046
1772790512863453700,20.12845361328125,1.20831298828125,0.38207200169563293,-0.33658096194267273
1772790512883486700,20.14848681640625,1.1682816743850708,0.4537363350391388,-0.2536226809024811
1772790512903520800,20.168520751953125,1.109467625617981,0.5864259600639343,-0.08852214366197586
1772790512923553800,20.1885537109375,1.0762518644332886,0.7310568690299988,0.154794380068779
1772790512943586600,20.208586669921875,1.0681244134902954,0.8834637403488159,0.5000630617141724
1772790512963619600,20.22861962890625,1.098722219467163,1.053727626800537,0.8995452523231506
1772790512983652600,20.248652587890625,1.1909501552581787,1.287825584411621,1.2778645753860474
1772790513003685600,20.268685546875,1.2943644523620605,1.5252866744995117,1.5521352291107178
1772790513023718700,20.28871875,1.3580281734466553,1.7622954845428467,1.7529253959655762
1772790513043751700,20.308751708984374,1.3592329025268555,1.9466410875320435,1.9092092514038086
1772790513063784700,20.32878466796875,1.289903163909912,2.0728251934051514,1.9856516122817993
1772790513083817700,20.348817626953124,1.217528223991394,2.1543514728546143,1.9208664894104004
1772790513103851500,20.3688515625,1.2009003162384033,2.1509151458740234,1.7366178035736084
1772790513123884800,20.388884765625,1.2475428581237793,2.0345160961151123,1.5295852422714233
1772790513143917600,20.40891748046875,1.3470444679260254,1.786054015159607,1.3227585554122925
1772790513163952600,20.42895263671875,1.466402292251587,1.4052989482879639,1.1200305223464966
1772790513183985700,20.448985595703125,1.5640995502471924,0.9018885493278503,0.9170600175857544
1772790513204018700,20.469018798828124,1.601409673690796,0.3045058250427246,0.7165772914886475
1772790513224051700,20.4890517578125,1.5467325448989868,-0.3414052724838257,0.5033118724822998
1772790513244084500,20.50908447265625,1.4081101417541504,-0.9466328620910645,0.27937811613082886
1772790513264117800,20.52911767578125,1.159325361251831,-1.3776370286941528,0.1379520148038864
1772790513284151600,20.549151611328124,0.80037522315979,-1.6488639116287231,0.10890544205904007
1772790513304184600,20.5691845703125,0.4020502269268036,-1.7221856117248535,0.16739219427108765
1772790513324217600,20.589217529296874,-0.010616691783070564,-1.594306468963623,0.24322330951690674
1772790513344250600,20.609250732421874,-0.34673210978507996,-1.3091322183609009,0.2049531489610672
1772790513364283600,20.62928369140625,-0.5872451066970825,-0.9595169425010681,0.036023516207933426
1772790513384316700,20.649316650390624,-0.7490676045417786,-0.7064833641052246,-0.14972051978111267
1772790513404349400,20.669349365234375,-0.866054892539978,-0.5416731238365173,-0.2617224156856537
1772790513424382700,20.6893828125,-1.0020995140075684,-0.4734535813331604,-0.2371947020292282
1772790513444415500,20.70941552734375,-1.1854180097579956,-0.5099868178367615,-0.15791399776935577
1772790513464448800,20.72944873046875,-1.420168161392212,-0.5689138174057007,-0.19109192490577698
1772790513484481500,20.7494814453125,-1.603597640991211,-0.5308878421783447,-0.5774425864219666
1772790513504515600,20.769515625,-1.7120908498764038,-0.4458882510662079,-1.3093698024749756
1772790513524548600,20.789548583984374,-1.817807674407959,-0.38216572999954224,-2.063596725463867
1772790513544581600,20.80958154296875,-1.9837751388549805,-0.40132400393486023,-2.617715358734131
1772790513564614700,20.82961474609375,-2.1562671661376953,-0.40153518319129944,-2.9641237258911133
1772790513584647700,20.849647705078127,-2.236813545227051,-0.2979491353034973,-3.1002397537231445
1772790513604680400,20.869680419921874,-2.2493951320648193,-0.11489302664995193,-2.972677707672119
1772790513624713700,20.889713623046877,-2.2227447032928467,0.06521043181419373,-2.604647636413574
1772790513644746500,20.90974658203125,-2.2127461433410645,0.14335928857326508,-2.037498712539673
1772790513664779800,20.92977978515625,-2.191389799118042,0.032036229968070984,-1.3724454641342163
1772790513684812500,20.9498125,-2.119699001312256,-0.18331123888492584,-0.7055781483650208
1772790513704845600,20.969845458984373,-1.9410393238067627,-0.4113318920135498,-0.1308048814535141
1772790513724879600,20.989879638671876,-1.6454689502716064,-0.5324950814247131,0.29092317819595337
1772790513744912600,21.00991259765625,-1.2913165092468262,-0.5011438131332397,0.5420182347297668
1772790513764945400,21.0299453125,-0.9062057733535767,-0.3726401627063751,0.6105813384056091
1772790513784978700,21.049978759765626,-0.5100345015525818,-0.21273118257522583,0.5383396148681641
1772790513805011500,21.070011474609377,-0.19959166646003723,-0.17203514277935028,0.3602346181869507
1772790513825044700,21.090044677734376,0.0028599686920642853,-0.2567353844642639,0.07437276840209961
1772790513845077500,21.110077392578123,0.15167154371738434,-0.4885212182998657,-0.2426733672618866
1772790513865110500,21.130110595703126,0.27170899510383606,-0.8810085654258728,-0.5050948858261108
1772790513885143600,21.1501435546875,0.35236656665802,-1.3120566606521606,-0.6636557579040527
1772790513905176600,21.170176513671876,0.4224710762500763,-1.7721645832061768,-0.723857581615448
1772790513925209600,21.190209716796875,0.44530582427978516,-2.276021957397461,-0.7338111400604248
1772790513945243600,21.21024365234375,0.3716113567352295,-2.7620110511779785,-0.8007363677024841
1772790513965276400,21.2302763671875,0.21373438835144043,-3.0517866611480713,-0.994721531867981
1772790513985309700,21.250309814453125,-0.006795587949454784,-3.1274969577789307,-1.1297693252563477
1772790514005342500,21.270342529296876,-0.18340258300304413,-2.970762252807617,-1.054933786392212
1772790514025375500,21.29037548828125,-0.24329307675361633,-2.4644861221313477,-0.7756110429763794
1772790514045408500,21.310408447265626,-0.18852543830871582,-1.5795814990997314,-0.37981337308883667
1772790514065441500,21.330441650390625,-0.04808204248547554,-0.48632410168647766,0.16910353302955627
1772790514085474600,21.350474609375,0.08100084215402603,0.489139586687088,0.9825008511543274
1772790514105507600,21.370507568359375,0.03206898644566536,1.1157115697860718,1.9525599479675293
1772790514125540600,21.39054052734375,-0.12144866585731506,1.4010951519012451,2.611984968185425
1772790514145573600,21.41057373046875,-0.21954673528671265,1.4891464710235596,2.565876007080078
1772790514165607400,21.430607421875,-0.2846788763999939,1.4986393451690674,1.9189393520355225
1772790514185640400,21.450640380859376,-0.4252069592475891,1.487705111503601,0.9925699830055237
1772790514205673500,21.470673583984375,-0.5798801779747009,1.4151787757873535,0.040708016604185104
1772790514225706500,21.49070654296875,-0.5757945775985718,1.3417823314666748,-0.711383581161499
1772790514245739500,21.510739501953125,-0.40781304240226746,1.3036953210830688,-1.1914812326431274
1772790514265772500,21.5307724609375,-0.1716356724500656,1.276916265487671,-1.4428080320358276
1772790514285805600,21.5508056640625,0.04479197412729263,1.1406710147857666,-1.4811114072799683
1772790514305838600,21.570838623046875,0.2136523574590683,0.8860771059989929,-1.3239316940307617
1772790514325871400,21.590871337890626,0.39721500873565674,0.7128536701202393,-1.185099482536316
1772790514345904600,21.610904541015625,0.5871292948722839,0.577109694480896,-1.1042826175689697
1772790514365937400,21.6309375,0.644729733467102,0.4494648873806,-0.9033181071281433
1772790514385970700,21.650970703125,0.5909373164176941,0.3031199276447296,-0.5795941352844238
1772790514406004500,21.67100439453125,0.540128767490387,0.15726499259471893,-0.28136003017425537
1772790514426037500,21.69103759765625,0.5408158302307129,0.00754979532212019,-0.062002915889024734
1772790514446070500,21.711070556640625,0.6393152475357056,-0.1615460216999054,0.0788189172744751
1772790514466103600,21.731103515625,0.822858452796936,-0.3340277671813965,0.1585741937160492
1772790514486136300,21.75113623046875,0.9696295261383057,-0.449195921421051,0.26180338859558105
1772790514506169600,21.771169677734374,1.0387524366378784,-0.4676676094532013,0.4168752431869507
1772790514526202400,21.791202392578125,1.04348886013031,-0.33223894238471985,0.6229706406593323
1772790514546235600,21.811235595703124,0.9975418448448181,-0.012732839211821556,0.8545551300048828
1772790514566268400,21.831268310546875,0.9736782908439636,0.4749864935874939,1.073689579963684
1772790514586301400,21.851301513671874,1.036348581314087,1.0562094449996948,1.2802581787109375
1772790514606334500,21.87133447265625,1.1488666534423828,1.6362011432647705,1.5098778009414673
1772790514626368500,21.891368408203125,1.2219139337539673,2.108731985092163,1.8321150541305542
1772790514646401500,21.911401611328124,1.2925382852554321,2.450897455215454,2.1866605281829834
1772790514666434600,21.9314345703125,1.4030426740646362,2.6738736629486084,2.5440914630889893
1772790514686467300,21.95146728515625,1.544339656829834,2.7505931854248047,2.7977890968322754
1772790514706500600,21.97150048828125,1.651572346687317,2.713803291320801,2.859816074371338
1772790514726533400,21.991533447265624,1.719913363456726,2.517256021499634,2.6892738342285156
1772790514746566700,22.011566650390623,1.6945453882217407,2.180535078048706,2.3452632427215576
1772790514766599400,22.031599365234374,1.5582903623580933,1.730315089225769,1.838716983795166
1772790514786632400,22.051632568359373,1.3787975311279297,1.231938362121582,1.186370849609375
1772790514806665500,22.07166552734375,1.2627413272857666,0.7041967511177063,0.486524373292923
1772790514826698500,22.091698486328124,1.221177577972412,0.133853942155838,-0.07948949933052063
1772790514846731500,22.1117314453125,1.1871479749679565,-0.40294399857521057,-0.45065557956695557
1772790514866765600,22.131765625,1.1647467613220215,-0.825324296951294,-0.6784586310386658
1772790514886798600,22.151798583984377,1.1031609773635864,-1.1452831029891968,-0.7774973511695862
1772790514906831600,22.17183154296875,0.9854774475097656,-1.3769506216049194,-0.808064341545105
1772790514926864600,22.19186474609375,0.7888080477714539,-1.5118237733840942,-0.7965242862701416
1772790514946897700,22.211897705078126,0.5379116535186768,-1.4600943326950073,-0.7319711446762085
1772790514966930700,22.2319306640625,0.2740374207496643,-1.2135751247406006,-0.6554907560348511
1772790514986963700,22.251963623046876,0.12946878373622894,-0.7710199952125549,-0.5851969122886658
1772790515006996700,22.271996826171875,0.10644920915365219,-0.20973671972751617,-0.6508470177650452
1772790515027029800,22.29202978515625,0.047076430171728134,0.2637413740158081,-0.7448986768722534
1772790515047062500,22.3120625,-0.11589544266462326,0.4537256956100464,-0.5612377524375916
1772790515067095800,22.332095703125,-0.2880541682243347,0.48138687014579773,-0.2012241929769516
1772790515087128600,22.352128662109376,-0.5130129456520081,0.47882091999053955,0.18847990036010742
1772790515107162600,22.37216259765625,-0.7897252440452576,0.4041048586368561,0.39185646176338196
1772790515127196000,22.39219580078125,-1.0326663255691528,0.24701803922653198,0.33451274037361145
1772790515147228700,22.412228759765625,-1.2725223302841187,-0.09435126930475235,0.1525522619485855
1772790515167262000,22.432261962890625,-1.556449294090271,-0.5146651864051819,-0.09496939182281494
1772790515187294700,22.452294677734375,-1.8256834745407104,-0.8480250239372253,-0.3934391736984253
1772790515207327700,22.47232763671875,-1.971357822418213,-0.9994313716888428,-0.625766932964325
1772790515227360800,22.49236083984375,-1.9667143821716309,-0.9719784259796143,-0.7854679226875305
1772790515247393800,22.512393798828125,-1.8316702842712402,-0.7263441681861877,-0.9079746603965759
1772790515267426800,22.5324267578125,-1.602542519569397,-0.2903045415878296,-1.0174298286437988
1772790515287459800,22.5524599609375,-1.2827410697937012,0.1781761348247528,-1.145438313484192
1772790515307492600,22.57249267578125,-0.9709877371788025,0.5159541964530945,-1.2513296604156494
1772790515327527000,22.59252685546875,-0.8062232732772827,0.5421642065048218,-1.2722541093826294
1772790515347559700,22.6125595703125,-0.77983158826828,0.2934023141860962,-1.1747946739196777
1772790515367592700,22.6325927734375,-0.8058261871337891,-0.06518565863370895,-0.9981013536453247
1772790515387625700,22.652625732421875,-0.8004399538040161,-0.45307374000549316,-0.8249964118003845
1772790515407658800,22.67265869140625,-0.7470294833183289,-0.7670588493347168,-0.6826523542404175
1772790515427691800,22.69269189453125,-0.6617345213890076,-1.0083811283111572,-0.5425950884819031
1772790515447724800,22.712724853515624,-0.6199926733970642,-1.2390888929367065,-0.45128941535949707
1772790515467757800,22.7327578125,-0.6333809494972229,-1.4148753881454468,-0.4060572385787964
1772790515487790800,22.752790771484374,-0.7056300640106201,-1.556598424911499,-0.36470553278923035
1772790515507823600,22.77282373046875,-0.8032461404800415,-1.6104201078414917,-0.35701191425323486
1772790515527857000,22.79285693359375,-0.8995321989059448,-1.52836012840271,-0.3604748249053955
1772790515547889700,22.8128896484375,-0.969685435295105,-1.3088001012802124,-0.33644139766693115
1772790515567923000,22.8329228515625,-1.0287506580352783,-0.9558228850364685,-0.24639034271240234
1772790515587956700,22.852956787109374,-1.0461610555648804,-0.5483083724975586,-0.07212665677070618
1772790515607989800,22.87298974609375,-1.0469173192977905,-0.23947224020957947,0.16804519295692444
1772790515628022800,22.893022705078124,-1.0672519207000732,-0.07992386072874069,0.43555334210395813
1772790515648055800,22.913055908203123,-1.0900813341140747,-0.04766365885734558,0.686213493347168
1772790515668088600,22.933088623046874,-1.0787099599838257,-0.15087446570396423,0.8328122496604919
1772790515688121900,22.953121826171873,-1.0495251417160034,-0.3317773938179016,0.8356418609619141
1772790515708154600,22.973154541015624,-0.9925934076309204,-0.5226384401321411,0.6721621751785278
1772790515728188000,22.99318798828125,-0.9586069583892822,-0.6040089130401611,0.4469500780105591
1772790515748220700,23.013220703125,-0.9968363642692566,-0.5472913384437561,0.24949903786182404
1772790515768253700,23.033253662109374,-0.9411768317222595,-0.45859554409980774,0.057017747312784195
1772790515788286700,23.05328662109375,-0.6763190627098083,-0.2801238000392914,-0.19068579375743866
1772790515808320800,23.07332080078125,-0.26586124300956726,-0.0008167914929799736,-0.5120262503623962
1772790515828353500,23.093353515625,0.04531581699848175,0.2116275578737259,-0.7638622522354126
1772790515848386800,23.11338671875,0.11579371243715286,0.1932445615530014,-0.8125663995742798
1772790515868419600,23.133419677734373,0.07809373736381531,0.06765440851449966,-0.771904468536377
1772790515888452900,23.153452880859376,0.12411102652549744,-0.03804432228207588,-0.7287029027938843
1772790515908485600,23.173485595703124,0.28075069189071655,-0.13579191267490387,-0.6552832722663879
1772790515928518700,23.1935185546875,0.5237806439399719,-0.21262970566749573,-0.5530831813812256
1772790515948551200,23.21355126953125,0.7839658856391907,-0.30287572741508484,-0.44935622811317444
1772790515968584000,23.233583984375,1.0103029012680054,-0.40466412901878357,-0.3647225797176361
1772790515988617200,23.2536171875,1.1109658479690552,-0.44736260175704956,-0.26117461919784546
1772790516008650000,23.27364990234375,0.9872543215751648,-0.3436737358570099,-0.14426423609256744
1772790516028683300,23.293683349609374,0.870081901550293,-0.15315918624401093,-0.11505734920501709
1772790516048716000,23.313716064453125,0.8772361874580383,0.15496161580085754,-0.09325404465198517
1772790516068750000,23.33375,0.974155843257904,0.5076765418052673,0.01708444394171238
1772790516088783400,23.353783447265624,1.1255722045898438,0.8838120698928833,0.17406101524829865
1772790516108816100,23.373816162109375,1.297385573387146,1.2404745817184448,0.3832304775714874
1772790516128849200,23.39384912109375,1.4357396364212036,1.529444932937622,0.6761416792869568
1772790516148882200,23.413882080078125,1.5778989791870117,1.797616720199585,1.0415345430374146
1772790516168915000,23.4339150390625,1.7220771312713623,2.0595123767852783,1.3643310070037842
1772790516188948200,23.4539482421875,1.8809057474136353,2.297391653060913,1.544346809387207
1772790516208981000,23.47398095703125,2.042250394821167,2.4568240642547607,1.5827118158340454
1772790516229014300,23.49401416015625,2.112967014312744,2.482985258102417,1.5546948909759521
1772790516249047000,23.514047119140624,2.067805528640747,2.3882317543029785,1.4951521158218384
1772790516269080000,23.534080078125,1.9445456266403198,2.2301642894744873,1.3890750408172607
1772790516289113000,23.554113037109374,1.7956640720367432,2.0101678371429443,1.2059648036956787
1772790516309147100,23.574147216796874,1.6840957403182983,1.7630864381790161,0.9708095788955688
1772790516329180200,23.59418017578125,1.6515862941741943,1.4659996032714844,0.7090669274330139
1772790516349213200,23.614213134765624,1.7096458673477173,1.097163200378418,0.4465585947036743
1772790516369246200,23.63424609375,1.7764432430267334,0.6577547192573547,0.2067185640335083
1772790516389279200,23.654279296875,1.8006342649459839,0.14177684485912323,-0.0032828785479068756
1772790516409312300,23.674312255859373,1.7934999465942383,-0.4267004430294037,-0.22762943804264069
1772790516429345000,23.694344970703124,1.704674482345581,-0.9537760019302368,-0.4064074456691742
1772790516449378300,23.71437841796875,1.5066826343536377,-1.4355518817901611,-0.4746866226196289
1772790516469411000,23.7344111328125,1.1946336030960083,-1.8001600503921509,-0.45577284693717957
1772790516489444400,23.7544443359375,0.8167233467102051,-1.971783995628357,-0.423835426568985
1772790516509477000,23.77447705078125,0.47592365741729736,-1.9412862062454224,-0.4030055105686188
1772790516529510100,23.79451025390625,0.23199541866779327,-1.7673362493515015,-0.37471795082092285
1772790516549543200,23.814543212890626,0.06567967683076859,-1.5088328123092651,-0.28179919719696045
1772790516569577200,23.8345771484375,-0.1007404625415802,-1.199828863143921,-0.12432541698217392
1772790516589610000,23.85460986328125,-0.3421586751937866,-0.88779616355896,0.06843684613704681
1772790516609643300,23.874643310546876,-0.6613712906837463,-0.6174275279045105,0.2427588552236557
1772790516629676000,23.894676025390623,-1.0247215032577515,-0.43980133533477783,0.3394036293029785
1772790516649709300,23.914709228515626,-1.3456089496612549,-0.27501824498176575,0.27484408020973206
1772790516669742000,23.9347421875,-1.5662676095962524,-0.06975031644105911,-0.03898042067885399
1772790516689775000,23.954775146484376,-1.748764991760254,0.1291140466928482,-0.50980544090271
1772790516709808000,23.97480810546875,-1.9301425218582153,0.22867685556411743,-0.8038264513015747
1772790516729841200,23.994841064453126,-2.1355321407318115,0.1846497356891632,-0.7802246809005737
1772790516749874200,24.014874267578126,-2.3527724742889404,0.07042649388313293,-0.6164328455924988
1772790516769907200,24.0349072265625,-2.5231473445892334,-0.07873209565877914,-0.48407265543937683
1772790516789940200,24.054940185546876,-2.5994834899902344,-0.2688314616680145,-0.467204749584198
1772790516809974300,24.074974365234375,-2.6275041103363037,-0.5084152817726135,-0.5427748560905457
1772790516830007000,24.095007080078126,-2.6773793697357178,-0.7305389046669006,-0.682547926902771
1772790516850040300,24.115040283203125,-2.7004549503326416,-0.8725471496582031,-0.8503904938697815
1772790516870073000,24.135072998046876,-2.6233556270599365,-0.8564949631690979,-0.9690771698951721
1772790516890106000,24.155106201171876,-2.4270291328430176,-0.6526222825050354,-0.9970850944519043
1772790516910139100,24.17513916015625,-2.1495678424835205,-0.33490848541259766,-0.9576005339622498
1772790516930172200,24.195172119140626,-1.7956923246383667,-0.030834611505270004,-0.8575434684753418
1772790516950205400,24.215205322265625,-1.33902907371521,0.13702842593193054,-0.7651786208152771
1772790516970238500,24.235238525390624,-0.8194006085395813,0.14444559812545776,-0.7657213807106018
1772790516990271500,24.255271484375,-0.3456157147884369,0.023120498284697533,-0.8964881896972656
1772790517010304500,24.275304443359374,-0.015739016234874725,-0.2124454230070114,-1.1373833417892456
1772790517030337500,24.295337646484374,0.13419055938720703,-0.5732513070106506,-1.3802216053009033
1772790517050370600,24.31537060546875,0.19342085719108582,-0.9737544655799866,-1.5170649290084839
1772790517070404600,24.335404541015624,0.23096716403961182,-1.357776403427124,-1.541435718536377
1772790517090437400,24.355437255859375,0.29092079401016235,-1.6980756521224976,-1.4450687170028687
1772790517110470700,24.375470703125,0.3706158697605133,-2.042013645172119,-1.2465524673461914
1772790517130503400,24.39550341796875,0.4469098448753357,-2.4024412631988525,-1.000240445137024
1772790517150536400,24.415536376953124,0.5199768543243408,-2.7421607971191406,-0.7948116064071655
1772790517170569500,24.435569580078123,0.6168818473815918,-3.0254907608032227,-0.6642941236495972
1772790517190602500,24.4556025390625,0.700621485710144,-3.263823986053467,-0.5762774348258972
1772790517210635500,24.475635498046874,0.7115455269813538,-3.355450391769409,-0.5776966214179993
1772790517230668500,24.49566845703125,0.38806092739105225,-3.124824047088623,-0.7331858277320862
1772790517250701300,24.515701416015624,-0.08037260174751282,-2.6438255310058594,-1.0065547227859497
1772790517270734600,24.535734619140626,-0.3986659049987793,-1.9728553295135498,-1.0807275772094727
1772790517290767400,24.555767333984374,-0.5007858872413635,-1.242193341255188,-0.5893391966819763
1772790517310800600,24.575800537109377,-0.4666345417499542,-0.5377076864242554,0.42917346954345703
1772790517330834400,24.59583447265625,-0.5267468690872192,0.009725064970552921,1.4499201774597168
1772790517350867500,24.615867431640623,-0.6165050268173218,0.34949594736099243,1.911803126335144
1772790517370900500,24.635900390625,-0.6718252301216125,0.44179099798202515,1.7631170749664307
1772790517390933500,24.65593359375,-0.7510132789611816,0.46868279576301575,1.2111287117004395
1772790517410966300,24.67596630859375,-0.8622556328773499,0.47637665271759033,0.4307881295681
1772790517430999600,24.69599951171875,-0.967281699180603,0.4896045923233032,-0.37043532729148865
1772790517451032300,24.7160322265625,-0.960415780544281,0.5248954892158508,-0.9198371767997742
1772790517471065600,24.736065673828126,-0.808363676071167,0.5856152772903442,-1.1301089525222778
1772790517491098400,24.756098388671877,-0.528784453868866,0.7323804497718811,-1.2043932676315308
1772790517511131600,24.776131591796876,-0.1891387701034546,0.8255866169929504,-1.2545166015625
1772790517531164400,24.796164306640627,0.0023782027419656515,0.6413991451263428,-1.1248124837875366
1772790517551197400,24.816197509765626,0.027689417824149132,0.09699578583240509,-0.8284260630607605
1772790517571230500,24.83623046875,-0.0946362242102623,-0.647864818572998,-0.5075036883354187
1772790517591263500,24.856263427734376,-0.2608156204223633,-1.2763521671295166,-0.49045148491859436
1772790517611297300,24.87629736328125,-0.36367034912109375,-1.5772523880004883,-0.6646986603736877
1772790517631330600,24.89633056640625,-0.34173497557640076,-1.667905569076538,-0.733432948589325
1772790517651363300,24.91636328125,-0.19011268019676208,-1.5933990478515625,-0.6492640376091003
1772790517671396600,24.936396728515625,0.0999833196401596,-1.3179163932800293,-0.4713289141654968
1772790517691429400,24.956429443359376,0.46647557616233826,-0.8517806529998779,-0.2729913294315338
