time,seconds_elapsed,z,y,x
1772717159275351300,0.068351318359375,0.0007338323630392551,-0.00033833738416433334,-0.0014986121095716953
1772717159295223300,0.088223388671875,0.0011474760249257088,0.001016329973936081,0.00013632141053676605
1772717159315096000,0.108095947265625,0.0016689146868884563,-0.0016568293794989586,-0.0008727395907044411
1772717159334968000,0.127968017578125,-0.00008152658119797707,-0.0007113991305232048,-0.00019475631415843964
1772717159354841300,0.14784130859375,0.00021696416661143303,0.0008432399481534958,-0.0009074108675122261
1772717159374713000,0.167713134765625,-0.0015993686392903328,0.00034144800156354904,0.0021430645138025284
1772717159394586000,0.187586181640625,0.0023848593700677156,0.000734373927116394,0.003320585936307907
1772717159414458400,0.207458251953125,0.0006548566743731499,0.0014090398326516151,0.002494486980140209
1772717159434331100,0.2273310546875,0.00016323430463671684,0.00021525006741285324,0.0005116099491715431
1772717159454204000,0.247203857421875,-0.0008920095860958099,-0.00012849736958742142,-0.002709979424253106
1772717159474076000,0.267075927734375,0.00007995916530489922,-0.0005980739369988441,0.0006685913540422916
1772717159493948700,0.28694873046875,0.0003086607903242111,-0.0010992679744958878,0.001134800724685192
1772717159513821000,0.306821044921875,0.00021356251090765,0.0005891313776373863,0.00032605044543743134
1772717159533693700,0.326693603515625,-0.0008682748302817345,0.00045952480286359787,0.002019708976149559
1772717159553565700,0.346565673828125,0.000630255788564682,-0.00038362015038728714,0.0002494044601917267
1772717159573439000,0.36643896484375,-0.001638003159314394,0.0009139338508248329,-0.0004108683206140995
1772717159593310700,0.386310791015625,0.0006066435016691685,0.0034733889624476433,-0.001264988910406828
1772717159613183700,0.406183837890625,0.00044492119923233986,-0.0009558498859405518,0.0024819206446409225
1772717159633055700,0.4260556640625,-0.000898097176104784,-0.0018172692507505417,0.001909113023430109
1772717159652928800,0.4459287109375,-0.0005856729112565517,-0.0019274083897471428,0.0015982547774910927
1772717159672800800,0.46580078125,-0.001472624484449625,-0.0011531971395015717,-0.00036780210211873055
1772717159692673800,0.485673828125,0.0005903895944356918,0.00020816735923290253,0.0010485942475497723
1772717159712546800,0.505546875,-0.0006464873440563679,0.000010620802640914917,-0.0006500650197267532
1772717159732418800,0.525418701171875,-0.0004604584537446499,-0.0002791956067085266,0.0024081021547317505
1772717159752291600,0.54529150390625,-0.00031478703022003174,-0.0013462984934449196,0.0018689543940126896
1772717159772163800,0.565163818359375,0.001721251755952835,-0.0010275514796376228,-0.00003181956708431244
1772717159792036900,0.585036865234375,-0.000138839241117239,0.001093149185180664,0.0017200312577188015
1772717159811908600,0.60490869140625,-0.00040687108412384987,0.00045369844883680344,-0.0006566308438777924
1772717159831782000,0.624781982421875,0.001333537045866251,0.0016584694385528564,0.0020065191201865673
1772717159851654000,0.64465380859375,0.00006033666431903839,-0.00047726090997457504,-0.0003890977241098881
1772717159871526700,0.664526611328125,-0.0006657927297055721,0.0008205380290746689,-0.00264075119048357
1772717159891398700,0.684398681640625,-0.0018060137517750263,0.0017688935622572899,-0.00026035914197564125
1772717159911272000,0.70427197265625,-0.00020986702293157578,0.0013557206839323044,-0.0006416914984583855
1772717159931143700,0.724143798828125,0.0008908696472644806,-0.00023275986313819885,0.0004953267052769661
1772717159951016700,0.7440166015625,-0.002631236333400011,-0.00009125564247369766,-0.0006137122400105
1772717159970889000,0.763888916015625,0.001945515163242817,-0.0044034505262970924,-0.0008709556423127651
1772717159990761700,0.78376171875,-0.00045762769877910614,0.0003013806417584419,-0.002097077202051878
1772717160010635000,0.803635009765625,-0.0018568444065749645,0.0015048999339342117,-0.0006823432631790638
1772717160030506800,0.8235068359375,0.001861953642219305,0.00041340477764606476,0.0006017601117491722
1772717160050379800,0.8433798828125,0.0015108962543308735,0.0005481308326125145,0.00008286256343126297
1772717160070251800,0.863251708984375,0.0006392868235707283,-0.001431959681212902,0.00023518875241279602
1772717160090124800,0.883124755859375,-0.0012125177308917046,-0.0012218877673149109,-0.0019921837374567986
1772717160109996800,0.902996826171875,-0.000011703930795192719,-0.0016522342339158058,-0.00018515810370445251
1772717160129869800,0.922869873046875,-0.000007245689630508423,-0.0007262732833623886,-0.0006072581745684147
1772717160149741800,0.942741943359375,0.0009871567599475384,-0.0011252909898757935,0.0014244788326323032
1772717160169614800,0.96261474609375,0.0014287261292338371,-0.0012963786721229553,-0.00010652467608451843
1772717160189486800,0.98248681640625,0.002773151732981205,0.0007668072357773781,0.0013757888227701187
1772717160209360000,1.00235986328125,-0.002745632082223892,-0.0012166313827037811,-0.0038155631627887487
1772717160229231900,1.02223193359375,-0.0013981778174638748,0.002637160010635853,0.0011456669308245182
1772717160249104600,1.042104736328125,0.0005112872458994389,0.0006613824516534805,0.00022514862939715385
1772717160268978000,1.06197802734375,0.002042811829596758,0.0023767929524183273,0.0008122087456285954
1772717160288850000,1.081849853515625,-0.001893273089081049,0.0003080153837800026,0.0009027919732034206
1772717160308722700,1.10172265625,-0.002325337380170822,-0.000978413037955761,0.00157224852591753
1772717160328594700,1.1215947265625,-0.00009607383981347084,-0.0009947633370757103,0.0024779457598924637
1772717160348467700,1.1414677734375,-0.00008316664025187492,0.0002003861591219902,-0.000573297031223774
1772717160368339700,1.161339599609375,-0.0003444114699959755,-0.000016333535313606262,-0.0027889986522495747
1772717160388212700,1.181212646484375,0.00006303703412413597,-0.0010420121252536774,0.0010664048604667187
1772717160408085000,1.2010849609375,0.0003478848375380039,0.0013259202241897583,0.001433392520993948
1772717160427957800,1.220957763671875,0.0008917744271457195,0.002044348046183586,-0.00045037688687443733
1772717160447829800,1.240829833984375,0.0006312942132353783,0.001189492642879486,-0.0006026243790984154
1772717160467702500,1.26070263671875,0.00022694142535328865,-0.0025127320550382137,-0.0035049584694206715
1772717160487574800,1.28057470703125,0.0009000953286886215,-0.00016061682254076004,0.0010221763513982296
1772717160507447800,1.30044775390625,-0.001318243332207203,-0.0001959642395377159,-0.0005888068117201328
1772717160527319600,1.320319580078125,0.0017399233765900135,-0.0010515814647078514,-0.0012298310175538063
1772717160547192800,1.34019287109375,-0.001117013394832611,-0.00016446877270936966,0.0017210203222930431
1772717160567065600,1.360065673828125,0.0009264727123081684,-0.0011767055839300156,0.0017535309307277203
1772717160586937600,1.3799375,0.0011700615286827087,0.0002561556175351143,0.0005001700483262539
1772717160606811000,1.399810791015625,0.0020023672841489315,0.0020014625042676926,0.0014020884409546852
1772717160626683000,1.419682861328125,-0.0017075343057513237,0.0003268895670771599,0.00139585230499506
1772717160646555600,1.4395556640625,0.0010547214187681675,-0.00407782569527626,0.0014204815961420536
1772717160666427600,1.459427734375,-0.0006048032082617283,-0.002046404406428337,-0.0012346282601356506
1772717160686300700,1.47930078125,-0.0008254721760749817,0.00007362291216850281,0.0009642536751925945
1772717160706172700,1.499172607421875,0.0011878986842930317,0.0006082477048039436,-0.0013365470804274082
1772717160726045700,1.519045654296875,-0.000013038981705904007,0.0013237325474619865,0.0013173939660191536
1772717160745917700,1.538917724609375,0.0002479185350239277,-0.00006957631558179855,0.0003220280632376671
1772717160765790700,1.558790771484375,0.000688446220010519,0.0009545348584651947,0.001761297695338726
1772717160785662700,1.578662841796875,-0.0015437612310051918,-0.0009268112480640411,0.00278846500441432
1772717160805535700,1.59853564453125,-0.000626902561634779,-0.0020931586623191833,0.0011110836640000343
1772717160825408800,1.61840869140625,-0.000525264535099268,-0.0002922229468822479,0.0016491212882101536
1772717160845280800,1.63828076171875,0.0029253496322780848,-0.00006375275552272797,-0.0013152770698070526
1772717160865153800,1.65815380859375,0.0011430694721639156,-0.001138889230787754,0.001270787324756384
1772717160885025800,1.67802587890625,-0.00012502307072281837,-0.0009143725037574768,0.002758351154625416
1772717160904898600,1.697898681640625,-0.0016471571289002895,-0.0007910756394267082,0.0009346436709165573
1772717160924770600,1.7177705078125,-0.0013876627199351788,0.0029377462342381477,0.0005545914173126221
1772717160944643800,1.737643798828125,0.0007373951375484467,0.0011498099192976952,-0.0011799931526184082
1772717160964515600,1.757515625,-0.0003202538937330246,0.0003671664744615555,0.0025722417049109936
1772717160984388600,1.777388671875,0.0004466930404305458,-0.0011907536536455154,-0.001243813894689083
1772717161004260900,1.7972607421875,0.0005458258092403412,-0.0008443789556622505,-0.0016562938690185547
1772717161024133600,1.817133544921875,0.0012035495601594448,-0.001336023211479187,0.00006775883957743645
1772717161044005600,1.837005615234375,0.00220335740596056,0.00037526898086071014,0.0034997351467609406
1772717161063878700,1.856878662109375,0.0003778287209570408,-0.0014299899339675903,0.0025623724795877934
1772717161083750700,1.876750732421875,0.002034212928265333,0.0014525298029184341,0.0009277318604290485
1772717161103623700,1.896623779296875,0.00006451085209846497,-0.0016548652201890945,0.0016534077003598213
1772717161123496700,1.91649658203125,-0.0006624134257435799,0.0005209213122725487,0.0024878322146832943
1772717161143368700,1.93636865234375,-0.0011158958077430725,0.001183873973786831,0.00004039425402879715
1772717161163241700,1.95624169921875,-0.0007877359166741371,-0.0012760022655129433,0.0013696933165192604
1772717161183113700,1.97611376953125,-0.0009972644038498402,-0.002761288546025753,0.0016386504285037518
1772717161202986800,1.99598681640625,0.002199995331466198,0.00021096132695674896,0.0013951705768704414
1772717161222858800,2.015858642578125,-0.0002827262505888939,0.000349951907992363,-0.00021439604461193085
1772717161242731800,2.035731689453125,-0.0005548163317143917,-0.0016768109053373337,0.0012359335087239742
1772717161262603800,2.055603759765625,-0.0020808489061892033,0.0005713552236557007,0.00023384811356663704
1772717161282476500,2.0754765625,0.0011976752430200577,0.0004681115970015526,0.0008065756410360336
1772717161302348500,2.0953486328125,0.00020911730825901031,-0.001020483672618866,0.00009298650547862053
1772717161322221800,2.115221923828125,0.00035979459062218666,-0.0019793761894106865,0.00023223552852869034
1772717161342093800,2.13509375,-0.001444382593035698,-0.0003079688176512718,0.0021144356578588486
1772717161361966600,2.154966552734375,0.0014471360482275486,-0.00020388979464769363,0.0014426601119339466
1772717161381838800,2.1748388671875,0.0004135165363550186,0.002077072858810425,0.0010385527275502682
1772717161401711600,2.194711669921875,-0.00016174651682376862,0.0006547514349222183,0.0024699182249605656
1772717161421584600,2.214584716796875,0.0009120474569499493,0.0007625911384820938,-0.00016659079119563103
1772717161441457000,2.234456787109375,-0.00012698490172624588,-0.001452903263270855,0.0003105546347796917
1772717161461330000,2.254329833984375,0.002343629952520132,-0.0016691330820322037,0.001543976366519928
1772717161481202000,2.274201904296875,0.0005209827795624733,0.0005025966092944145,-0.0009114695712924004
1772717161501074700,2.29407470703125,-0.0005885516293346882,-0.0005686795338988304,0.0019797589629888535
1772717161520947000,2.313947021484375,-0.0009695896878838539,-0.001136372797191143,0.0014130803756415844
1772717161540820000,2.333820068359375,0.00020500971004366875,-0.0009762076660990715,0.0006731157191097736
1772717161560691700,2.353691650390625,-0.0019390275701880455,0.00038356706500053406,-0.0010978803038597107
1772717161580565000,2.37356494140625,-0.00031879451125860214,0.00010825321078300476,-0.0006267516873776913
1772717161600437000,2.39343701171875,-0.0012661190703511238,0.0003773169592022896,0.0015734070912003517
1772717161620309800,2.413309814453125,0.0009506205096840858,0.00026322808116674423,-0.00048711150884628296
1772717161640182000,2.43318212890625,0.00020398059859871864,-0.0003486527130007744,-0.0003983280621469021
1772717161660055000,2.453054931640625,0.0006461217999458313,-0.0006250282749533653,0.0008668289519846439
1772717161679926800,2.4729267578125,0.001050630584359169,-0.0010068407282233238,-0.00005443999543786049
1772717161699800000,2.492800048828125,0.0020104232244193554,-0.0018061036244034767,0.00023555057123303413
1772717161719672800,2.5126728515625,-0.000023416709154844284,-0.0008332515135407448,-0.0008354163728654385
1772717161739544800,2.532544921875,0.0005436376668512821,-0.0006766859441995621,-0.0003352728672325611
1772717161759418000,2.552418212890625,0.0017530731856822968,0.0016194507479667664,0.00008905213326215744
1772717161779289900,2.572289794921875,-0.0005878154188394547,0.0009710658341646194,-0.0006046080961823463
1772717161799163000,2.592162841796875,-0.0014792955480515957,0.0029073264449834824,0.00021328497678041458
1772717161819035000,2.612034912109375,-0.0005117286927998066,0.00107670109719038,-0.001476941630244255
1772717161838908000,2.631907958984375,-0.00030848756432533264,0.0013466458767652512,0.00009016133844852448
1772717161858780000,2.65177978515625,0.00219869427382946,-0.0006945673376321793,-0.0005078213289380074
1772717161878653000,2.67165283203125,0.0021437681280076504,0.0009923335164785385,0.0011698966845870018
1772717161898525000,2.69152490234375,0.0013654977083206177,0.00042528193444013596,0.001440785825252533
1772717161918398000,2.71139794921875,0.0005571483634412289,0.0024528447538614273,-0.0014671669341623783
1772717161938270000,2.73127001953125,0.0018646898679435253,0.0006454735994338989,-0.0008643190376460552
1772717161958143000,2.75114306640625,0.0006968979723751545,0.0012321099638938904,-0.0011166678741574287
1772717161978015000,2.771014892578125,0.0033173484262079,-0.000738002359867096,0.002447286155074835
1772717161997887700,2.7908876953125,-0.0005076881498098373,-0.001868939958512783,0.0012518507428467274
1772717162017761000,2.810760986328125,0.0007212795317173004,-0.0014989720657467842,-0.002284382004290819
1772717162037633000,2.830633056640625,0.0008353623561561108,-0.0002670520916581154,-0.002255357801914215
1772717162057505800,2.850505859375,-0.002206727396696806,0.0007935306057333946,-0.002124132588505745
1772717162077377800,2.870377685546875,-0.0004301229491829872,-0.0011289622634649277,-0.00028157420456409454
1772717162097250800,2.890250732421875,0.0004012398421764374,0.0018049441277980804,0.0011915098875761032
1772717162117122800,2.910122802734375,0.0001964936964213848,0.00031039584428071976,0.0009972178377211094
1772717162136995800,2.929995849609375,-0.0019174376502633095,0.0001612883061170578,-0.0010676514357328415
1772717162156868000,2.9498681640625,-0.0009663072414696217,0.000634457916021347,0.0010653529316186905
1772717162176740900,2.969740966796875,0.0006782356649637222,-0.0013838112354278564,-0.00004875333979725838
1772717162196612900,2.98961279296875,0.0020583593286573887,-0.0005347225815057755,0.002356091048568487
1772717162216486000,3.00948583984375,-0.000848088413476944,0.0005517452955245972,0.00006954185664653778
1772717162236358000,3.02935791015625,0.0006532096303999424,0.0018653720617294312,0.0007966579869389534
1772717162256231000,3.04923095703125,0.001179313287138939,0.0002652071416378021,-0.0014150864444673061
1772717162276103000,3.06910302734375,-0.0013959896750748158,0.0014036530628800392,-0.0023753526620566845
1772717162295976000,3.088975830078125,0.0012757270596921444,-0.00009596440941095352,0.0020689135417342186
1772717162315848700,3.1088486328125,0.0008845939300954342,-0.0006193332374095917,0.0003722221590578556
1772717162335721000,3.128720947265625,-0.0007966929115355015,0.002364800311625004,0.0011268802918493748
1772717162355594000,3.148593994140625,-0.0011930447071790695,-0.0025377729907631874,-0.00281528290361166
1772717162375466000,3.168466064453125,-0.0003584176301956177,0.0007633687928318977,-0.0008385409601032734
1772717162395339000,3.188339111328125,-0.0009343144483864307,0.0008844062685966492,0.000845298171043396
1772717162415211000,3.2082109375,-0.001082670409232378,-0.0008735852316021919,0.000679689459502697
1772717162435083800,3.228083740234375,0.00016163941472768784,-0.00014329608529806137,-0.0008803014643490314
1772717162454955500,3.24795556640625,0.0005602105520665646,0.000575575977563858,0.002229511272162199
1772717162474828800,3.267828857421875,0.0008515743538737297,0.0011942507699131966,-0.0014736149460077286
1772717162494700500,3.287700439453125,0.0011307047680020332,-0.0021547265350818634,-0.0008934186771512032
1772717162514573600,3.307573486328125,0.0009352881461381912,0.001596539281308651,0.0004261285066604614
1772717162534445800,3.32744580078125,0.0011529382318258286,-0.001814231276512146,0.0008405353873968124
1772717162554318600,3.347318603515625,0.001771342009305954,-0.00031300634145736694,0.000020104926079511642
1772717162574190600,3.367190673828125,-0.0003673243336379528,-0.001850656233727932,0.0017909379675984383
1772717162594064000,3.38706396484375,-0.0006571286357939243,0.00015836767852306366,-0.000006405636668205261
1772717162613935600,3.406935546875,-0.000595207791775465,0.001154058612883091,0.001437690109014511
1772717162633808600,3.42680859375,0.000497134868055582,0.0009199557825922966,0.0010687829926609993
1772717162653681700,3.446681640625,-0.00021267076954245567,0.0003304816782474518,0.000307322945445776
1772717162673553700,3.4665537109375,-0.00224057724699378,-0.0005416702479124069,0.001463575754314661
1772717162693426700,3.4864267578125,0.0010697082616388798,0.0005919691175222397,-0.00021508941426873207
1772717162713298400,3.50629833984375,-0.0016672760248184204,-0.0019996175542473793,-0.0005329949781298637
1772717162733171700,3.526171630859375,-0.0004018978215754032,0.00046159327030181885,-0.0012285653501749039
1772717162753043700,3.546043701171875,-0.0000823410227894783,0.001784052699804306,2.915039658546448e-7
1772717162772916500,3.56591650390625,0.0005324422381818295,-0.0000846153125166893,-0.0008389311842620373
1772717162792788700,3.585788818359375,0.0006742235273122787,0.001132320612668991,0.0013034711591899395
1772717162812661800,3.605661865234375,-0.00036558927968144417,-0.0006779162213206291,-0.001574191264808178
1772717162832533500,3.625533447265625,0.000616920180618763,-0.000928596593439579,0.0003476194106042385
1772717162852406800,3.64540673828125,0.00047974102199077606,0.0003037024289369583,0.0004786364734172821
1772717162872278800,3.66527880859375,0.00008937995880842209,-0.0005507878959178925,0.0020955237559974194
1772717162892151600,3.685151611328125,0.0009864848107099533,0.002327587455511093,0.0006021508015692234
1772717162912023600,3.7050234375,-0.0008881385438144207,0.00020076055079698563,-0.0005879206582903862
1772717162931896600,3.724896484375,-0.0007246425375342369,0.00037864968180656433,0.0007033878937363625
1772717162951769600,3.74476953125,0.001017929520457983,0.00010937917977571487,0.001284745056182146
1772717162971641600,3.7646416015625,-0.0007148683071136475,-0.0005418490618467331,-0.0014975653029978275
1772717162991514600,3.7845146484375,-0.000018580816686153412,-0.0006639901548624039,-0.0009341929107904434
1772717163011386600,3.80438671875,0.000985095277428627,-0.0005492595955729485,-0.000010681338608264923
1772717163031259600,3.824259765625,0.001189173199236393,0.0016872240230441093,-0.0006527137011289597
1772717163051131600,3.844131591796875,0.00191135099157691,0.0004349108785390854,-0.000018098391592502594
1772717163071004700,3.864004638671875,0.000018110033124685287,0.0011501777917146683,-0.001052068080753088
1772717163090876700,3.883876708984375,0.00018623750656843185,0.0018110917881131172,0.0025297831743955612
1772717163110749700,3.903749755859375,-0.0009182365611195564,0.00038040708750486374,0.00026870984584093094
1772717163130621700,3.92362158203125,0.00042149564251303673,0.0023748287931084633,-0.0009512822143733501
1772717163150494500,3.943494384765625,-0.0007207472808659077,-0.0009155357256531715,0.0033256211318075657
1772717163170366700,3.96336669921875,0.000871745403856039,0.0007019266486167908,-0.0006197323091328144
1772717163190239700,3.98323974609375,-0.0000703856348991394,-0.0010312199592590332,0.00004291720688343048
1772717163210111700,4.00311181640625,0.00048807496204972267,-0.0011886032298207283,-0.001479113008826971
1772717163229984800,4.02298486328125,0.001593621913343668,-0.0016491394490003586,0.0002521844580769539
1772717163249856800,4.042856689453125,-0.003459818195551634,0.0018939264118671417,0.0020143715664744377
1772717163269729500,4.0627294921875,-0.00016494840383529663,0.0011581731960177422,0.0003230161964893341
1772717163289602800,4.082602783203125,0.00050318893045187,-0.00044779013842344284,0.0004920093342661858
1772717163309474800,4.102474853515625,0.0002780342474579811,0.00019662734121084213,-0.0005553173832595348
1772717163329347600,4.12234765625,-0.0001928047277033329,0.0014869431033730507,0.0022424408234655857
1772717163349219600,4.142219482421875,-0.0006455709226429462,-0.0011295406147837639,0.0024104146286845207
1772717163369092600,4.162092529296875,0.0009096004068851471,0.0006888257339596748,0.0018934844993054867
1772717163388964600,4.181964599609375,0.00045163044705986977,0.0005378201603889465,-0.0003643445670604706
1772717163408837600,4.201837646484375,0.0010422049090266228,0.0001393267884850502,0.0010350649245083332
1772717163428709600,4.221709716796875,0.0009275139309465885,0.00028880219906568527,-0.0004773298278450966
1772717163448582700,4.241582763671875,0.0018460690043866634,0.0003960896283388138,-0.0015756450593471527
1772717163468455400,4.261455322265625,-0.00030209776014089584,0.0019032638520002365,-0.00034119468182325363
1772717163488328200,4.281328125,0.00040543731302022934,-0.000941774807870388,0.00005711568519473076
1772717163508200400,4.301200439453125,0.0018076132982969284,-0.0016712788492441177,-0.0019850493408739567
1772717163528073200,4.3210732421875,-0.003297504037618637,0.0010098973289132118,-0.0005986788310110569
1772717163547945200,4.3409453125,-0.0005736849270761013,0.0012298645451664925,0.002390241250395775
1772717163567818500,4.360818603515625,-0.00022342568263411522,-0.0008497145026922226,0.0032365811057388783
1772717163587690200,4.380690185546875,-0.0002969852648675442,0.00004629325121641159,-0.00015122490003705025
1772717163607563300,4.400563232421875,0.0006682206876575947,0.002234106883406639,0.00017424672842025757
1772717163627435300,4.420435302734375,0.0007566632702946663,0.0006194915622472763,-0.0009070257656276226
1772717163647308300,4.440308349609375,-0.0006127809174358845,-0.001936499960720539,-0.0006532198749482632
1772717163667181300,4.460181396484375,0.0006443164311349392,-0.002126747742295265,-0.0003237864002585411
1772717163687053600,4.480053466796875,0.0002267700619995594,0.0019670119509100914,0.0007075080648064613
1772717163706926300,4.49992626953125,0.0007732338272035122,0.00048803817480802536,-0.0009306254796683788
1772717163726798300,4.51979833984375,0.0008196416310966015,-0.0012718187645077705,0.002369338646531105
1772717163746671400,4.53967138671875,0.0015532243996858597,0.0009838612750172615,0.0020003700628876686
1772717163766543400,4.55954345703125,-0.0005990588106215,0.00183065515011549,0.0054328422993421555
1772717163786416400,4.57941650390625,0.0022075693123042583,0.0029315538704395294,0.00045613059774041176
1772717163806288100,4.5992880859375,-0.0012620645575225353,-0.00022760499268770218,-0.000378279946744442
1772717163826161400,4.619161376953125,-0.0005678697489202023,-0.001240994781255722,-0.001191774383187294
1772717163846033400,4.639033447265625,0.0008565597236156464,0.0007973285391926765,-0.0018000113777816296
1772717163865906200,4.65890625,0.0005593486130237579,-0.0017325468361377716,-0.0007341960445046425
1772717163885778400,4.6787783203125,0.00121666444465518,-0.0006921505555510521,-0.00019136210903525352
1772717163905651500,4.6986513671875,-0.0005401126109063625,-0.0007861200720071793,0.0008000158704817295
1772717163925523200,4.718523193359375,-0.0002187606878578663,0.0002806819975376129,0.000550735741853714
1772717163945396500,4.738396484375,0.002261823508888483,0.0012457109987735748,-0.00004185410216450691
1772717163965268500,4.7582685546875,0.000702801626175642,0.0008311355486512184,0.0013902713544666767
1772717163985141200,4.778141357421875,0.001286424696445465,0.002280423417687416,0.0007513347081840038
1772717164005014500,4.7980146484375,-0.00001953262835741043,-0.00032611191272735596,-0.0006926301866769791
1772717164024886300,4.81788623046875,0.0041640992276370525,-0.0022387560456991196,0.0019270731136202812
1772717164044759300,4.83775927734375,-0.0016762600280344486,-0.000623445026576519,-0.0010191518813371658
1772717164064631300,4.85763134765625,-0.000554574653506279,-0.002786781173199415,0.002697837073355913
1772717164084504300,4.87750439453125,0.00023586302995681763,0.0015587098896503448,0.0004330896772444248
1772717164104376300,4.897376220703125,0.0007195076905190945,0.0005088653415441513,0.0009760884568095207
1772717164124249300,4.917249267578125,-0.00009922310709953308,0.0008147619664669037,-0.0016461201012134552
1772717164144121300,4.937121337890625,-0.0035034548491239548,0.0014412887394428253,0.0018143639899790287
1772717164163994400,4.956994384765625,-0.0003742803819477558,-0.00012416113168001175,0.0017552333883941174
1772717164183866400,4.976866455078125,-0.0026863552629947662,-0.0022603003308176994,-0.00015934975817799568
1772717164203739400,4.996739501953125,-0.0005895658396184444,-0.00036874786019325256,0.0009373873472213745
1772717164223611400,5.016611328125,0.001823596190661192,-0.0015384145081043243,-0.0014194012619554996
1772717164243484200,5.036484130859375,0.0007769311778247356,-0.0006911605596542358,-0.002370415721088648
1772717164263356200,5.056356201171875,-0.000864299014210701,0.00034898798912763596,-0.00016214512288570404
1772717164283229400,5.0762294921875,-0.0002141525037586689,-0.0006043650209903717,0.0013512158766388893
1772717164303101200,5.09610107421875,0.0013007516972720623,0.0031683137640357018,-0.001325226854532957
1772717164322974200,5.11597412109375,0.001934198196977377,0.0029113711789250374,-0.0012006713077425957
1772717164342847200,5.13584716796875,-0.0006512515246868134,0.0003219926729798317,-0.0011951103806495667
1772717164362719200,5.15571923828125,-0.0013760756701231003,0.0004876125603914261,-0.0017031095921993256
1772717164382592500,5.175592529296875,0.0008456418290734291,-0.001083957962691784,0.0014485269784927368
1772717164402464500,5.195464599609375,-0.0015059011057019234,-0.00007264036685228348,-0.00044945767149329185
1772717164422337300,5.215337158203125,-0.001784459687769413,-0.0005229422822594643,0.0006305882707238197
1772717164442209300,5.235209228515625,-0.001279482152312994,0.0017197886481881142,0.0025349874049425125
1772717164462081800,5.255081787109375,-0.0002477215602993965,0.0028468379750847816,-0.0027376865036785603
1772717164481953500,5.27495361328125,-0.0008491971530020237,0.001716315746307373,0.001171092502772808
1772717164501826800,5.294826904296875,-0.0002953377552330494,0.0005746195092797279,0.0013810079544782639
1772717164521698800,5.31469873046875,0.0005753543227910995,0.002765270881354809,0.00030011218041181564
1772717164541571600,5.334571533203125,0.0004414152354001999,0.00007983576506376266,0.0004836544394493103
1772717164561443600,5.354443603515625,0.0007223985157907009,0.0008927946910262108,-0.0001473897136747837
1772717164581316600,5.374316650390625,0.0019716299138963223,0.0013632699847221375,-0.00042326515540480614
1772717164601188600,5.394188720703125,-0.000480791088193655,-0.0008475761860609055,-0.0015825158916413784
1772717164621061600,5.4140615234375,-0.00005351472645998001,0.0015677036717534065,0.00017799530178308487
1772717164640933600,5.43393359375,0.00045518018305301666,0.00008301530033349991,-0.0003891843371093273
1772717164660806700,5.453806640625,-0.0008765426464378834,0.00013533886522054672,0.0034092129208147526
1772717164680678700,5.4736787109375,0.0015254411846399307,0.0012195426970720291,0.0016237678937613964
1772717164700551700,5.4935517578125,-0.0001414869911968708,0.0002817045897245407,-0.00022324686869978905
1772717164720424700,5.5134248046875,-0.0006795758381485939,-0.0006910348311066628,0.00025454675778746605
1772717164740296700,5.533296630859375,-0.0026118955574929714,-0.0010569468140602112,-0.001021253876388073
1772717164760169700,5.553169677734375,-0.0009153955616056919,-0.0003778766840696335,0.0011952868662774563
1772717164780041700,5.573041748046875,-0.00022571440786123276,0.0005049584433436394,-0.0015034493990242481
1772717164799914500,5.59291455078125,0.00025598006322979927,-0.0006663389503955841,0.0005967775359749794
1772717164819786500,5.612786376953125,0.00016626529395580292,-0.00017234403640031815,0.00022747553884983063
1772717164839659800,5.63265966796875,-0.0012025986798107624,-0.0015992401167750359,-0.0004301927983760834
1772717164859531500,5.652531494140625,0.001062147319316864,0.0012533441185951233,-0.0015794169157743454
1772717164879404500,5.672404541015625,0.0012945686466991901,-0.0010039713233709335,0.0011255335994064808
1772717164899276800,5.69227685546875,-0.00026235776022076607,0.0004399595782160759,0.0017778882756829262
1772717164919149600,5.712149658203125,0.0006762337870895863,0.0003005778416991234,-0.0015811794437468052
1772717164939021600,5.732021484375,-0.0011708284728229046,0.0005196584388613701,-0.0017614299431443214
1772717164958894800,5.751894775390625,0.001199434045702219,-0.00022891070693731308,0.00034918682649731636
1772717164978766600,5.7717666015625,-0.0038867644034326077,0.0006113741546869278,0.0014897966757416725
1772717164998639600,5.7916396484375,0.0005799168720841408,-0.0007877647876739502,0.0023906202986836433
1772717165018512000,5.811511962890625,-0.0007134820334613323,-0.0014423215761780739,0.0030219783075153828
1772717165038384600,5.831384521484375,0.0009456505067646503,-0.0025351750664412975,-0.001713261939585209
1772717165058256600,5.851256591796875,-0.0008391980081796646,-0.0011163707822561264,0.0001415596343576908
1772717165078129700,5.871129638671875,0.00045033497735857964,0.00004106387495994568,0.0016832784749567509
1772717165098001700,5.891001708984375,-0.0002682670019567013,-0.0004251943901181221,-0.002785651944577694
1772717165117874700,5.910874755859375,0.0004879678599536419,-0.0010782117024064064,-0.0002565775066614151
1772717165137747700,5.930747802734375,0.0009979968890547752,-0.00005546584725379944,-0.002053439151495695
1772717165157619700,5.95061962890625,0.0014313459396362305,0.0021203123033046722,-0.0004648705944418907
1772717165177492700,5.97049267578125,-0.000055320560932159424,0.0007688114419579506,0.0006246659904718399
1772717165197364500,5.990364501953125,0.000848056748509407,0.00009647943079471588,0.0030382578261196613
1772717165217237800,6.01023779296875,0.002665312960743904,0.00044876057654619217,0.00021949270740151405
1772717165237109800,6.03010986328125,0.0009769038297235966,-0.0005125803872942924,-0.0007281778380274773
1772717165256982500,6.049982421875,0.0007380247116088867,-0.0006364630535244942,0.0013538748025894165
1772717165276854800,6.069854736328125,0.0002349945716559887,-0.0002954229712486267,0.002406464423984289
1772717165296727600,6.0897275390625,-0.0026569333858788013,-0.0011851545423269272,0.00030712177976965904
1772717165316599600,6.109599609375,0.0001101810485124588,0.0010493407025933266,-0.0015713348984718323
1772717165336472800,6.129472900390625,-0.00004733912646770477,0.002534381113946438,-0.0013613137416541576
1772717165356344600,6.149344482421875,0.0011848430149257183,0.0008233208209276199,0.00022144848480820656
1772717165376217600,6.169217529296875,-0.0012073330581188202,-0.00039327703416347504,0.0015927446074783802
1772717165396089600,6.189089599609375,0.0015826337039470673,-0.00020757224410772324,0.0005832589231431484
1772717165415962600,6.208962646484375,0.000013497192412614822,0.00010101776570081711,-0.0010713087394833565
1772717165435834600,6.228834716796875,0.0003538206219673157,0.0009842701256275177,0.0006000259891152382
1772717165455708200,6.248708251953125,0.0016323383897542953,0.001934325322508812,-0.002869565971195698
1772717165475580200,6.268580078125,0.0022497070021927357,0.0009089065715670586,0.0008526602759957314
1772717165495453200,6.288453125,0.001768892165273428,0.001763313077390194,0.0011392217129468918
1772717165515325200,6.3083251953125,0.0014179963618516922,0.0013715112581849098,-0.00013362988829612732
1772717165535198200,6.3281982421875,0.0010006558150053024,-0.0018588630482554436,0.0008625900372862816
1772717165555071200,6.3480712890625,0.0004939190112054348,0.0017954809591174126,0.0021088761277496815
1772717165574943000,6.36794287109375,-0.00040903594344854355,0.0008811913430690765,0.0012235688045620918
1772717165594816300,6.387816162109375,0.0004537450149655342,-0.0003579668700695038,0.0014215842820703983
1772717165614688300,6.407688232421875,-0.0019473563879728317,0.0005147429183125496,0.0004658857360482216
1772717165634561000,6.42756103515625,-0.0015411200001835823,0.0007069744169712067,-0.002688585314899683
1772717165654433300,6.447433349609375,0.00011057546362280846,0.00030091218650341034,0.000665607862174511
1772717165674306000,6.46730615234375,0.0018202769570052624,-0.0009650867432355881,0.0010945731773972511
1772717165694178000,6.487177978515625,-0.000703092198818922,-0.00009074434638023376,0.0014187926426529884
1772717165714051300,6.50705126953125,0.0003438997082412243,0.0007810806855559349,0.0022516059689223766
1772717165733923000,6.526923095703125,0.0018177828751504421,-0.0004102177917957306,0.0012014391832053661
1772717165753796000,6.546796142578125,0.0007630637846887112,-0.0012304624542593956,0.0012745154090225697
1772717165773668000,6.566668212890625,0.00002809520810842514,0.00031182728707790375,0.00322704017162323
1772717165793541000,6.586541015625,0.001766825094819069,-0.0006208596751093864,-0.0008681626059114933
1772717165813413000,6.6064130859375,0.002286252798512578,-0.001206439919769764,-0.0012961197644472122
1772717165833286100,6.6262861328125,0.00026311120018363,-0.00232591200619936,0.00015873881056904793
1772717165853158100,6.646158203125,0.000818394124507904,-0.0001922687515616417,-0.00038722436875104904
1772717165873031200,6.66603125,-0.0015544486232101917,0.001151195727288723,0.0019403109326958656
1772717165892903200,6.685903076171875,0.00017578713595867157,-0.00039229635149240494,0.002129678148776293
1772717165912776200,6.705776123046875,-0.0010489840060472488,-0.0012562554329633713,0.0013209828175604343
1772717165932648200,6.725648193359375,0.001131338533014059,0.00002307537943124771,-0.00024292711168527603
1772717165952521000,6.74552099609375,0.000663884449750185,0.000591459684073925,-0.0008964887820184231
1772717165972393200,6.765393310546875,-0.0017830030992627144,0.0013599712401628494,0.00032826978713274
1772717165992266200,6.785266357421875,0.0012392322532832623,-0.00003932882100343704,0.0006693322211503983
1772717166012138200,6.80513818359375,0.0014075119979679585,0.0014398833736777306,-0.002393131610006094
1772717166032011300,6.82501123046875,0.00034251436591148376,-0.00023690331727266312,-0.0006558452732861042
1772717166051884300,6.84488427734375,0.00041529396548867226,0.0000590076670050621,0.0005546915344893932
1772717166071756000,6.864756103515625,0.0011958014219999313,-0.000963602215051651,0.00037656910717487335
1772717166091629300,6.88462939453125,-0.000042405445128679276,-0.0008995970711112022,0.0010361731983721256
1772717166111501300,6.904501220703125,0.0008340221829712391,-0.0001121722161769867,-0.00019607599824666977
1772717166131374000,6.9243740234375,0.0012417067773640156,0.0003713183104991913,0.0008861925452947617
1772717166151246000,6.94424609375,-0.004008988384157419,0.0004739854484796524,0.000533626414835453
1772717166171119000,6.964119140625,-0.0011910977773368359,-0.0024568522348999977,0.002080712467432022
1772717166190991000,6.9839912109375,0.00029818667098879814,-0.002595428843051195,0.0009079086594283581
1772717166210864000,7.003864013671875,-0.0016449950635433197,-0.002193278633058071,0.0008570239879190922
1772717166230736100,7.023736083984375,-0.0015319418162107468,-0.0007742168381810188,0.0018632612191140652
1772717166250609200,7.043609130859375,-0.000037925317883491516,0.0017038583755493164,-0.0005397549830377102
1772717166270481200,7.063481201171875,0.0021721895318478346,-0.0031944788061082363,0.001181944739073515
1772717166290354200,7.083354248046875,0.00004347832873463631,0.0005254289135336876,0.00009989552199840546
1772717166310226200,7.10322607421875,-0.00040558725595474243,-0.0008137831464409828,0.00185018265619874
1772717166330099200,7.12309912109375,0.0019417819567024708,0.0005455724895000458,0.0006397878751158714
1772717166349971000,7.142970947265625,0.0002654329873621464,0.0007317177951335907,-0.0017115026712417603
1772717166369844200,7.16284423828125,0.0028321100398898125,0.0024669915437698364,0.004814495798200369
1772717166389716200,7.18271630859375,0.001624933909624815,0.0002125091850757599,0.0009098881855607033
1772717166409589000,7.202589111328125,-0.000545271672308445,0.00017440691590309143,-0.0005966708995401859
1772717166429461200,7.222461181640625,-0.00007031857967376709,-0.0005935691297054291,-0.004056613892316818
1772717166449334300,7.242334228515625,0.0019833827391266823,0.00022218842059373856,0.0022814576514065266
1772717166469205800,7.262205810546875,-0.0002734255976974964,0.0005104308947920799,0.0021665780805051327
1772717166489079000,7.2820791015625,0.0003195786848664284,0.0006499290466308594,0.0014829598367214203
1772717166508951800,7.301951904296875,-0.0008690850809216499,-0.0014220168814063072,0.00012012431398034096
1772717166528823800,7.32182373046875,0.0019259843975305557,0.0001077624037861824,-0.00039955880492925644
1772717166548697000,7.341697021484375,0.0010682642459869385,-0.003270336426794529,-0.0015507186762988567
1772717166568568800,7.36156884765625,0.002028070855885744,-0.0006171390414237976,0.0007206816226243973
1772717166588441900,7.38144189453125,0.00072459876537323,-0.0024011023342609406,0.0014016814529895782
1772717166608313900,7.40131396484375,0.0003827223554253578,0.0007517514750361443,-0.0023824800737202168
1772717166628187000,7.421186767578125,-0.0011933399364352226,0.0022806664928793907,0.0010788170620799065
1772717166648059000,7.441058837890625,0.00255629257299006,0.0005846889689564705,-0.0030033988878130913
1772717166667932000,7.460931884765625,-0.00025075115263462067,0.0018182126805186272,0.000010136514902114868
1772717166687804000,7.480803955078125,0.000908728688955307,0.0011868411675095558,-0.0029664081521332264
1772717166707677000,7.500677001953125,-0.002918677870184183,-0.0003880290314555168,-0.0020227013155817986
1772717166727549000,7.520548828125,0.0026378841139376163,-0.0023651309311389923,-0.00015546521171927452
1772717166747422000,7.540421875,-0.000921275932341814,-0.0013924259692430496,0.0008992147631943226
1772717166767294000,7.5602939453125,-0.0017300373874604702,-0.0013523241505026817,0.001011159736663103
1772717166787166700,7.580166748046875,-0.0006085578352212906,0.0014021731913089752,-0.00028476351872086525
1772717166807039000,7.6000390625,0.0011599576100707054,0.0016513988375663757,0.0007159113883972168
1772717166826912000,7.619912109375,0.0001295437105000019,-0.0015050014480948448,-0.0006698919460177422
1772717166846784000,7.639783935546875,-0.00048170145601034164,-0.000005472451448440552,-0.0009008841589093208
1772717166866657000,7.659656982421875,-0.0007703294977545738,0.0001072082668542862,0.002105510327965021
1772717166886529000,7.679529052734375,0.0001862635836005211,-0.0004384666681289673,-0.0005154889076948166
1772717166906401800,7.69940185546875,-0.0015431493520736694,0.0001606689766049385,-0.000037841033190488815
1772717166926273800,7.719273681640625,-0.0013262429274618626,-0.0009689582511782646,-0.0003468077629804611
1772717166946147000,7.73914697265625,0.0014341361820697784,0.00025463569909334183,0.00013122381642460823
1772717166966018800,7.759018798828125,-0.0008096699602901936,0.0014735162258148193,0.0001616734080016613
1772717166985891800,7.778891845703125,0.0014363494701683521,0.0020343130454421043,-0.000490307342261076
1772717167005764900,7.798764892578125,0.0005739536136388779,0.0005508149042725563,-0.0010734787210822105
1772717167025636900,7.818636962890625,0.0019193519838154316,-0.0009564347565174103,0.0018451386131346226
1772717167045510000,7.838510009765625,0.0005041412077844143,0.0015868386253714561,0.0019798907451331615
1772717167065382000,7.8583818359375,-0.0009225243702530861,0.002248666249215603,0.002010961063206196
1772717167085255000,7.8782548828125,-0.001667233183979988,0.000029725953936576843,0.002936888486146927
1772717167105127000,7.898126953125,-0.0005426197312772274,0.0002858629450201988,0.0006958232261240482
1772717167125000000,7.918,-0.00014926865696907043,-0.0011382605880498886,-0.0009378674440085888
1772717167144872000,7.937871826171875,0.0010667545720934868,0.0009340755641460419,0.0004577408544719219
1772717167164745000,7.957744873046875,-0.0016913246363401413,-0.0017396081238985062,0.0006391215138137341
1772717167184616700,7.97761669921875,0.0017218557186424732,-0.00009900052100419998,0.00026906002312898636
1772717167204490000,7.997489990234375,0.0008036727085709572,-0.0010538464412093163,-0.0005342727527022362
1772717167224362000,8.017362060546875,0.0006700484082102776,-0.0012971246615052223,0.0016558710485696793
1772717167244234800,8.03723486328125,0.00025566108524799347,-0.00017273053526878357,-0.0023879315704107285
1772717167264107000,8.05710693359375,0.0007765153422951698,0.00045563187450170517,0.0015737619251012802
1772717167283979800,8.076979736328125,-0.0002570045180618763,-0.00033292733132839203,0.0006808284670114517
1772717167303851800,8.096851806640625,0.0009188894182443619,0.0006962073966860771,0.00006886245682835579
1772717167323725000,8.11672509765625,-0.000717963557690382,0.0014594607055187225,-0.00019776495173573494
1772717167343597000,8.13659716796875,0.000052704475820064545,-0.003206589724868536,-0.000901663675904274
1772717167363469800,8.1564697265625,-0.0018821214325726032,0.00030731409788131714,0.0018170098774135113
1772717167383341800,8.176341796875,0.0006497600115835667,-0.0005329791456460953,0.0009628389962017536
1772717167403214800,8.19621484375,0.0005871285684406757,-0.00132701825350523,0.0004079025238752365
1772717167423086800,8.2160869140625,-0.0009219148196280003,0.0017167450860142708,-0.0017644227482378483
1772717167442960100,8.235960205078126,0.0019075176678597927,0.0006833504885435104,0.0008252807892858982
1772717167462831600,8.25583154296875,-0.0007292716763913631,0.0011331886053085327,-0.0016253702342510223
1772717167482704400,8.275704345703126,0.0015131286345422268,0.0000533396378159523,0.001567111350595951
1772717167502576400,8.295576416015624,0.0009960057213902473,0.0016802474856376648,-0.003082492621615529
1772717167522449400,8.315449462890625,-0.000837372150272131,0.00019226036965847015,0.00002145254984498024
1772717167542322400,8.335322509765625,0.0017597698606550694,0.0005300343036651611,-0.000980324111878872
1772717167562194400,8.3551943359375,0.0012663924135267735,0.000022504478693008423,0.002916690893471241
1772717167582067500,8.3750673828125,0.0018140901811420918,-0.0020628180354833603,-0.00018231896683573723
1772717167601939500,8.394939453125,0.0011138208210468292,0.0009179003536701202,-0.0006593824364244938
1772717167621812200,8.414812255859376,-0.0012844838201999664,0.0005926713347434998,0.0007042065262794495
1772717167641684500,8.4346845703125,0.00015245424583554268,-0.0010904977098107338,0.00039742887020111084
1772717167661557500,8.4545576171875,-0.0005314294248819351,0.0012200837954878807,0.0012008287012577057
1772717167681429500,8.474429443359375,-0.0012177713215351105,0.0009880978614091873,0.00030291080474853516
1772717167701302500,8.494302490234375,-0.00005821185186505318,-0.00019670557230710983,-0.0019338703714311123
1772717167721174500,8.514174560546875,0.0002806801348924637,0.001205146312713623,-0.0006801583804190159
1772717167741047300,8.53404736328125,0.0010063005611300468,0.0016285991296172142,-0.0005574855022132397
1772717167760919300,8.553919189453126,0.0010418901219964027,0.0003781914710998535,-0.0008656047284603119
1772717167780792600,8.57379248046875,0.003799739060923457,0.0005899462848901749,-0.000014830846339464188
1772717167800664300,8.593664306640624,0.00034863874316215515,0.0008182981982827187,-0.0030112513341009617
1772717167820537600,8.61353759765625,0.001222614198923111,0.0006293719634413719,-0.00026150187477469444
1772717167840409600,8.63340966796875,-0.0018319571390748024,0.001774778589606285,-0.0016072941944003105
1772717167860282400,8.653282470703125,0.002767709083855152,0.0004854705184698105,-0.0011765072122216225
1772717167880154400,8.673154296875,0.0011335867457091808,0.0002200845628976822,0.0006264233961701393
1772717167900027400,8.69302734375,0.00012172991409897804,-0.0014158980920910835,0.00005931314080953598
1772717167919899400,8.7128994140625,0.00004320405423641205,0.0018544765189290047,-0.000980206299573183
1772717167939772400,8.7327724609375,-0.0005413638427853584,-0.00008822325617074966,0.00019164104014635086
1772717167959644700,8.752644775390625,0.00004311976954340935,-0.0005275541916489601,0.0008778022602200508
1772717167979517400,8.772517333984375,0.0011276612058281898,0.0008943332359194756,0.000151908490806818
1772717167999389400,8.792389404296875,0.0014054756611585617,-0.00041068438440561295,-0.0008596628904342651
1772717168019262500,8.812262451171875,0.0012366287410259247,-0.0021951403468847275,-0.0008167671039700508
1772717168039134500,8.832134521484376,-0.0007102075032889843,0.0002981480211019516,-0.0001483703963458538
1772717168059007500,8.852007568359374,0.00023606931790709496,-0.0010788748040795326,0.002286341041326523
1772717168078879200,8.871879150390624,-0.0016361894086003304,0.000605427660048008,0.0013856058940291405
1772717168098752500,8.89175244140625,-0.0010676337406039238,0.00013737753033638,-0.00003452552482485771
1772717168118625300,8.911625244140625,0.0015496578998863697,0.00008281413465738297,-0.0003365250304341316
1772717168138497300,8.931497314453125,0.001937792170792818,0.0011850036680698395,-0.0013531488366425037
1772717168158370600,8.95137060546875,0.0003120182082056999,0.0021965494379401207,0.0013347114436328411
1772717168178242600,8.97124267578125,0.0005072862841188908,0.00044790375977754593,0.0007494073361158371
1772717168198115300,8.991115234375,-0.0013313191011548042,-0.0033454522490501404,-0.0006692954339087009
1772717168217987600,9.010987548828124,0.0011421828530728817,-0.004120747558772564,-0.0018311943858861923
1772717168237860400,9.0308603515625,0.00047244178131222725,0.00012009218335151672,0.0017804843373596668
1772717168257732400,9.050732421875,-0.0010244962759315968,-0.0005371179431676865,0.0008329339325428009
1772717168277605600,9.070605712890625,0.0030389316380023956,-0.0005955295637249947,0.0007225330919027328
1772717168297477400,9.090477294921875,0.0026397814508527517,0.0017523989081382751,-0.00013447878882288933
1772717168317350400,9.110350341796876,0.0010033524595201015,0.0012133941054344177,-0.001920534297823906
1772717168337222400,9.130222412109376,-0.0003067571669816971,0.0061063021421432495,0.001765877939760685
1772717168357095400,9.150095458984374,0.0015916903503239155,-0.0011461656540632248,-0.0007787845097482204
1772717168376967400,9.169967529296875,-0.0000897115096449852,-0.002288130111992359,0.000766014214605093
1772717168396840400,9.18984033203125,0.0010091508738696575,-0.001473529264330864,-0.0004138476215302944
1772717168416712400,9.20971240234375,0.001075918786227703,-0.0036774645559489727,-0.0014834878966212273
1772717168436585500,9.22958544921875,-0.0017359140329062939,0.0003218352794647217,-0.0008297404274344444
