time,seconds_elapsed,z,y,x
1772716977214596900,0.087596923828125,-0.02599339932203293,-0.05032135173678398,0.03211722522974014
1772716977234627800,0.1076279296875,-0.02926359698176384,-0.05748704820871353,0.05265636742115021
1772716977254658800,0.127658935546875,-0.034866008907556534,-0.061484187841415405,0.03407956659793854
1772716977274689800,0.147689697265625,-0.02912474423646927,-0.05056902766227722,0.04721521958708763
1772716977294721000,0.167720947265625,-0.012825483456254005,-0.06475842744112015,-0.022226937115192413
1772716977314752000,0.187751953125,-0.0011782294604927301,-0.10099339485168457,-0.09666476398706436
1772716977334783000,0.207782958984375,0.02298635244369507,-0.11922846734523773,-0.13965819776058197
1772716977354814000,0.22781396484375,0.08249976485967636,-0.10916639119386673,-0.18387094140052795
1772716977374845000,0.247844970703125,0.11309172213077545,-0.012633338570594788,-0.04525906592607498
1772716977394876000,0.2678759765625,0.12536434829235077,0.156101256608963,0.3567344844341278
1772716977414907000,0.287906982421875,0.2737133502960205,0.2907261848449707,0.47609424591064453
1772716977434937900,0.307937744140625,0.3875243663787842,0.39102157950401306,0.547137975692749
1772716977454968800,0.32796875,0.3982156217098236,0.4876955449581146,0.6437085866928101
1772716977474999800,0.347999755859375,0.3022986948490143,0.4592157304286957,0.5345964431762695
1772716977495030000,0.368030029296875,0.2090253084897995,0.3012291193008423,0.32435670495033264
1772716977515061000,0.38806103515625,0.045900292694568634,0.008725430816411972,-0.07326484471559525
1772716977535092200,0.40809228515625,-0.183002308011055,-0.24823418259620667,-0.2902342975139618
1772716977555123200,0.428123291015625,-0.31861642003059387,-0.32766857743263245,-0.3228358030319214
1772716977575154200,0.448154296875,-0.29564720392227173,-0.404117614030838,-0.3793413043022156
1772716977595185200,0.46818505859375,-0.08811907470226288,-0.21960745751857758,-0.29215484857559204
1772716977615216000,0.488216064453125,0.08180967718362808,-0.044690266251564026,-0.016589215025305748
1772716977635247000,0.5082470703125,0.13229098916053772,0.07168474048376083,0.07311790436506271
1772716977655278000,0.528278076171875,0.08887980133295059,0.11357469111680984,0.07956621050834656
1772716977675309000,0.54830908203125,0.04943234100937843,0.011834478005766869,0.03145521879196167
1772716977695340000,0.568340087890625,-0.01714853011071682,-0.04779180884361267,-0.02396509423851967
1772716977715371000,0.58837109375,-0.02421385608613491,-0.054135411977767944,-0.06766051054000854
1772716977735402200,0.60840234375,0.01156538538634777,-0.04009769856929779,-0.1249232068657875
1772716977755432400,0.628432373046875,0.011570445261895657,-0.032235246151685715,-0.108889639377594
1772716977775463400,0.64846337890625,0.016826113685965538,-0.012713740579783916,-0.08166662603616714
1772716977795494400,0.668494384765625,0.029507510364055634,0.0020248685032129288,-0.06715401262044907
1772716977815525400,0.688525390625,0.025810757651925087,0.005344209261238575,-0.03197159245610237
1772716977835556400,0.708556396484375,0.01461492944508791,-0.01321729738265276,-0.006679327227175236
1772716977855587300,0.72858740234375,0.007032665424048901,-0.016724485903978348,0.006893881596624851
1772716977875618300,0.748618408203125,-0.005082015413790941,-0.03289239481091499,0.008346964605152607
1772716977895649300,0.768649169921875,-0.010752908885478973,-0.05266055464744568,-0.009897075593471527
1772716977915680300,0.78868017578125,-0.013214796781539917,-0.06373395770788193,-0.04008694738149643
1772716977935711200,0.808711181640625,-0.0093027763068676,-0.06140146031975746,-0.06783705949783325
1772716977955742500,0.828742431640625,-0.0029668505303561687,-0.05963302403688431,-0.10321429371833801
1772716977975773400,0.8487734375,0.003005370032042265,-0.02806108072400093,-0.11882638931274414
1772716977995804400,0.868804443359375,0.003845862578600645,0.0025786831974983215,-0.07541453838348389
1772716978015835400,0.88883544921875,-0.020968014374375343,0.03573630005121231,0.003915148321539164
1772716978035865300,0.908865234375,-0.034907370805740356,0.03038404881954193,0.010746126994490623
1772716978055896300,0.928896240234375,-0.027437491342425346,0.04361923038959503,-0.031052863225340843
1772716978075927300,0.94892724609375,-0.025402691215276718,0.030205300077795982,-0.03977188467979431
1772716978095958300,0.968958251953125,-0.03488297015428543,-0.00981992855668068,-0.037703461945056915
1772716978115989200,0.9889892578125,-0.05012389272451401,-0.03063379041850567,-0.005310939159244299
1772716978136020200,1.009020263671875,-0.04830401390790939,-0.03400208428502083,-0.0004823431372642517
1772716978156051200,1.02905126953125,-0.04136698693037033,-0.052882030606269836,-0.0027446742169559
1772716978176082400,1.04908251953125,-0.03692452982068062,-0.057201631367206573,-0.006667640060186386
1772716978196113400,1.069113525390625,-0.02674652263522148,-0.05603274330496788,-0.030327973887324333
1772716978216144400,1.089144287109375,-0.013924118131399155,-0.023285280913114548,-0.03900360316038132
1772716978236175400,1.10917529296875,-0.017742518335580826,-0.03298163414001465,-0.020054198801517487
1772716978256206300,1.129206298828125,-0.023995045572519302,-0.026991698890924454,-0.01509518176317215
1772716978276237300,1.1492373046875,-0.017404543235898018,-0.015411403961479664,-0.011998334899544716
1772716978296268300,1.169268310546875,-0.010536720976233482,-0.007209254894405603,-0.023740125820040703
1772716978316298200,1.18929833984375,-0.004616473335772753,0.01042251754552126,-0.027436189353466034
1772716978336329200,1.2093291015625,-0.008601442910730839,0.00546238012611866,-0.019403111189603806
1772716978356360200,1.229360107421875,-0.0059762438759207726,-0.0010029282420873642,-0.022673524916172028
1772716978376391200,1.24939111328125,0.0011563370935618877,-0.029452582821249962,-0.04365680366754532
1772716978396422100,1.269422119140625,-0.005861092358827591,-0.04015662521123886,-0.026669032871723175
1772716978416453400,1.289453369140625,-0.001154016936197877,0.0015680380165576935,0.026738978922367096
1772716978436484400,1.309484375,0.0074388375505805016,0.008519397117197514,0.04551837593317032
1772716978456515300,1.329515380859375,0.020868297666311264,0.017811022698879242,0.005863287951797247
1772716978476546300,1.34954638671875,0.018666252493858337,0.009625917300581932,-0.026671651750802994
1772716978496577300,1.369577392578125,0.01559818722307682,0.0048980070278048515,-0.03690442442893982
1772716978516608300,1.389608154296875,0.018792875111103058,-0.0015099700540304184,-0.03586851432919502
1772716978536639200,1.40963916015625,0.020572852343320847,0.0060882968828082085,-0.016703156754374504
1772716978556670200,1.429670166015625,0.014393948018550873,0.006369258277118206,0.006248926743865013
1772716978576700200,1.4497001953125,0.02296922542154789,-0.00569621566683054,0.01626412756741047
1772716978596731100,1.469731201171875,0.01394024956971407,0.0024435902014374733,0.042918022722005844
1772716978616762000,1.48976220703125,0.013042045757174492,-0.0018585780635476112,0.03818067908287048
1772716978636793300,1.50979345703125,0.01656106486916542,-0.024947021156549454,0.018128519877791405
1772716978656824300,1.52982421875,0.02211598865687847,-0.01306833140552044,0.004052605014294386
1772716978676855300,1.549855224609375,0.025459567084908485,0.0038728108629584312,0.024298420175909996
1772716978696886300,1.56988623046875,0.02923467941582203,-0.003721991553902626,0.02679787576198578
1772716978716917200,1.589917236328125,0.02865339256823063,-0.00431703869253397,0.031800247728824615
1772716978736948700,1.60994873046875,0.03529369831085205,-0.03732328861951828,-0.010995103046298027
1772716978756979700,1.629979736328125,0.013381906785070896,-0.0323486253619194,-0.0434388741850853
1772716978777010700,1.6500107421875,0.007480279542505741,-0.01649310812354088,-0.009654629044234753
1772716978797041700,1.670041748046875,-0.000483944546431303,0.011248557828366756,0.03908127546310425
1772716978817072600,1.69007275390625,0.0003652751911431551,0.020247232168912888,0.04117096960544586
1772716978837102600,1.7101025390625,0.006138558965176344,0.013300715945661068,0.02770093083381653
1772716978857133600,1.730133544921875,0.00955787394195795,-0.008146881125867367,0.034678298979997635
1772716978877164500,1.75016455078125,0.012965694069862366,-0.006008847616612911,0.029364097863435745
1772716978897195500,1.770195556640625,0.0068807415664196014,-0.011677023023366928,0.006663611624389887
1772716978917226500,1.7902265625,0.015369607135653496,-0.004621558822691441,-0.020051412284374237
1772716978937257500,1.810257568359375,0.014086168259382248,0.010293063707649708,-0.0036730580031871796
1772716978957288700,1.830288818359375,0.02578156255185604,0.030585408210754395,0.014008034020662308
1772716978977319700,1.850319580078125,0.02872595563530922,0.03474942967295647,0.03629317507147789
1772716978997350700,1.8703505859375,0.021031199023127556,0.02946307882666588,0.043149709701538086
1772716979017381600,1.890381591796875,0.015106980688869953,0.004908611066639423,0.024251926690340042
1772716979037412600,1.91041259765625,0.019930271431803703,-0.0051928069442510605,-0.011031551286578178
1772716979057443600,1.930443603515625,0.02755502425134182,0.021848082542419434,0.002245929092168808
1772716979077474600,1.950474609375,0.015191113576292992,0.013561827130615711,0.046709686517715454
1772716979097505500,1.970505615234375,0.014593152329325676,0.005981768481433392,0.03282727301120758
1772716979117535500,1.990535400390625,0.019077423959970474,0.01948465034365654,0.012180337682366371
1772716979137566500,2.01056640625,0.020138323307037354,0.01810592971742153,0.02256948873400688
1772716979157597400,2.030597412109375,0.008266362361609936,0.008667469955980778,0.01972467638552189
1772716979177628400,2.05062841796875,0.011496143415570259,0.0004029544070363045,0.0022296160459518433
1772716979197659600,2.07065966796875,0.011723924428224564,-0.003308256156742573,0.016472354531288147
1772716979217690600,2.090690673828125,0.01421467587351799,0.004087510518729687,0.02296937257051468
1772716979237721600,2.1107216796875,0.0142936697229743,0.02135588228702545,0.031178003177046776
1772716979257752600,2.130752685546875,0.01768041029572487,0.014380532316863537,0.03841913491487503
1772716979277783600,2.150783447265625,0.005809782072901726,0.010936482809484005,0.0419718474149704
1772716979297814500,2.170814453125,0.012659819796681404,0.01391065213829279,0.01904764398932457
1772716979317845500,2.190845458984375,0.010790405794978142,0.007193386554718018,0.017543397843837738
1772716979337876500,2.21087646484375,-0.0007856795564293861,0.005495766177773476,0.03904858976602554
1772716979357907500,2.230907470703125,-0.003600949188694358,0.014688610099256039,0.043342653661966324
1772716979377938700,2.250938720703125,0.0016855900175869465,0.018540680408477783,0.01168410386890173
1772716979397968600,2.27096875,0.002209370955824852,0.01538681797683239,-0.012797623872756958
1772716979418000000,2.290999755859375,-0.005392580758780241,0.012878072448074818,0.01070205494761467
1772716979438030600,2.311030517578125,-0.0009665731340646744,-0.0030428124591708183,0.027765605598688126
1772716979458061600,2.3310615234375,0.002922853222116828,0.0019553592428565025,0.030037865042686462
1772716979478092500,2.351092529296875,-0.002449153456836939,-0.010956492274999619,0.019887518137693405
1772716979498123500,2.37112353515625,-0.00564500642940402,-0.019200647249817848,0.006600804626941681
1772716979518154500,2.391154541015625,-0.02030458301305771,-0.006993538700044155,0.0443657711148262
1772716979538185500,2.411185546875,-0.01865627057850361,-0.010256445035338402,0.027679018676280975
1772716979558216400,2.431216552734375,-0.02874012477695942,0.008636045269668102,-0.007182305213063955
1772716979578247400,2.451247314453125,-0.06230805814266205,0.007581748068332672,-0.03888353705406189
1772716979598278400,2.4712783203125,-0.07404067367315292,-0.04780203104019165,-0.06051301583647728
1772716979618309600,2.4913095703125,-0.06577201932668686,-0.024609792977571487,-0.06899438053369522
1772716979638340600,2.511340576171875,-0.031855836510658264,0.005830137990415096,-0.004807378631085157
1772716979658371600,2.53137158203125,-0.01242828369140625,0.023951329290866852,0.020265761762857437
1772716979678402600,2.551402587890625,0.008331669494509697,0.02857600525021553,0.026942577213048935
1772716979698432800,2.571432861328125,0.0033217950258404016,0.002319679595530033,0.013605896383523941
1772716979718463700,2.591463623046875,-0.01811233162879944,-0.007905988022685051,0.020465871319174767
1772716979738494000,2.611493896484375,-0.035403721034526825,-0.005301536060869694,0.06069984659552574
1772716979758525000,2.63152490234375,-0.04714297503232956,-0.0061670150607824326,0.06563714146614075
1772716979778556200,2.65155615234375,-0.040934618562459946,-0.015811290591955185,0.004921254236251116
1772716979798587100,2.671587158203125,-0.03118845261633396,-0.004698210395872593,-0.014559756964445114
1772716979818618000,2.6916181640625,-0.03576476499438286,0.004746836610138416,-0.0036700046621263027
1772716979838649000,2.711649169921875,-0.04470190405845642,-0.0030867792665958405,-0.0272730253636837
1772716979858680000,2.73168017578125,-0.025482896715402603,-0.0018081478774547577,-0.054645925760269165
1772716979878711000,2.7517109375,-0.023375453427433968,0.012360208667814732,-0.07470782101154327
1772716979898742000,2.771741943359375,-0.026809988543391228,0.022038813680410385,-0.08521062880754471
1772716979918773000,2.79177294921875,-0.026101894676685333,0.022394394502043724,-0.04023617133498192
1772716979938804000,2.811803955078125,-0.020578784868121147,0.04468342661857605,-0.00936274603009224
1772716979958835200,2.831835205078125,-0.0022996889892965555,0.05702146887779236,-0.04084426164627075
1772716979978866200,2.8518662109375,0.051499709486961365,0.04848887026309967,-0.1238175556063652
1772716979998896000,2.871896240234375,0.07936956733465195,0.06047447770833969,-0.14012491703033447
1772716980018927000,2.891927001953125,0.07388384640216827,0.02977287769317627,-0.12256579101085663
1772716980038958000,2.9119580078125,0.07517480105161667,0.013363494537770748,-0.1234390139579773
1772716980058989000,2.931989013671875,0.05383085459470749,-0.0009115329012274742,-0.13441145420074463
1772716980079020000,2.95202001953125,0.017488909885287285,-0.0314631462097168,-0.16760599613189697
1772716980099051000,2.972051025390625,-0.0029994642827659845,-0.039749983698129654,-0.1594851315021515
1772716980119082000,2.99208203125,-0.00040964107029139996,-0.038548387587070465,-0.07152532041072845
1772716980139113000,3.012113037109375,0.026154406368732452,-0.020548254251480103,-0.008265654556453228
1772716980159144000,3.03214404296875,0.023406516760587692,-0.02715729922056198,0.02807285077869892
1772716980179175000,3.0521748046875,0.02688528038561344,-0.022621694952249527,0.08208610862493515
1772716980199206100,3.0722060546875,0.04157676920294762,-0.007048327475786209,0.09469260275363922
1772716980219237000,3.092237060546875,0.051162201911211014,-0.01111683901399374,0.05372405797243118
1772716980239268000,3.11226806640625,0.03711763396859169,-0.015938613563776016,0.013532863929867744
1772716980259299000,3.132299072265625,0.016600091010332108,-0.015187893062829971,-0.025867074728012085
1772716980279330000,3.152330078125,0.011428763158619404,-0.0013298681005835533,-0.03722705319523811
1772716980299360000,3.172360107421875,0.01140108797699213,0.006502150557935238,-0.050467349588871
1772716980319391000,3.192390869140625,0.010304007679224014,0.012284550815820694,-0.031362198293209076
1772716980339422000,3.212421875,0.029467562213540077,0.011244296096265316,-0.033701587468385696
1772716980359453000,3.232452880859375,0.03520146757364273,-0.0045599183067679405,-0.04069296643137932
1772716980379484000,3.25248388671875,0.033485062420368195,0.00011036917567253113,-0.041384246200323105
1772716980399515000,3.272514892578125,0.04291371628642082,0.005238818004727364,-0.0369839072227478
1772716980419546000,3.292546142578125,0.05715927481651306,0.005022789351642132,-0.012755323201417923
1772716980439577000,3.3125771484375,0.06647545844316483,-0.009293300099670887,-0.03368225693702698
1772716980459608000,3.332608154296875,0.06615977734327316,-0.01958172209560871,-0.03480880334973335
1772716980479639000,3.35263916015625,0.04624883830547333,-0.024184461683034897,-0.023584727197885513
1772716980499670000,3.372669921875,0.03317922726273537,-0.04489991068840027,-0.00323735224083066
1772716980519701000,3.392700927734375,0.023921038955450058,-0.020640715956687927,-0.006875620223581791
1772716980539732000,3.41273193359375,0.008147257380187511,-0.012544486671686172,-0.00118335522711277
1772716980559763000,3.432762939453125,0.011526357382535934,-0.012565357610583305,-0.016400769352912903
1772716980579794000,3.4527939453125,0.03523382171988487,-0.007845266722142696,-0.008615742437541485
1772716980599825000,3.472824951171875,0.053665246814489365,0.0024803178384900093,0.011787706054747105
1772716980619854800,3.492854736328125,0.05466446653008461,-0.013807406648993492,-0.003218598896637559
1772716980639885800,3.5128857421875,0.05086081847548485,-0.01787720061838627,-0.047217775136232376
1772716980659917000,3.5329169921875,0.05752023309469223,-0.029603172093629837,-0.06364810466766357
1772716980679948000,3.552947998046875,0.04990744963288307,-0.03327058628201485,-0.043619897216558456
1772716980699979000,3.57297900390625,0.034276045858860016,-0.0487084686756134,-0.04009240120649338
1772716980720010000,3.593010009765625,0.02150559239089489,-0.044629454612731934,-0.055928174406290054
1772716980740041000,3.613041015625,-0.015547645278275013,-0.006908221170306206,0.0037519587203860283
1772716980760072000,3.633072021484375,-0.02776915580034256,-0.00979385245591402,-0.03310851380228996
1772716980780103000,3.65310302734375,-0.0068232109770178795,-0.013742595911026001,-0.10225772112607956
1772716980800134000,3.6731337890625,0.01218571700155735,0.00726662389934063,-0.08601273596286774
1772716980820164900,3.693164794921875,0.027422070503234863,0.013184940442442894,-0.06564665585756302
1772716980840195800,3.71319580078125,0.026374217122793198,0.006881166249513626,-0.0749959945678711
1772716980860227000,3.73322705078125,0.0005929332692176104,-0.008211426436901093,-0.07218010723590851
1772716980880258000,3.753258056640625,-0.019256465137004852,-0.0066900355741381645,-0.04207993298768997
1772716980900289000,3.7732890625,-0.024369364604353905,0.0008447738364338875,-0.0005578347481787205
1772716980920320000,3.793320068359375,-0.0037774548400193453,0.01006604079157114,0.02511446923017502
1772716980940350000,3.813349853515625,0.018479667603969574,0.03340184688568115,0.02305264212191105
1772716980960381000,3.833380859375,0.034938082098960876,0.04871226102113724,0.04377858340740204
1772716980980412000,3.853411865234375,0.04512797296047211,0.045866433531045914,0.07159704715013504
1772716981000443000,3.87344287109375,0.040338240563869476,0.014833001419901848,0.10986527800559998
1772716981020473900,3.893473876953125,0.02033410780131817,-0.016957564279437065,0.12697653472423553
1772716981040504800,3.9135048828125,0.0014195188414305449,-0.027314886450767517,0.11631370335817337
1772716981060535800,3.933535888671875,-0.01383975986391306,-0.02203391119837761,0.10121433436870575
1772716981080567000,3.953567138671875,-0.0037660468369722366,-0.01837174966931343,0.07311439514160156
1772716981100598000,3.973597900390625,0.0007874895818531513,-0.006658853963017464,0.06268694996833801
1772716981120628200,3.993628173828125,-0.01247028075158596,-0.007317114621400833,0.07707559317350388
1772716981140659200,4.0136591796875,-0.03353098779916763,-0.024356454610824585,0.05897225812077522
1772716981160690200,4.033690185546875,-0.04464470595121384,-0.02505064383149147,0.018884070217609406
1772716981180721200,4.05372119140625,-0.06173331290483475,-0.03491053730249405,-0.019986938685178757
1772716981200752000,4.073752197265625,-0.07185281068086624,-0.031019853428006172,-0.02576640620827675
1772716981220783000,4.093783203125,-0.08781745284795761,-0.034580208361148834,0.013889115303754807
1772716981240814000,4.11381396484375,-0.0699603259563446,-0.02402227558195591,0.035437311977148056
1772716981260845000,4.133844970703125,-0.05195629596710205,-0.016173746436834335,0.05045313015580177
1772716981280876000,4.1538759765625,-0.039948757737874985,-0.008176758885383606,0.06127513200044632
1772716981300907000,4.173906982421875,-0.03080882877111435,0.008307990618050098,0.06290104240179062
1772716981320937000,4.19393701171875,-0.025789547711610794,0.027468200773000717,0.06153559312224388
1772716981340968000,4.213968017578125,-0.007216477766633034,0.023686174303293228,0.03690458834171295
1772716981360999200,4.233999267578125,0.0032125215511769056,0.039617180824279785,0.004631879739463329
1772716981381030100,4.254030029296875,-0.0011455360800027847,0.035346824675798416,-0.005406385753303766
1772716981401061000,4.27406103515625,-0.01554117165505886,0.020475899800658226,-0.031661003828048706
1772716981421092000,4.294092041015625,-0.02033127471804619,0.024381719529628754,-0.06805985420942307
1772716981441123000,4.314123046875,-0.016428660601377487,0.014113319106400013,-0.04368029162287712
1772716981461154000,4.334154052734375,-0.009916678071022034,0.0022089164704084396,0.003216520883142948
1772716981481185000,4.35418505859375,0.0011397821363061666,-0.01219798531383276,0.02897575870156288
1772716981501216000,4.374216064453125,-0.0056528327986598015,-0.03384360298514366,0.03213196620345116
1772716981521247000,4.3942470703125,-0.012164752930402756,-0.03550546243786812,0.0001252414658665657
1772716981541280000,4.414280029296875,-0.018385304138064384,-0.023163599893450737,-0.012335676699876785
1772716981561311000,4.43431103515625,-0.02085931785404682,-0.01800401508808136,-0.010750817134976387
1772716981581342000,4.454342041015625,-0.013832036405801773,-0.004211238585412502,-0.01480201818048954
1772716981601373000,4.474373046875,-0.013548389077186584,-0.00543520413339138,-0.0416460782289505
1772716981621404000,4.49440380859375,-0.00034406897611916065,-0.007377252448350191,-0.07608132809400558
1772716981641433900,4.514433837890625,0.001518340315669775,-0.01505490392446518,-0.0903305634856224
1772716981661464800,4.53446484375,-0.01032826118171215,-0.011893609538674355,-0.07707556337118149
1772716981681495800,4.554495849609375,-0.02932577393949032,-0.018406152725219727,-0.06137511134147644
1772716981701527000,4.574527099609375,-0.040279459208250046,-0.03996933251619339,-0.06061907485127449
1772716981721558000,4.59455810546875,-0.0337330624461174,-0.03894943743944168,-0.05102647840976715
1772716981741589200,4.61458935546875,-0.021234314888715744,-0.03382285684347153,-0.0244918055832386
1772716981761620200,4.6346201171875,0.0008540262933820486,-0.017380859702825546,-0.0011447831057012081
1772716981781651200,4.654651123046875,0.008626728318631649,-0.0140905249863863,0.0032598190009593964
1772716981801682200,4.67468212890625,0.004815621301531792,-0.030140984803438187,-0.016856467351317406
1772716981821713200,4.694713134765625,-0.009579564444720745,-0.02769770286977291,-0.02103743888437748
1772716981841744100,4.714744140625,-0.009669024497270584,-0.03650201857089996,-0.037374380975961685
1772716981861775000,4.734775146484375,0.001679625827819109,-0.021165721118450165,-0.03721137344837189
1772716981881806000,4.75480615234375,0.007933609187602997,-0.014902062714099884,-0.004495082888752222
1772716981901837000,4.774837158203125,0.011985138058662415,-0.01669306308031082,0.016337506473064423
1772716981921868300,4.794868408203125,0.012101436033844948,-0.005981732159852982,0.030218280851840973
1772716981941899300,4.814899169921875,0.0124172642827034,0.0023734774440526962,0.027472948655486107
1772716981961930200,4.83493017578125,0.011699340306222439,0.004602055996656418,0.009888792410492897
1772716981981961200,4.854961181640625,-0.0004515969194471836,0.026856668293476105,0.005845922045409679
1772716982001992200,4.8749921875,-0.004304251633584499,0.03821645304560661,0.0019883504137396812
1772716982022023200,4.895023193359375,-0.001182266278192401,0.031906213611364365,-0.011566134169697762
1772716982042054100,4.91505419921875,0.00044961576350033283,0.017350876703858376,-0.03251272439956665
1772716982062084000,4.935083984375,-0.0046523865312337875,0.01259623747318983,-0.04853654280304909
1772716982082115000,4.955114990234375,-0.011057758703827858,0.016316018998622894,-0.03787396103143692
1772716982102146000,4.97514599609375,-0.017380062490701675,0.032451361417770386,-0.018801596015691757
1772716982122177000,4.995177001953125,-0.024201733991503716,0.03222165256738663,0.008922968059778214
1772716982142208300,5.015208251953125,-0.02544710598886013,0.006316721439361572,0.0015963404439389706
1772716982162239200,5.0352392578125,-0.03659038618206978,-0.0031347395852208138,0.0008702082559466362
1772716982182270200,5.055270263671875,-0.052280791103839874,-0.009715363383293152,-0.009606958366930485
1772716982202301200,5.07530126953125,-0.05679560825228691,-0.00043632928282022476,-0.019118567928671837
1772716982222332200,5.095332275390625,-0.062714584171772,0.0059891510754823685,-0.0023901453241705894
1772716982242363100,5.115363037109375,-0.057926978915929794,0.004794870503246784,0.0106013473123312
1772716982262394000,5.13539404296875,-0.056224871426820755,0.016461454331874847,0.020956747233867645
1772716982282425000,5.155425048828125,-0.03909359499812126,0.01116970181465149,0.02697375789284706
1772716982302456000,5.1754560546875,-0.04641450196504593,0.022288085892796516,0.06144360452890396
1772716982322487000,5.195487060546875,-0.05951700732111931,0.016367055475711823,0.07479636371135712
1772716982342518300,5.215518310546875,-0.07051266729831696,-0.01120661199092865,0.0692000687122345
1772716982362549200,5.23554931640625,-0.0745462030172348,-0.013066831044852734,0.06464268267154694
1772716982382580200,5.255580322265625,-0.08244378864765167,-0.017190709710121155,0.08429181575775146
1772716982402611200,5.275611083984375,-0.07725788652896881,-0.03368913754820824,0.08032335340976715
1772716982422642200,5.29564208984375,-0.06788529455661774,-0.023098085075616837,0.048360079526901245
1772716982442673200,5.315673095703125,-0.06511544436216354,-0.01637645997107029,0.046593114733695984
1772716982462704000,5.3357041015625,-0.07591986656188965,-0.015468203462660313,0.05532907694578171
1772716982482734000,5.355734130859375,-0.07472667098045349,-0.01439598947763443,0.045985523611307144
1772716982502765000,5.37576513671875,-0.06163167953491211,-0.0032691825181245804,0.05103002116084099
1772716982522796000,5.395796142578125,-0.05145072937011719,0.009568925946950912,0.03972766548395157
1772716982542827000,5.415826904296875,-0.04020451754331589,0.0207989439368248,0.02943236008286476
1772716982562858000,5.43585791015625,-0.033691614866256714,0.006122940219938755,0.031011249870061874
1772716982582889200,5.45588916015625,-0.03291084244847298,0.0029486706480383873,0.02835351973772049
1772716982602920200,5.475920166015625,-0.04015510901808739,0.0012989863753318787,0.016860203817486763
1772716982622951200,5.495951171875,-0.036108192056417465,-0.00008312053978443146,-0.010340932756662369
1772716982642982100,5.515982177734375,-0.020941531285643578,0.008848105557262897,-0.025838609784841537
1772716982663013000,5.53601318359375,-0.013320956379175186,0.009652135893702507,-0.015203554183244705
1772716982683044000,5.556044189453125,-0.01489277370274067,-0.014735251665115356,0.002847283147275448
1772716982703075000,5.576074951171875,-0.02090238220989704,0.01138476561754942,0.0201757550239563
1772716982723106000,5.59610595703125,-0.02278370037674904,-0.010140112601220608,0.028058622032403946
1772716982743137300,5.61613720703125,-0.03454982861876488,-0.019282162189483643,0.016276348382234573
1772716982763168300,5.636168212890625,-0.039098817855119705,-0.00895178597420454,-0.00967332161962986
1772716982783199200,5.65619921875,-0.0444941371679306,-0.005201281048357487,-0.010167937725782394
1772716982803230200,5.676230224609375,-0.03329984471201897,-0.011129525490105152,-0.003994867205619812
1772716982823261200,5.69626123046875,-0.024812353774905205,-0.009393580257892609,0.0013545500114560127
1772716982843292200,5.716292236328125,-0.011946582235395908,-0.006458993069827557,-0.018616359680891037
1772716982863323100,5.7363232421875,-0.014897877350449562,-0.01927463337779045,-0.025182049721479416
1772716982883354000,5.75635400390625,-0.014458660036325455,-0.007299851160496473,-0.027071740478277206
1772716982903385000,5.776385009765625,-0.003004443598911166,0.005680879577994347,-0.016022954136133194
1772716982923415300,5.796415283203125,0.013968863524496555,0.01581333577632904,-0.005603300407528877
1772716982943446300,5.8164462890625,0.017916735261678696,0.01373623963445425,-0.012878980487585068
1772716982963477200,5.836477294921875,0.014401914551854134,0.014350122772157192,-0.023747805505990982
1772716982983508200,5.85650830078125,-0.00009446986950933933,0.0028910739347338676,-0.006017278414219618
1772716983003539200,5.876539306640625,-0.003700901521369815,-0.00606308039277792,0.0009206654503941536
1772716983023570200,5.896570068359375,-0.0009970958344638348,-0.0006503993645310402,-0.005136118270456791
1772716983043601200,5.91660107421875,0.0068277632817626,0.011563173495233059,-0.014145536348223686
1772716983063632100,5.936632080078125,0.006709149107336998,0.016138385981321335,-0.011040855199098587
1772716983083663000,5.9566630859375,0.005490465089678764,0.0071292538195848465,-0.0028682891279459
1772716983103694000,5.976694091796875,0.0082461629062891,0.010224669240415096,-0.003194884629920125
1772716983123725000,5.99672509765625,0.007180260494351387,0.002444244921207428,-0.008611595258116722
1772716983143756000,6.016756103515625,0.0022071783896535635,-0.00035473890602588654,-0.00437652925029397
1772716983163787300,6.036787353515625,-0.009873395785689354,-0.008284129202365875,-0.015200554393231869
1772716983183818200,6.056818359375,0.006387706845998764,0.007482484914362431,-0.030217669904232025
1772716983203849200,6.07684912109375,0.028494317084550858,0.016510671004652977,-0.02350771240890026
1772716983223880200,6.096880126953125,0.025333311408758163,0.009646181017160416,0.013422384858131409
1772716983243911200,6.1169111328125,0.008219015784561634,0.0004469938576221466,0.020456375554203987
1772716983263942100,6.136942138671875,0.0009167140815407038,-0.01148319337517023,-0.003999660722911358
1772716983283973000,6.15697314453125,-0.0007003603968769312,0.004366536624729633,-0.01766235940158367
1772716983304004000,6.177004150390625,0.00014384347014129162,0.02020689658820629,-0.02491520531475544
1772716983324035000,6.19703515625,0.0023217948619276285,0.008165803737938404,-0.028988517820835114
1772716983344066000,6.217066162109375,0.006103218533098698,0.0066450415179133415,-0.01968681998550892
1772716983364096300,6.23709619140625,0.006551961414515972,0.017833780497312546,-0.0010036788880825043
1772716983384127500,6.25712744140625,0.01594894379377365,0.015433328226208687,-0.00008223345503211021
1772716983404158500,6.277158447265625,0.016628891229629517,0.003979724831879139,-0.024566251784563065
1772716983424189400,6.297189453125,-0.03184016793966293,-0.036092400550842285,-0.09907903522253036
1772716983444220400,6.317220458984375,-0.046441830694675446,-0.045352548360824585,-0.08276234567165375
1772716983464251400,6.33725146484375,-0.047784965485334396,-0.059378013014793396,-0.10628573596477509
1772716983484282400,6.357282470703125,-0.030942438170313835,-0.03574362024664879,-0.08954407274723053
1772716983504313300,6.377313232421875,-0.00120252906344831,-0.01202112715691328,-0.04042063653469086
1772716983524344300,6.39734423828125,0.008192631416022778,-0.008852522820234299,-0.009715443477034569
1772716983544375300,6.417375244140625,0.007535097189247608,0.004096298478543758,0.03476094454526901
1772716983564406300,6.43740625,0.010677607730031013,0.012590693309903145,0.04896324872970581
1772716983584437200,6.457437255859375,0.011838172562420368,0.0032818326726555824,0.02353551611304283
1772716983604468200,6.47746826171875,0.0062222410924732685,0.0052054086700081825,-0.001216075848788023
1772716983624499200,6.497499267578125,-0.0014605715405195951,-0.0029627950862050056,-0.00006789667531847954
1772716983644530200,6.5175302734375,-0.002171529922634363,-0.016532400622963905,-0.013124468736350536
1772716983664561200,6.53756103515625,0.009667757898569107,-0.0033619804307818413,-0.016986064612865448
1772716983684592000,6.557592041015625,0.015756869688630104,0.0011789510026574135,0.0036939261481165886
1772716983704623000,6.577623046875,0.014266669750213623,0.0005488470196723938,0.00202582823112607
1772716983724654000,6.597654052734375,0.011553682386875153,-0.004250070080161095,0.0005284962244331837
1772716983744685600,6.617685546875,0.007889891043305397,0.0028451234102249146,-0.0013539050705730915
1772716983764716500,6.637716552734375,0.017395062372088432,0.01148075982928276,0.0054866555146873
1772716983784747500,6.65774755859375,0.0217966940253973,0.012669377960264683,0.014361696317791939
1772716983804778800,6.67777880859375,0.01956811733543873,0.018789734691381454,0.01762404851615429
1772716983824809700,6.697809814453125,0.02444625273346901,0.014475871808826923,-0.002997996751219034
1772716983844840700,6.7178408203125,0.020702093839645386,0.01605004444718361,-0.015328500419855118
1772716983864871000,6.737870849609375,0.027945194393396378,0.00946423877030611,-0.013456341810524464
1772716983884902000,6.75790185546875,0.021363580599427223,0.009121174924075603,-0.0020872836466878653
1772716983904932900,6.777932861328125,0.00893112737685442,0.010376469232141972,-0.007521189749240875
1772716983924963800,6.7979638671875,0.0011673143599182367,-0.0038852673023939133,-0.008647026494145393
1772716983944994800,6.817994873046875,-0.010395083576440811,-0.017253659665584564,0.0000050584785640239716
1772716983965025500,6.838025634765625,-0.0018728877184912562,-0.010462064296007156,-0.003950455226004124
1772716983985056500,6.858056396484375,0.011187499389052391,-0.008701108396053314,-0.009237239137291908
1772716984005087500,6.87808740234375,0.022176912054419518,-0.007550043053925037,-0.018240343779325485
1772716984025118700,6.89811865234375,0.0197066068649292,-0.005441498942673206,-0.016195550560951233
1772716984045149700,6.918149658203125,0.014571701176464558,0.013168091885745525,-0.015629790723323822
1772716984065180700,6.9381806640625,0.0022196953650563955,-0.01145053282380104,-0.007708409801125526
1772716984085211600,6.958211669921875,-0.001349414000287652,-0.009989449754357338,0.006946103181689978
1772716984105242600,6.97824267578125,0.011704931035637856,-0.010038839653134346,-0.006991729140281677
1772716984125273600,6.998273681640625,0.021675050258636475,-0.007597398944199085,-0.02614915743470192
1772716984145304600,7.0183046875,0.019467124715447426,-0.007712156977504492,-0.014959740452468395
1772716984165335600,7.03833544921875,0.008244850672781467,-0.020627761259675026,-0.011201610788702965
1772716984185366500,7.058366455078125,-0.0023248675279319286,-0.016289545223116875,-0.010264754295349121
1772716984205397500,7.0783974609375,0.006471635773777962,-0.002557584084570408,-0.020920969545841217
1772716984225428700,7.0984287109375,0.01709500513970852,0.007380823604762554,-0.03625831380486488
1772716984245459700,7.118459716796875,0.014067094773054123,0.015164808370172977,-0.026008840650320053
1772716984265490700,7.13849072265625,0.007128762546926737,0.011099128052592278,-0.020357539877295494
1772716984285521700,7.158521728515625,0.000256330706179142,0.00028078723698854446,-0.015955042093992233
1772716984305552600,7.178552734375,-0.005775505676865578,-0.0010208189487457275,-0.001021387055516243
1772716984325583600,7.19858349609375,-0.003950689919292927,-0.007309750188142061,0.013510407879948616
1772716984345614600,7.218614501953125,-0.008901030756533146,-0.017125802114605904,0.01935592107474804
1772716984365645600,7.2386455078125,-0.007503793574869633,-0.017238575965166092,0.009058443829417229
1772716984385676500,7.258676513671875,-0.0006638737395405769,-0.015124170109629631,0.006372744683176279
1772716984405707800,7.278707763671875,-0.00084876106120646,-0.013246421702206135,0.02257099188864231
1772716984425737700,7.29873779296875,-0.0002832484897226095,-0.007189474068582058,0.021559888496994972
1772716984445769000,7.31876904296875,-0.006155066657811403,-0.0004641944542527199,-0.0016299309208989143
1772716984465800000,7.338800048828125,-0.010100089013576508,-0.004892935045063496,-0.02073800191283226
1772716984485830700,7.35883056640625,-0.013817964121699333,-0.003840646706521511,-0.0367659255862236
1772716984505861600,7.378861572265625,-0.014772484079003334,-0.0018870718777179718,-0.030565841123461723
1772716984525892600,7.398892578125,-0.010141264647245407,0.00320263858884573,-0.02263280749320984
1772716984545923600,7.418923583984375,0.005671007093042135,0.0019461838528513908,-0.020511532202363014
1772716984565954600,7.43895458984375,0.00927211344242096,-0.0024232883006334305,-0.01974567584693432
1772716984585985500,7.458985595703125,0.002533229999244213,-0.009444107301533222,-0.004576718434691429
1772716984606016500,7.4790166015625,-0.0027434162329882383,-0.015091096982359886,0.006990012712776661
1772716984626047500,7.499047607421875,-0.004005325958132744,-0.01144239492714405,-0.006184677593410015
1772716984646078700,7.51907861328125,0.005030391737818718,0.0035006478428840637,-0.004953254945576191
1772716984666109700,7.539109619140625,0.012251269072294235,0.00828808918595314,-0.005146325565874577
1772716984686140700,7.559140625,0.006624418776482344,0.0036183828487992287,-0.0007380940951406956
1772716984706171600,7.579171630859375,0.004769443068653345,-0.0023266626521945,-0.0002168784849345684
1772716984726202600,7.59920263671875,-0.00495443120598793,-0.005506187677383423,-0.005273513495922089
1772716984746233300,7.6192333984375,-0.011508368887007236,-0.00795983150601387,-0.007959354668855667
1772716984766264300,7.639264404296875,-0.016219832003116608,-0.0006995666772127151,-0.010675144381821156
1772716984786295300,7.65929541015625,-0.016725460067391396,0.00034385640174150467,-0.003096212400123477
1772716984806326300,7.679326171875,-0.010780076496303082,-0.0007620090618729591,0.00998806580901146
1772716984826357200,7.699357177734375,0.0035247458145022392,0.0112645598128438,0.008207395672798157
1772716984846388500,7.719388427734375,0.005271942354738712,0.0008126208558678627,0.006291486322879791
1772716984866419500,7.73941943359375,-0.006187537685036659,-0.006552688777446747,-0.006174015812575817
1772716984886450400,7.759450439453125,-0.005700445268303156,-0.0034719444811344147,-0.01633530668914318
1772716984906481400,7.7794814453125,-0.0007376233115792274,0.003487355075776577,-0.01206025667488575
1772716984926512400,7.799512451171875,0.006079575978219509,0.0026863254606723785,0.005298361647874117
1772716984946543400,7.81954345703125,0.007393211591988802,0.00618872232735157,0.02045578695833683
1772716984966574300,7.83957421875,0.0016978769563138485,0.0026354603469371796,0.0409783273935318
1772716984986605300,7.859605224609375,0.0002409846056252718,0.0037631625309586525,0.026214929297566414
1772716985006636300,7.87963623046875,0.005422143265604973,0.004452195018529892,0.008777736686170101
1772716985026667300,7.899667236328125,0.0022231752518564463,0.013097009621560574,0.0073778568767011166
1772716985046697500,7.919697509765625,-0.001998753286898136,-0.0056854914873838425,0.00610320083796978
1772716985066728400,7.939728515625,0.0036287095863372087,-0.009104868397116661,-0.002118864329531789
1772716985086759700,7.959759765625,0.004921018611639738,-0.000540529377758503,0.010667406022548676
1772716985106790700,7.979790771484375,0.0032648216001689434,0.012749538756906986,0.023838287219405174
1772716985126820600,7.999820556640625,-0.008172248490154743,0.0037413742393255234,0.014853939414024353
1772716985146850600,8.0198505859375,-0.01723785325884819,-0.007458938751369715,0.003122268244624138
1772716985166881500,8.039881591796876,-0.015816688537597656,0.003124658018350601,0.0036378134973347187
1772716985186912500,8.05991259765625,-0.004766946658492088,0.0011105332523584366,-0.000869519542902708
1772716985206943500,8.079943603515625,0.0002894329372793436,-0.006920301355421543,-0.0050683035515248775
1772716985226974500,8.099974365234376,-0.0025428584776818752,-0.011182715184986591,-0.0005641658790409565
1772716985247005400,8.12000537109375,-0.006553763523697853,-0.013133310712873936,0.008158907294273376
1772716985267036400,8.140036376953125,-0.007766242139041424,-0.00897364504635334,0.029276110231876373
1772716985287067400,8.1600673828125,-0.005222124047577381,-0.00897364504635334,0.05686033517122269
1772716985307098400,8.180098388671874,-0.0052041769959032536,0.006503943353891373,0.07323428243398666
1772716985327129300,8.20012939453125,0.0026226909831166267,0.0002615908160805702,0.0618668757379055
1772716985347160600,8.22016064453125,0.006862666457891464,-0.0039830757305026054,0.052024874836206436
1772716985367191600,8.240191650390624,0.013697917573153973,-0.002900890074670315,0.05040089040994644
1772716985387222500,8.260222412109375,0.005020579788833857,0.0007852418348193169,0.038363803178071976
1772716985407253500,8.28025341796875,0.00004853797145187855,-0.005342158488929272,0.009705339558422565
1772716985427284500,8.300284423828124,-0.002179706934839487,-0.005071122199296951,-0.0027455941308289766
1772716985447315500,8.3203154296875,-0.0027822377160191536,-0.0025867801159620285,0.0005587562918663025
1772716985467346400,8.340346435546875,0.0051366304978728294,0.003192327916622162,0.010337140411138535
1772716985487377400,8.36037744140625,0.005610246676951647,0.016933705657720566,0.03705248236656189
1772716985507408400,8.380408447265625,0.0007723481394350529,0.004424038343131542,0.05777214094996452
1772716985527439400,8.400439453125,-0.00019993283785879612,0.005594279617071152,0.06313055753707886
1772716985547471600,8.4204716796875,-0.0045939842239022255,0.011122806929051876,0.047580137848854065
1772716985567502600,8.440502685546875,-0.013244032859802246,-0.0006845109164714813,0.03982479125261307
1772716985587533600,8.460533447265625,-0.010608202777802944,-0.007040118798613548,0.03419927507638931
1772716985607564500,8.480564453125,-0.002796062733978033,0.0007206937298178673,0.017712131142616272
1772716985627595500,8.500595458984375,0.008634939789772034,0.008782276883721352,-0.02005811594426632
1772716985647626500,8.52062646484375,0.007514755241572857,0.016989000141620636,-0.027620896697044373
1772716985667657500,8.540657470703126,0.0019081213977187872,0.010423027910292149,0.0028035352006554604
1772716985687688400,8.5606884765625,-0.0017791659338399768,-0.0033729225397109985,0.032136302441358566
1772716985707719700,8.5807197265625,0.002112814923748374,-0.011032824404537678,0.026325607672333717
1772716985727750700,8.600750732421876,0.007721947506070137,-0.015445273369550705,0.014066552743315697
1772716985747781600,8.62078173828125,0.009972318075597286,0.008802542462944984,0.011709121987223625
1772716985767812600,8.6408125,0.018885813653469086,0.019929930567741394,0.02248796820640564
1772716985787843600,8.660843505859376,0.013332549482584,0.008643503300845623,0.016775809228420258
1772716985807874600,8.68087451171875,0.011060771532356739,-0.01285718847066164,-0.0004502711817622185
1772716985827905500,8.700905517578125,0.00211367872543633,-0.008598383516073227,0.007037294562906027
1772716985847936500,8.7209365234375,-0.010236915200948715,0.014741996303200722,0.008865708485245705
1772716985867967500,8.740967529296874,-0.010434153489768505,0.013235373422503471,0.0024335989728569984
1772716985887998700,8.760998779296875,-0.0032400526106357574,0.019623860716819763,-0.008150303736329079
1772716985908029700,8.78102978515625,0.0027429619804024696,0.018323585391044617,-0.004385413136333227
1772716985928060000,8.801059814453126,-0.0016570521984249353,0.005921219475567341,0.01327535044401884
1772716985948091000,8.8210908203125,-0.005988681688904762,0.002084837295114994,0.019004952162504196
1772716985968121900,8.841121826171875,-0.0011199316941201687,-0.0028076060116291046,0.011029906570911407
1772716985988152800,8.86115283203125,-0.0015706403646618128,-0.003515135496854782,0.014430006965994835
1772716986008183800,8.881183837890624,-0.006636098027229309,0.0041169291362166405,0.04242018610239029
1772716986028214800,8.90121484375,-0.005487494170665741,0.003717598505318165,0.03246903046965599
1772716986048245800,8.921245849609376,-0.002200601389631629,0.0064590806141495705,0.019888322800397873
1772716986068276700,8.94127685546875,-0.004867163952440023,0.004614816978573799,0.014440571889281273
1772716986088307700,8.9613076171875,-0.00897303968667984,0.004882198758423328,0.015189106576144695
1772716986108339000,8.9813388671875,-0.012524386867880821,-0.000835801474750042,-0.0011788234114646912
1772716986128370000,9.001369873046874,-0.004644216038286686,0.014595497399568558,-0.007263180799782276
1772716986148401000,9.02140087890625,-0.004285819828510284,0.0050379009917378426,-0.019129859283566475
1772716986168431900,9.041431884765625,-0.005035516805946827,-0.007482009474188089,-0.023258281871676445
1772716986188462800,9.061462890625,-0.015696272253990173,-0.00958213210105896,-0.01569705829024315
1772716986208493800,9.081493896484375,-0.012571771629154682,-0.008891306817531586,-0.03898552432656288
1772716986228524800,9.10152490234375,-0.0138957928866148,-0.004959753714501858,-0.06296280771493912
1772716986248555800,9.1215556640625,-0.01912783831357956,0.0002930648624897003,-0.05486786365509033
1772716986268586800,9.141586669921875,-0.014020020142197609,0.0032154973596334457,-0.04082617908716202
1772716986288617700,9.16161767578125,-0.009719833731651306,0.004394453018903732,-0.0325334295630455
1772716986308648700,9.181648681640626,-0.01569410413503647,-0.004431962035596371,-0.040382638573646545
1772716986328679700,9.2016796875,-0.023240763694047928,-0.014656346291303635,-0.06576124578714371
1772716986348710700,9.221710693359375,-0.031064392998814583,-0.018439609557390213,-0.044102564454078674
1772716986368741600,9.24174169921875,-0.02695101499557495,-0.021471861749887466,-0.019369080662727356
1772716986388772600,9.261772705078124,-0.017780112102627754,-0.001745610497891903,-0.008647782728075981
1772716986408803600,9.281803466796875,-0.01470846589654684,-0.009649193845689297,-0.008801999501883984
1772716986428834600,9.30183447265625,-0.007490191608667374,-0.02179415337741375,-0.01417677104473114
1772716986448865500,9.321865478515624,-0.010422518476843834,-0.026692237704992294,0.003400703426450491
1772716986468896500,9.341896484375,-0.013786869123578072,-0.01668511889874935,0.021137690171599388
1772716986488927500,9.361927490234375,-0.013189582154154778,-0.00837906077504158,0.0014087907038629055
1772716986508958700,9.381958740234374,-0.01047256588935852,0.00260815117508173,-0.008197295479476452
1772716986528989700,9.40198974609375,0.005023324862122536,0.0049380771815776825,-0.012660609558224678
1772716986549020700,9.422020751953125,-0.004276635590940714,0.02572808973491192,0.03473024070262909
1772716986569051600,9.4420517578125,-0.010927696712315083,0.007936407811939716,0.037912558764219284
1772716986589082600,9.46208251953125,0.000005968613550066948,-0.021950211375951767,-0.006908314302563667
1772716986609113600,9.482113525390625,0.01500780414789915,-0.0033220555633306503,-0.04354487732052803
1772716986629144600,9.50214453125,0.015815498307347298,0.021090656518936157,-0.013456162996590137
1772716986649175600,9.522175537109375,0.013340950012207031,0.02893577143549919,0.00867471657693386
1772716986669206500,9.54220654296875,0.01346085499972105,0.023734498769044876,0.016494113951921463
1772716986689237800,9.56223779296875,0.025426948443055153,-0.01981903240084648,-0.050823286175727844
1772716986709268700,9.582268798828125,0.020582227036356926,-0.08185335248708725,-0.13807708024978638
1772716986729299700,9.6022998046875,0.0427502766251564,0.019282832741737366,-0.030734529718756676
