time,seconds_elapsed,z,y,x
1772790166749527300,0.05952734375,-0.6699676513671875,-0.6128387451171875,0.1696319580078125
1772790166769562400,0.079562255859375,-0.6949462890625,-0.637115478515625,0.131134033203125
1772790166789598200,0.09959814453125,-0.779571533203125,-0.6397247314453125,0.12139892578125
1772790166809633300,0.11963330078125,-0.76947021484375,-0.6138458251953125,0.13623046875
1772790166829669000,0.139669189453125,-0.783172607421875,-0.62310791015625,0.1348876953125
1772790166849704200,0.1597041015625,-0.8361358642578125,-0.6309967041015625,0.1257781982421875
1772790166869740300,0.179740234375,-0.8211517333984375,-0.6728973388671875,-0.0640106201171875
1772790166889776000,0.199776123046875,-0.76068115234375,-0.7335205078125,-0.135162353515625
1772790166909811200,0.219811279296875,-0.694427490234375,-0.6827850341796875,-0.0994110107421875
1772790166929847300,0.239847412109375,-0.67364501953125,-0.673187255859375,0.006134033203125
1772790166949882400,0.25988232421875,-0.668060302734375,-0.635284423828125,0.0941314697265625
1772790166969918200,0.279918212890625,-0.6678466796875,-0.5292205810546875,0.0888214111328125
1772790166989953300,0.299953369140625,-0.7289581298828125,-0.556182861328125,0.04461669921875
1772790167009989400,0.3199892578125,-0.7506256103515625,-0.527435302734375,-0.0152130126953125
1772790167030025200,0.340025146484375,-0.80712890625,-0.57122802734375,0.0192413330078125
1772790167050060300,0.360060302734375,-0.755767822265625,-0.522186279296875,0.0673980712890625
1772790167070096100,0.38009619140625,-0.912689208984375,-0.481536865234375,0.162445068359375
1772790167090131200,0.400131103515625,-1.046295166015625,-0.4304962158203125,0.0715789794921875
1772790167110167300,0.420167236328125,-1.0399017333984375,-0.485748291015625,0.047210693359375
1772790167130202400,0.440202392578125,-0.9418182373046875,-0.6189422607421875,0.05596923828125
1772790167150238200,0.46023828125,-0.802947998046875,-0.7099151611328125,0.087005615234375
1772790167170274300,0.4802744140625,-0.7557373046875,-0.7802734375,0.1202239990234375
1772790167190309400,0.500309326171875,-0.729217529296875,-0.7802276611328125,0.1318206787109375
1772790167210345200,0.52034521484375,-0.660400390625,-0.7199249267578125,0.1063385009765625
1772790167230380300,0.54038037109375,-0.686614990234375,-0.7461395263671875,0.1448974609375
1772790167250416400,0.56041650390625,-0.6307525634765625,-0.6635589599609375,0.131866455078125
1772790167270451200,0.580451171875,-0.6610107421875,-0.6580657958984375,0.149169921875
1772790167290487300,0.6004873046875,-0.53094482421875,-0.6612396240234375,0.120208740234375
1772790167310522400,0.6205224609375,-0.385345458984375,-0.66204833984375,-0.00543212890625
1772790167330558200,0.64055810546875,-0.3900299072265625,-0.623565673828125,0.0168914794921875
1772790167350594300,0.66059423828125,-0.3338470458984375,-0.5439910888671875,0.0256500244140625
1772790167370629400,0.68062939453125,-0.1517333984375,-0.52532958984375,-0.0090484619140625
1772790167390665200,0.700665283203125,-0.135528564453125,-0.456695556640625,0.148040771484375
1772790167410700300,0.7207001953125,-0.2682952880859375,-0.2615814208984375,0.1211090087890625
1772790167430736400,0.740736328125,-0.320587158203125,-0.2707061767578125,0.22418212890625
1772790167450771500,0.760771484375,-0.336395263671875,-0.1293182373046875,0.2399444580078125
1772790167470807300,0.780807373046875,-0.2842864990234375,0.0011444091796875,0.27923583984375
1772790167490843400,0.800843505859375,-0.1902923583984375,0.1684722900390625,0.2625274658203125
1772790167510878200,0.820878173828125,-0.0503387451171875,0.255218505859375,0.3732452392578125
1772790167530914300,0.840914306640625,0.1242523193359375,0.3605804443359375,0.587646484375
1772790167550949400,0.860949462890625,0.178070068359375,0.4922637939453125,0.7527923583984375
1772790167570985200,0.880985107421875,0.1394805908203125,0.654571533203125,0.6695556640625
1772790167591020300,0.901020263671875,0.370513916015625,1.0991363525390625,0.554046630859375
1772790167611056400,0.921056396484375,0.2186279296875,1.5265655517578125,0.5346221923828125
1772790167631091500,0.941091552734375,0.37841796875,1.8803253173828125,0.6739501953125
1772790167651127300,0.961127197265625,0.27313232421875,2.1875457763671875,0.8510894775390625
1772790167671163400,0.981163330078125,0.14019775390625,2.5664825439453125,1.10369873046875
1772790167691198500,1.001198486328125,0.1379241943359375,2.9502716064453125,1.3964080810546875
1772790167711234300,1.021234375,0.30047607421875,3.13934326171875,1.703643798828125
1772790167731269400,1.041269287109375,0.5140380859375,3.0627593994140625,1.892852783203125
1772790167751305200,1.06130517578125,0.7121124267578125,2.7645111083984375,2.0237579345703125
1772790167771340300,1.08134033203125,0.7299346923828125,2.1910858154296875,1.970977783203125
1772790167791376400,1.10137646484375,0.66046142578125,1.5597991943359375,1.8964080810546875
1772790167811411200,1.1214111328125,0.660064697265625,1.0784912109375,1.9704437255859375
1772790167831447300,1.141447265625,0.6279144287109375,0.6800079345703125,1.7445068359375
1772790167851482000,1.161482177734375,0.6370086669921875,0.50390625,1.3525390625
1772790167871518200,1.181518310546875,0.651824951171875,0.474365234375,0.97125244140625
1772790167891553300,1.20155322265625,0.6297454833984375,0.5318450927734375,0.8470611572265625
1772790167911589000,1.221589111328125,0.5978851318359375,0.7959747314453125,0.8068084716796875
1772790167931625500,1.24162548828125,0.4628448486328125,1.1416015625,0.6911773681640625
1772790167951660000,1.261659912109375,0.3153839111328125,1.291748046875,0.4873199462890625
1772790167971696000,1.281696044921875,0.1648406982421875,1.1700592041015625,0.17742919921875
1772790167991731200,1.301731201171875,0.138885498046875,0.9547119140625,0.1874847412109375
1772790168011767000,1.32176708984375,0.0949554443359375,0.8574066162109375,0.2489166259765625
1772790168031802000,1.341802001953125,-0.0220947265625,0.7919158935546875,0.19329833984375
1772790168051838200,1.361838134765625,-0.05169677734375,0.7377166748046875,0.28082275390625
1772790168071873300,1.381873291015625,-0.076019287109375,0.73529052734375,0.3530731201171875
1772790168091909000,1.4019091796875,-0.0762939453125,0.777618408203125,0.4642791748046875
1772790168111945200,1.4219453125,-0.09381103515625,0.8363494873046875,0.4801025390625
1772790168131980300,1.441980224609375,-0.0602569580078125,0.85028076171875,0.486358642578125
1772790168152016100,1.46201611328125,-0.024932861328125,0.8892822265625,0.525115966796875
1772790168172051200,1.48205126953125,-0.00054931640625,0.898468017578125,0.6411590576171875
1772790168192087300,1.50208740234375,0.072479248046875,0.892364501953125,0.7764892578125
1772790168212122000,1.5221220703125,0.2581939697265625,0.86541748046875,0.9774169921875
1772790168232158200,1.542158203125,0.6070709228515625,0.775299072265625,1.1772613525390625
1772790168252193300,1.562193359375,0.9172515869140625,0.7343292236328125,1.19122314453125
1772790168272229000,1.58222900390625,1.1508636474609375,0.7777557373046875,1.187042236328125
1772790168292264200,1.60226416015625,1.2599639892578125,0.7728729248046875,1.1138916015625
1772790168312300300,1.62230029296875,1.174163818359375,0.6899566650390625,1.0180816650390625
1772790168332335400,1.64233544921875,0.9899139404296875,0.605987548828125,0.9568328857421875
1772790168352371200,1.66237109375,0.887359619140625,0.556243896484375,0.87005615234375
1772790168372407300,1.6824072265625,0.666015625,0.4626922607421875,0.782440185546875
1772790168392442000,1.702442138671875,0.55963134765625,0.3999176025390625,0.692901611328125
1772790168412478200,1.722478271484375,0.4668426513671875,0.4316558837890625,0.6426239013671875
1772790168432513300,1.74251318359375,0.3793792724609375,0.5197906494140625,0.6253662109375
1772790168452549000,1.762549072265625,0.2657012939453125,0.622161865234375,0.6308135986328125
1772790168472584200,1.782584228515625,0.186737060546875,0.70916748046875,0.6666717529296875
1772790168492620300,1.802620361328125,0.1478271484375,0.7772674560546875,0.721160888671875
1772790168512655400,1.8226552734375,0.1436614990234375,0.8733978271484375,0.7837371826171875
1772790168532691200,1.842691162109375,0.1676177978515625,0.946075439453125,0.8245086669921875
1772790168552726300,1.862726318359375,0.193267822265625,0.962921142578125,0.865997314453125
1772790168572762400,1.882762451171875,0.2155914306640625,0.9286041259765625,0.8939208984375
1772790168592798500,1.902798583984375,0.2419891357421875,0.9080352783203125,0.9411163330078125
1772790168612833500,1.92283349609375,0.2200164794921875,0.8657379150390625,0.9579315185546875
1772790168632869400,1.942869384765625,0.2079010009765625,0.811614990234375,0.9550018310546875
1772790168652904400,1.962904541015625,0.2046966552734375,0.7977447509765625,0.9587249755859375
1772790168672940500,1.9829404296875,0.1879119873046875,0.8137359619140625,0.9327392578125
1772790168692975600,2.0029755859375,0.164825439453125,0.81976318359375,0.89422607421875
1772790168713011500,2.023011474609375,0.1428680419921875,0.82568359375,0.8628387451171875
1772790168733046500,2.043046630859375,0.1122894287109375,0.8485107421875,0.8461456298828125
1772790168753082600,2.06308251953125,0.109527587890625,0.87939453125,0.785369873046875
1772790168773117400,2.083117431640625,0.1247406005859375,0.914398193359375,0.7472076416015625
1772790168793153500,2.103153564453125,0.124176025390625,0.947174072265625,0.7395782470703125
1772790168813188600,2.123188720703125,0.1381378173828125,0.97528076171875,0.72979736328125
1772790168833224400,2.143224365234375,0.13726806640625,0.970916748046875,0.677032470703125
1772790168853260500,2.163260498046875,0.1614990234375,0.9160614013671875,0.6133880615234375
1772790168873295600,2.183295654296875,0.2043304443359375,0.8911590576171875,0.61248779296875
1772790168893331500,2.20333154296875,0.251220703125,0.8589630126953125,0.6250762939453125
1772790168913366500,2.223366455078125,0.27105712890625,0.8116912841796875,0.56427001953125
1772790168933402600,2.243402587890625,0.2893829345703125,0.7796630859375,0.4747467041015625
1772790168953437400,2.2634375,0.360626220703125,0.751708984375,0.3522186279296875
1772790168973473500,2.2834736328125,0.47564697265625,0.78533935546875,0.2445068359375
1772790168993508600,2.303508544921875,0.4880218505859375,0.8159027099609375,0.22381591796875
1772790169013544400,2.32354443359375,0.4447479248046875,0.810211181640625,0.25927734375
1772790169033579500,2.34357958984375,0.4571533203125,0.893310546875,0.3984222412109375
1772790169053615600,2.36361572265625,0.479400634765625,0.9200897216796875,0.55511474609375
1772790169073651500,2.3836513671875,0.5012359619140625,0.9272308349609375,0.628265380859375
1772790169093686500,2.4036865234375,0.525909423828125,0.9325408935546875,0.7120819091796875
1772790169113722600,2.42372265625,0.5336151123046875,0.9452972412109375,0.8099517822265625
1772790169133757700,2.4437578125,0.540069580078125,1.001678466796875,0.9340667724609375
1772790169153793500,2.46379345703125,0.508880615234375,1.135162353515625,1.0879364013671875
1772790169173828600,2.48382861328125,0.390106201171875,1.26904296875,1.1912841796875
1772790169193864700,2.50386474609375,0.24652099609375,1.2693328857421875,1.290802001953125
1772790169213899500,2.5238994140625,0.0908966064453125,1.1066741943359375,1.2972869873046875
1772790169233935600,2.543935546875,0.0435333251953125,0.9759063720703125,1.3568267822265625
1772790169253970400,2.563970458984375,0.0537872314453125,0.851776123046875,1.379547119140625
1772790169274006500,2.584006591796875,0.07147216796875,0.6798248291015625,1.285980224609375
1772790169294041300,2.604041259765625,0.1071624755859375,0.5854644775390625,1.1539764404296875
1772790169314077700,2.62407763671875,0.1291656494140625,0.5765533447265625,1.0582275390625
1772790169334113500,2.644113525390625,0.1462860107421875,0.6649322509765625,0.9742889404296875
1772790169354148400,2.6641484375,0.143951416015625,0.7296295166015625,0.8406982421875
1772790169374184700,2.684184814453125,0.154815673828125,0.7657928466796875,0.7423858642578125
1772790169394219500,2.704219482421875,0.1512603759765625,0.78411865234375,0.60809326171875
1772790169414255600,2.724255615234375,0.1503753662109375,0.7615509033203125,0.497344970703125
1772790169434290400,2.74429052734375,0.136016845703125,0.7000732421875,0.3855438232421875
1772790169454326300,2.764326171875,0.100250244140625,0.64666748046875,0.3231201171875
1772790169474361300,2.784361328125,0.055206298828125,0.6033477783203125,0.31854248046875
1772790169494397400,2.8043974609375,0.015167236328125,0.5944061279296875,0.3434906005859375
1772790169514432500,2.8244326171875,-0.004302978515625,0.6117706298828125,0.386871337890625
1772790169534468400,2.84446826171875,-0.0224456787109375,0.668548583984375,0.45733642578125
1772790169554503400,2.86450341796875,-0.017608642578125,0.75543212890625,0.556732177734375
1772790169574539500,2.88453955078125,0.005859375,0.8585357666015625,0.64459228515625
1772790169594574800,2.904574951171875,-0.003204345703125,0.87725830078125,0.6645355224609375
1772790169614610000,2.92460986328125,0.264892578125,0.953033447265625,0.7635498046875
1772790169634646000,2.94464599609375,0.6831207275390625,1.079193115234375,0.955352783203125
1772790169654681000,2.96468115234375,0.97210693359375,0.9749908447265625,1.2819976806640625
1772790169674717000,2.984717041015625,1.0877227783203125,0.7416229248046875,1.5993499755859375
1772790169694752000,3.004751953125,0.97882080078125,0.3967742919921875,1.7164306640625
1772790169714787800,3.024787841796875,1.168304443359375,0.008941650390625,1.2204132080078125
1772790169734823000,3.044822998046875,1.542022705078125,0.1379241943359375,0.630859375
1772790169754859000,3.06485888671875,1.622344970703125,0.3047332763671875,0.4404144287109375
1772790169774893800,3.084893798828125,1.17596435546875,0.2631378173828125,0.558380126953125
1772790169794930000,3.104929931640625,0.752166748046875,0.3926544189453125,0.697174072265625
1772790169814964700,3.12496484375,0.47808837890625,0.612091064453125,0.718231201171875
1772790169835001000,3.1450009765625,0.222076416015625,0.7521514892578125,0.6967926025390625
1772790169855036000,3.165035888671875,0.117950439453125,0.80377197265625,0.6206817626953125
1772790169875071700,3.18507177734375,0.122100830078125,0.8307647705078125,0.5560760498046875
1772790169895108000,3.205108154296875,0.1008148193359375,0.871063232421875,0.486968994140625
1772790169915142700,3.225142578125,0.162811279296875,0.920928955078125,0.48638916015625
1772790169935179000,3.245178955078125,0.26739501953125,0.88153076171875,0.557830810546875
1772790169955213800,3.2652138671875,0.3663177490234375,0.8028106689453125,0.6363677978515625
1772790169975249700,3.285249755859375,0.42742919921875,0.7425994873046875,0.70416259765625
1772790169995284700,3.30528466796875,0.4119720458984375,0.692352294921875,0.7214813232421875
1772790170015320800,3.32532080078125,0.40814208984375,0.6531219482421875,0.7288818359375
1772790170035356000,3.34535595703125,0.3975372314453125,0.6396331787109375,0.7296600341796875
1772790170055391700,3.365391845703125,0.3384246826171875,0.6383056640625,0.6877899169921875
1772790170075426800,3.3854267578125,0.302032470703125,0.6327056884765625,0.69476318359375
1772790170095463000,3.405462890625,0.2801055908203125,0.663360595703125,0.719207763671875
1772790170115497700,3.425497802734375,0.223663330078125,0.6573333740234375,0.751373291015625
1772790170135533800,3.445533935546875,0.213653564453125,0.712005615234375,0.827545166015625
1772790170155569700,3.465569580078125,0.18035888671875,0.782073974609375,0.8918609619140625
1772790170175604700,3.485604736328125,0.1650238037109375,0.839599609375,0.9253997802734375
1772790170195640800,3.505640869140625,0.1314697265625,0.8720703125,0.9315948486328125
1772790170215676000,3.525676025390625,0.1059417724609375,0.886566162109375,0.917755126953125
1772790170235711700,3.545711669921875,0.109130859375,0.916168212890625,0.8979339599609375
1772790170255746800,3.565746826171875,0.157257080078125,0.97186279296875,0.901824951171875
1772790170275783000,3.585782958984375,0.2434234619140625,1.093505859375,0.878692626953125
1772790170295817700,3.605817626953125,0.24896240234375,1.1501617431640625,0.830963134765625
1772790170315853800,3.625853759765625,0.171234130859375,1.187774658203125,0.6627655029296875
1772790170335889000,3.645888916015625,0.1632232666015625,1.018218994140625,0.3360595703125
1772790170355924700,3.6659248046875,0.2870941162109375,0.825897216796875,0.1847991943359375
1772790170375959800,3.685959716796875,0.399993896484375,0.683441162109375,0.2106781005859375
1772790170395996000,3.705995849609375,0.4987030029296875,0.508758544921875,0.249908447265625
1772790170416031700,3.72603173828125,0.5846099853515625,0.386199951171875,0.2459869384765625
1772790170436066800,3.74606689453125,0.66961669921875,0.395782470703125,0.25567626953125
1772790170456103000,3.76610302734375,0.7507171630859375,0.5163726806640625,0.2453460693359375
1772790170476138000,3.786137939453125,0.7727203369140625,0.6385955810546875,0.2036895751953125
1772790170496173800,3.806173828125,0.7676544189453125,0.723388671875,0.2609100341796875
1772790170516209000,3.826208984375,0.738800048828125,0.80780029296875,0.4056854248046875
1772790170536245000,3.846244873046875,0.6500396728515625,0.844268798828125,0.5128021240234375
1772790170556279800,3.86627978515625,0.5211334228515625,0.8225860595703125,0.5764007568359375
1772790170576316000,3.88631591796875,0.4117889404296875,0.828582763671875,0.65142822265625
1772790170596351700,3.906351806640625,0.3024444580078125,0.831329345703125,0.7206878662109375
1772790170616387600,3.9263876953125,0.2377777099609375,0.8134002685546875,0.7663116455078125
1772790170636422700,3.946422607421875,0.19708251953125,0.80206298828125,0.784698486328125
1772790170656458500,3.96645849609375,0.170989990234375,0.75140380859375,0.774658203125
1772790170676494600,3.98649462890625,0.1929931640625,0.703643798828125,0.7585296630859375
1772790170696529700,4.00652978515625,0.1986846923828125,0.6460418701171875,0.73486328125
1772790170716565500,4.0265654296875,0.212127685546875,0.606689453125,0.7213592529296875
1772790170736600600,4.0466005859375,0.2175750732421875,0.58392333984375,0.7114105224609375
1772790170756636700,4.06663671875,0.2216339111328125,0.563873291015625,0.7052001953125
1772790170776671700,4.086671630859375,0.2318878173828125,0.5733184814453125,0.707977294921875
1772790170796707600,4.10670751953125,0.2340850830078125,0.6194000244140625,0.7051849365234375
1772790170816742700,4.12674267578125,0.234954833984375,0.6744537353515625,0.705780029296875
1772790170836778800,4.14677880859375,0.22540283203125,0.7277374267578125,0.6972503662109375
1772790170856813300,4.166813232421875,0.210906982421875,0.7736663818359375,0.7006988525390625
1772790170876849700,4.186849609375,0.2079010009765625,0.7998809814453125,0.6973876953125
1772790170896884500,4.206884521484375,0.1936492919921875,0.7574462890625,0.7007293701171875
1772790170916920600,4.226920654296875,0.265472412109375,0.7489776611328125,0.7905426025390625
1772790170936955400,4.246955322265625,0.3622589111328125,0.9206085205078125,0.9322357177734375
1772790170956991500,4.266991455078125,0.275146484375,0.9751129150390625,0.9831390380859375
1772790170977027600,4.287027587890625,0.2032470703125,0.9432373046875,1.009765625
1772790170997062400,4.3070625,0.1278228759765625,0.80853271484375,1.037506103515625
1772790171017098500,4.327098388671875,0.118743896484375,0.66925048828125,1.081756591796875
1772790171037133600,4.347133544921875,0.1235504150390625,0.5738067626953125,1.127288818359375
1772790171057169400,4.36716943359375,0.1185455322265625,0.4600677490234375,1.12091064453125
1772790171077204500,4.38720458984375,0.1333465576171875,0.406768798828125,1.056549072265625
1772790171097240300,4.407240234375,0.17633056640625,0.4791107177734375,0.9766082763671875
1772790171117275400,4.427275390625,0.2183837890625,0.5890045166015625,0.8933258056640625
1772790171137311500,4.4473115234375,0.2186737060546875,0.6877288818359375,0.838531494140625
1772790171157346600,4.4673466796875,0.219451904296875,0.7646026611328125,0.7903594970703125
1772790171177382400,4.48738232421875,0.193115234375,0.7804107666015625,0.757904052734375
1772790171197417500,4.50741748046875,0.18426513671875,0.79656982421875,0.7575225830078125
1772790171217453600,4.52745361328125,0.1646728515625,0.807708740234375,0.7684173583984375
1772790171237489400,4.547489501953125,0.16522216796875,0.80853271484375,0.797821044921875
1772790171257524500,4.5675244140625,0.1952972412109375,0.8387603759765625,0.8304443359375
1772790171277560600,4.587560546875,0.1890869140625,0.8397674560546875,0.8287811279296875
1772790171297595400,4.607595458984375,0.21038818359375,0.852294921875,0.80609130859375
1772790171317631500,4.627631591796875,0.217620849609375,0.8566741943359375,0.7619476318359375
1772790171337666600,4.64766650390625,0.2272186279296875,0.841522216796875,0.726531982421875
1772790171357702400,4.667702392578125,0.250213623046875,0.8608856201171875,0.714141845703125
1772790171377737500,4.687737548828125,0.2454833984375,0.8538818359375,0.697845458984375
1772790171397773600,4.707773681640625,0.2351226806640625,0.8343048095703125,0.660003662109375
1772790171417808600,4.72780859375,0.21612548828125,0.8085784912109375,0.6446533203125
1772790171437844500,4.747844482421875,0.2064666748046875,0.789825439453125,0.6599273681640625
1772790171457879600,4.767879638671875,0.21099853515625,0.788787841796875,0.68365478515625
1772790171477915600,4.78791552734375,0.1988525390625,0.772674560546875,0.6840362548828125
1772790171497950500,4.807950439453125,0.1769256591796875,0.741363525390625,0.6609649658203125
1772790171517986600,4.827986572265625,0.1718597412109375,0.72515869140625,0.6619720458984375
1772790171538022400,4.8480224609375,0.247802734375,0.81732177734375,0.778106689453125
1772790171558057500,4.868057373046875,0.326385498046875,0.97515869140625,0.830078125
1772790171578093600,4.888093505859375,0.335906982421875,1.065887451171875,0.785491943359375
1772790171598129200,4.908129150390625,0.24737548828125,1.04718017578125,0.66009521484375
1772790171618165000,4.9281650390625,0.150482177734375,0.9307403564453125,0.5039520263671875
1772790171638200000,4.948199951171875,0.1083984375,0.7173614501953125,0.3624725341796875
1772790171658236000,4.96823583984375,0.1352996826171875,0.520751953125,0.32171630859375
1772790171678271000,4.98827099609375,0.228790283203125,0.42926025390625,0.37176513671875
1772790171698307000,5.00830712890625,0.3501739501953125,0.408203125,0.464111328125
1772790171718342100,5.028342041015625,0.458709716796875,0.461151123046875,0.5037384033203125
1772790171738378000,5.0483779296875,0.5222015380859375,0.5405120849609375,0.536163330078125
1772790171758413000,5.0684130859375,0.554107666015625,0.6049957275390625,0.546661376953125
1772790171778449200,5.08844921875,0.563232421875,0.645904541015625,0.54156494140625
1772790171798485000,5.108485107421875,0.57672119140625,0.678009033203125,0.49505615234375
1772790171818520000,5.12852001953125,0.5507354736328125,0.68084716796875,0.4670562744140625
1772790171838556200,5.14855615234375,0.5022735595703125,0.7273406982421875,0.5191497802734375
1772790171858591000,5.168591064453125,0.39788818359375,0.820220947265625,0.65899658203125
1772790171878627000,5.188626953125,0.2408294677734375,0.8616790771484375,0.7921905517578125
1772790171898662100,5.208662109375,0.11199951171875,0.8759002685546875,0.8580322265625
1772790171918698000,5.228697998046875,0.04644775390625,0.8316650390625,0.858795166015625
1772790171938733000,5.248733154296875,0.02459716796875,0.808929443359375,0.859649658203125
1772790171958769200,5.26876904296875,0.0036163330078125,0.8038177490234375,0.8212890625
1772790171978804200,5.28880419921875,0.01202392578125,0.7906036376953125,0.7534942626953125
1772790171998840000,5.308840087890625,0.0633392333984375,0.759735107421875,0.7378082275390625
1772790172018875100,5.328875244140625,0.1420135498046875,0.7384490966796875,0.7471923828125
1772790172038911200,5.3489111328125,0.2175140380859375,0.7580108642578125,0.7572174072265625
1772790172058946000,5.368946044921875,0.2733612060546875,0.777496337890625,0.7843780517578125
1772790172078982100,5.388982177734375,0.3358306884765625,0.8085174560546875,0.8251953125
1772790172099018000,5.40901806640625,0.3854522705078125,0.81805419921875,0.8307037353515625
1772790172119053000,5.429052978515625,0.4219970703125,0.814727783203125,0.825164794921875
1772790172139089200,5.449089111328125,0.442596435546875,0.806121826171875,0.8343048095703125
1772790172159124200,5.469124267578125,0.487823486328125,0.8702545166015625,0.8925323486328125
1772790172179160000,5.48916015625,0.456634521484375,0.9270477294921875,0.9252166748046875
1772790172199195100,5.509195068359375,0.409515380859375,0.9363555908203125,0.9562835693359375
1772790172219227100,5.52922705078125,0.344635009765625,0.9427032470703125,0.98992919921875
1772790172239263000,5.549262939453125,0.2765045166015625,0.8759613037109375,1.0082855224609375
1772790172259298000,5.569298095703125,0.253448486328125,0.80706787109375,1.020660400390625
1772790172279334100,5.589334228515625,0.2420654296875,0.7299957275390625,0.9995574951171875
1772790172299369200,5.609369140625,0.2451019287109375,0.6488037109375,0.94366455078125
1772790172319405000,5.629405029296875,0.2440948486328125,0.5880889892578125,0.8852081298828125
1772790172339440000,5.649440185546875,0.244049072265625,0.5707550048828125,0.83770751953125
1772790172359476000,5.66947607421875,0.2645721435546875,0.60040283203125,0.7850189208984375
1772790172379511000,5.689510986328125,0.2349700927734375,0.6174774169921875,0.714813232421875
1772790172399547100,5.709547119140625,0.217987060546875,0.6503448486328125,0.6653289794921875
1772790172419583000,5.7295830078125,0.197174072265625,0.688720703125,0.6345367431640625
1772790172439618000,5.7496181640625,0.1723480224609375,0.731781005859375,0.640167236328125
1772790172459654100,5.769654052734375,0.1356201171875,0.7696075439453125,0.6739349365234375
1772790172479689200,5.789689208984375,0.1043243408203125,0.7945709228515625,0.723114013671875
1772790172499725000,5.80972509765625,0.09771728515625,0.828582763671875,0.7705841064453125
1772790172519760100,5.829760009765625,0.1038665771484375,0.8741455078125,0.8223419189453125
1772790172539796200,5.849796142578125,0.1098785400390625,0.8848419189453125,0.829742431640625
1772790172559831000,5.8698310546875,0.1264495849609375,0.87786865234375,0.813385009765625
1772790172579867100,5.8898671875,0.16131591796875,0.882781982421875,0.797576904296875
1772790172599901700,5.909901611328125,0.19818115234375,0.8819580078125,0.7803497314453125
1772790172619937800,5.929937744140625,0.2372283935546875,0.9074554443359375,0.78839111328125
1772790172639975000,5.949974853515625,0.2338714599609375,0.8610992431640625,0.7428131103515625
1772790172660010000,5.970010009765625,0.236724853515625,0.8019561767578125,0.7090606689453125
1772790172680045800,5.9900458984375,0.231109619140625,0.7667999267578125,0.702056884765625
1772790172700081000,6.010080810546875,0.21875,0.76397705078125,0.701446533203125
1772790172720116700,6.03011669921875,0.1833038330078125,0.7841644287109375,0.7159576416015625
1772790172740151800,6.05015185546875,0.155731201171875,0.8220062255859375,0.7086334228515625
1772790172760188000,6.07018798828125,0.1423797607421875,0.844818115234375,0.682373046875
1772790172780223000,6.090222900390625,0.11859130859375,0.8451385498046875,0.6404571533203125
1772790172800258800,6.1102587890625,0.092681884765625,0.7963714599609375,0.5717926025390625
1772790172820295000,6.130294921875,0.1074066162109375,0.7324676513671875,0.541107177734375
1772790172840330000,6.150330078125,0.2068023681640625,0.8170623779296875,0.6477508544921875
1772790172860365800,6.17036572265625,0.2485809326171875,0.9191436767578125,0.6795806884765625
1772790172880401000,6.19040087890625,0.212493896484375,0.9062347412109375,0.5832366943359375
1772790172900437000,6.21043701171875,0.17584228515625,0.8940582275390625,0.5223846435546875
1772790172920471800,6.230471923828125,0.163970947265625,0.87835693359375,0.4813232421875
1772790172940508000,6.2505078125,0.1793365478515625,0.8054962158203125,0.4448089599609375
1772790172960542700,6.270542724609375,0.23553466796875,0.733795166015625,0.4169464111328125
1772790172980578800,6.290578857421875,0.3201751708984375,0.65264892578125,0.3994598388671875
1772790173000613600,6.310613525390625,0.3950958251953125,0.5725250244140625,0.39990234375
1772790173020650000,6.33064990234375,0.4806365966796875,0.553314208984375,0.4359130859375
1772790173040684800,6.350684814453125,0.5793304443359375,0.552581787109375,0.503631591796875
1772790173060720600,6.370720703125,0.6522979736328125,0.608642578125,0.5791015625
1772790173080755700,6.390755615234375,0.6594390869140625,0.66192626953125,0.638214111328125
1772790173100791800,6.410791748046875,0.6780242919921875,0.7268218994140625,0.694000244140625
1772790173120828000,6.430827880859375,0.5663909912109375,0.7735595703125,0.7215423583984375
1772790173140862700,6.45086279296875,0.4494476318359375,0.8099822998046875,0.7599029541015625
1772790173160898600,6.470898681640625,0.32720947265625,0.8339996337890625,0.82550048828125
1772790173180933600,6.49093359375,0.2009124755859375,0.83636474609375,0.867431640625
1772790173200969700,6.5109697265625,0.1316986083984375,0.7906341552734375,0.8862152099609375
1772790173221004800,6.5310048828125,0.1053009033203125,0.7429351806640625,0.905853271484375
1772790173241040600,6.55104052734375,0.091827392578125,0.7088775634765625,0.9250030517578125
1772790173261075700,6.57107568359375,0.09454345703125,0.6855010986328125,0.9328765869140625
1772790173281111800,6.59111181640625,0.092926025390625,0.6709136962890625,0.9166107177734375
1772790173301146600,6.611146728515625,0.091644287109375,0.648284912109375,0.86688232421875
1772790173321182700,6.6311826171875,0.1104736328125,0.628936767578125,0.804779052734375
1772790173341217800,6.6512177734375,0.1484375,0.6290130615234375,0.7544403076171875
1772790173361253600,6.671253662109375,0.16339111328125,0.6264801025390625,0.714385986328125
1772790173381289700,6.691289794921875,0.176483154296875,0.6337890625,0.6948699951171875
1772790173401324800,6.71132470703125,0.201080322265625,0.6365203857421875,0.6837921142578125
1772790173421360600,6.731360595703125,0.2366180419921875,0.639068603515625,0.68707275390625
1772790173441395700,6.751395751953125,0.2725830078125,0.654937744140625,0.6789703369140625
1772790173461431800,6.771431884765625,0.311737060546875,0.680023193359375,0.6686553955078125
1772790173481467000,6.791466796875,0.3315582275390625,0.7082366943359375,0.649169921875
1772790173501502700,6.811502685546875,0.3139801025390625,0.6955108642578125,0.646728515625
1772790173521537800,6.831537841796875,0.289642333984375,0.6361541748046875,0.6602020263671875
1772790173541574000,6.851573974609375,0.2713775634765625,0.5610504150390625,0.70770263671875
1772790173561608700,6.871608642578125,0.285797119140625,0.51275634765625,0.755523681640625
1772790173581644800,6.891644775390625,0.424896240234375,0.697998046875,0.9555206298828125
1772790173601679400,6.911679443359375,0.48480224609375,1.0677337646484375,1.1413421630859375
1772790173621715200,6.931715087890625,0.404632568359375,1.082855224609375,1.1480560302734375
1772790173641750300,6.951750244140625,0.38043212890625,1.03338623046875,1.2192840576171875
1772790173661786400,6.971786376953125,0.3029327392578125,0.877655029296875,1.2073516845703125
1772790173681822200,6.991822265625,0.257965087890625,0.6650848388671875,1.1234283447265625
1772790173701857300,7.011857177734375,0.2300872802734375,0.5543365478515625,1.045501708984375
1772790173721893400,7.031893310546875,0.24151611328125,0.527923583984375,0.938568115234375
1772790173741928400,7.051928466796875,0.2357635498046875,0.5791015625,0.8542327880859375
1772790173761964300,7.07196435546875,0.2415618896484375,0.6737060546875,0.80450439453125
1772790173781999400,7.091999267578125,0.2240447998046875,0.768829345703125,0.758880615234375
1772790173802035500,7.112035400390625,0.19744873046875,0.8465423583984375,0.724700927734375
1772790173822070300,7.1320703125,0.16900634765625,0.9246368408203125,0.720184326171875
1772790173842106400,7.1521064453125,0.1528778076171875,0.9733428955078125,0.71875
1772790173862141400,7.172141357421875,0.140289306640625,1.01434326171875,0.731170654296875
1772790173882177300,7.19217724609375,0.129608154296875,1.0230560302734375,0.7424468994140625
1772790173902212400,7.21221240234375,0.1270751953125,0.9755096435546875,0.7493133544921875
1772790173922248400,7.23224853515625,0.1375885009765625,0.907684326171875,0.77130126953125
1772790173942283300,7.252283203125,0.149566650390625,0.8264007568359375,0.7914276123046875
1772790173962319400,7.2723193359375,0.16949462890625,0.7607421875,0.8186798095703125
1772790173982355500,7.29235546875,0.1821441650390625,0.696746826171875,0.824005126953125
1772790174002390300,7.312390380859375,0.20208740234375,0.6724090576171875,0.8099365234375
1772790174022426400,7.33242626953125,0.2245941162109375,0.6850128173828125,0.798309326171875
1772790174042461400,7.35246142578125,0.2345428466796875,0.699798583984375,0.7769317626953125
1772790174062497300,7.372497314453125,0.23919677734375,0.742645263671875,0.7667083740234375
1772790174082532400,7.392532470703125,0.236785888671875,0.7858734130859375,0.7501373291015625
1772790174102568400,7.412568359375,0.231536865234375,0.7917327880859375,0.7388458251953125
1772790174122603500,7.432603515625,0.2274169921875,0.7731170654296875,0.72235107421875
1772790174142639400,7.452639404296875,0.2247467041015625,0.7592315673828125,0.7077484130859375
1772790174162674400,7.47267431640625,0.2151336669921875,0.7372589111328125,0.6842193603515625
1772790174182710500,7.49271044921875,0.20294189453125,0.71636962890625,0.6439208984375
1772790174202745300,7.512745361328125,0.2351226806640625,0.7545318603515625,0.6357574462890625
1772790174222781400,7.532781494140625,0.256439208984375,0.8548736572265625,0.609375
1772790174242816500,7.55281640625,0.2293548583984375,0.874237060546875,0.5055084228515625
1772790174262852400,7.572852294921875,0.1744537353515625,0.846160888671875,0.4064788818359375
1772790174282887400,7.592887451171875,0.1321868896484375,0.802459716796875,0.3302001953125
1772790174302923500,7.612923583984375,0.1253204345703125,0.7193603515625,0.2703857421875
1772790174322959400,7.63295947265625,0.1549224853515625,0.6228485107421875,0.2530517578125
1772790174342994400,7.652994384765625,0.19140625,0.53729248046875,0.296600341796875
1772790174363030500,7.673030517578125,0.2384796142578125,0.477508544921875,0.371734619140625
1772790174383065300,7.6930654296875,0.3147125244140625,0.5357208251953125,0.460968017578125
1772790174403101400,7.713101318359375,0.4366912841796875,0.7581939697265625,0.6215057373046875
1772790174423136500,7.733136474609375,0.5125579833984375,0.942840576171875,0.771240234375
1772790174443172400,7.75317236328125,0.5326995849609375,1.0640106201171875,0.8719329833984375
1772790174463207400,7.77320751953125,0.5044097900390625,1.1222686767578125,0.9666595458984375
1772790174483243500,7.793243408203125,0.4531402587890625,1.1291656494140625,1.0730133056640625
1772790174503278600,7.813278564453125,0.39306640625,1.10791015625,1.16033935546875
1772790174523314400,7.833314453125,0.325469970703125,1.037109375,1.2113037109375
1772790174543349200,7.853349365234375,0.2974853515625,0.936248779296875,1.31219482421875
1772790174563385600,7.873385498046875,0.2745361328125,0.7813262939453125,1.3394317626953125
1772790174583420200,7.893420166015625,0.2589874267578125,0.6414947509765625,1.2689361572265625
1772790174603457000,7.91345703125,0.27850341796875,0.554901123046875,1.1568756103515625
1772790174623492900,7.933492919921875,0.3063812255859375,0.5337371826171875,1.023193359375
1772790174643528000,7.95352783203125,0.32489013671875,0.5615997314453125,0.9048309326171875
1772790174663564000,7.97356396484375,0.32989501953125,0.6151885986328125,0.8204193115234375
1772790174683599000,7.99359912109375,0.321075439453125,0.6529998779296875,0.734344482421875
1772790174703635000,8.013635009765625,0.2956390380859375,0.6237640380859375,0.6346282958984375
1772790174723669800,8.033669677734375,0.29364013671875,0.61181640625,0.584014892578125
1772790174743706000,8.0537060546875,0.276092529296875,0.5999908447265625,0.5738372802734375
1772790174763740700,8.07374072265625,0.260284423828125,0.592681884765625,0.586334228515625
1772790174783776800,8.09377685546875,0.220733642578125,0.605010986328125,0.612548828125
1772790174803811800,8.113811767578126,0.1622772216796875,0.6452178955078125,0.656585693359375
1772790174823847700,8.13384765625,0.09991455078125,0.6921234130859375,0.703887939453125
1772790174843882800,8.1538828125,0.0306243896484375,0.722137451171875,0.7496337890625
1772790174863918800,8.1739189453125,-0.0148468017578125,0.6771087646484375,0.7837982177734375
1772790174883954000,8.193953857421874,-0.0183868408203125,0.6286163330078125,0.849456787109375
1772790174903989800,8.21398974609375,0.0737152099609375,0.65179443359375,1.0030059814453125
1772790174924025900,8.23402587890625,0.1894378662109375,0.818115234375,1.1686248779296875
1772790174944061000,8.25406103515625,0.2340850830078125,0.907135009765625,1.26617431640625
1772790174964096800,8.2740966796875,0.2619171142578125,0.9362640380859375,1.3067474365234375
1772790174984131800,8.2941318359375,0.28179931640625,0.939117431640625,1.328460693359375
1772790175004167700,8.314167724609375,0.259307861328125,0.817657470703125,1.2354736328125
1772790175024202800,8.33420263671875,0.253173828125,0.719482421875,1.1360321044921875
1772790175044238800,8.35423876953125,0.258209228515625,0.6747894287109375,1.0507659912109375
1772790175064274000,8.37427392578125,0.2641448974609375,0.7165985107421875,1.0005035400390625
1772790175084309800,8.394309814453125,0.26080322265625,0.8265380859375,0.9752044677734375
1772790175104344800,8.4143447265625,0.2281341552734375,0.9564361572265625,0.9564666748046875
1772790175124381000,8.434380859375,0.188873291015625,1.099945068359375,0.9431304931640625
1772790175144415700,8.454415771484374,0.156341552734375,1.1893157958984375,0.905517578125
1772790175164451800,8.474451904296876,0.12884521484375,1.200286865234375,0.858489990234375
1772790175184487000,8.49448681640625,0.1168670654296875,1.172088623046875,0.82080078125
1772790175204522800,8.514522705078125,0.0937347412109375,1.1039886474609375,0.77398681640625
1772790175224557800,8.534557861328125,0.083740234375,1.022735595703125,0.746734619140625
1772790175244594000,8.554593994140625,0.082305908203125,0.96044921875,0.743560791015625
1772790175264629800,8.574629638671874,0.077850341796875,0.8911895751953125,0.7351837158203125
1772790175284664800,8.594664794921876,0.091552734375,0.8347625732421875,0.7191162109375
1772790175304701000,8.614700927734376,0.10028076171875,0.7975921630859375,0.6960601806640625
1772790175324736000,8.634736083984375,0.1245880126953125,0.783905029296875,0.681488037109375
1772790175344771800,8.654771728515625,0.152252197265625,0.8073883056640625,0.6708221435546875
1772790175364807000,8.674806884765625,0.162872314453125,0.81402587890625,0.6413421630859375
1772790175384842800,8.6948427734375,0.17138671875,0.830963134765625,0.638702392578125
1772790175404877800,8.7148779296875,0.16217041015625,0.8200531005859375,0.61865234375
1772790175424914000,8.734913818359376,0.142913818359375,0.77801513671875,0.59344482421875
1772790175444949000,8.754948974609375,0.1285247802734375,0.7369537353515625,0.59368896484375
1772790175464984800,8.77498486328125,0.1188201904296875,0.705108642578125,0.5943450927734375
1772790175485020000,8.79502001953125,0.104156494140625,0.668182373046875,0.5818634033203125
1772790175505056000,8.815055908203124,0.1406097412109375,0.7039642333984375,0.6153717041015625
1772790175525090800,8.8350908203125,0.1937103271484375,0.789520263671875,0.6310272216796875
1772790175545127000,8.855126953125,0.202667236328125,0.8395233154296875,0.5951385498046875
1772790175565163000,8.8751630859375,0.1961822509765625,0.8619232177734375,0.5230865478515625
1772790175585197800,8.89519775390625,0.2252349853515625,0.9101715087890625,0.4412841796875
1772790175605233400,8.9152333984375,0.2950592041015625,0.881103515625,0.333343505859375
1772790175625268500,8.9352685546875,0.403106689453125,0.8097686767578125,0.264190673828125
1772790175645304300,8.95530419921875,0.49951171875,0.6817474365234375,0.247406005859375
1772790175665339400,8.97533935546875,0.5872039794921875,0.541015625,0.2794647216796875
1772790175685375500,8.99537548828125,0.6784820556640625,0.49224853515625,0.3577117919921875
1772790175705410600,9.01541064453125,0.7881927490234375,0.591888427734375,0.4593658447265625
1772790175725446400,9.0354462890625,0.8701019287109375,0.7900390625,0.5503387451171875
1772790175745481500,9.0554814453125,0.8845062255859375,0.9298248291015625,0.605255126953125
1772790175765517600,9.075517578125,0.8367767333984375,0.9926605224609375,0.690887451171875
1772790175785552400,9.095552490234375,0.7350921630859375,1.0357818603515625,0.8462371826171875
1772790175805588500,9.11558837890625,0.595611572265625,1.044342041015625,0.994598388671875
1772790175825623600,9.13562353515625,0.451629638671875,1.0191497802734375,1.067291259765625
1772790175845659400,9.155659423828125,0.32098388671875,0.959228515625,1.0966949462890625
1772790175865694500,9.175694580078124,0.2423095703125,0.899322509765625,1.1120147705078125
1772790175885730600,9.19573046875,0.2035369873046875,0.84832763671875,1.112152099609375
1772790175905766400,9.215766357421876,0.1815185546875,0.7872161865234375,1.0919952392578125
1772790175925801500,9.235801513671875,0.19866943359375,0.7420806884765625,1.05322265625
1772790175945837600,9.255837646484375,0.233245849609375,0.71697998046875,0.9788665771484375
1772790175965872600,9.27587255859375,0.2602691650390625,0.71087646484375,0.9145355224609375
1772790175985908500,9.295908447265624,0.262969970703125,0.701934814453125,0.822357177734375
1772790176005943600,9.315943603515626,0.2667694091796875,0.703857421875,0.7252655029296875
1772790176025979400,9.3359794921875,0.24859619140625,0.6992645263671875,0.6372528076171875
1772790176046014200,9.35601416015625,0.20269775390625,0.6270904541015625,0.5530548095703125
1772790176066050600,9.376050537109375,0.1679840087890625,0.546356201171875,0.5211181640625
1772790176086085400,9.39608544921875,0.1296539306640625,0.4984588623046875,0.5379486083984375
1772790176106121200,9.416121337890624,0.1102447509765625,0.46331787109375,0.576568603515625
1772790176126156300,9.43615625,0.093658447265625,0.4634246826171875,0.6250457763671875
1772790176146192400,9.4561923828125,0.08148193359375,0.464752197265625,0.69549560546875
1772790176166227500,9.4762275390625,0.1643829345703125,0.5210113525390625,0.8738555908203125
1772790176186263300,9.49626318359375,0.26824951171875,0.76373291015625,1.132476806640625
1772790176206298400,9.51629833984375,0.269989013671875,0.835174560546875,1.3023223876953125
1772790176226333400,9.53633349609375,0.2550201416015625,0.8252716064453125,1.4449920654296875
1772790176246368500,9.556368408203125,0.2651214599609375,0.8242950439453125,1.5118865966796875
1772790176266404400,9.576404296875,0.2500457763671875,0.76666259765625,1.3879241943359375
1772790176286439400,9.596439453125,0.248565673828125,0.7873382568359375,1.2503204345703125
1772790176306475500,9.6164755859375,0.2583770751953125,0.830902099609375,1.1096343994140625
1772790176326510300,9.63651025390625,0.2584075927734375,0.869140625,0.987060546875
1772790176346546400,9.65654638671875,0.2506103515625,0.8922576904296875,0.90203857421875
1772790176366581500,9.67658154296875,0.2734375,0.934600830078125,0.866943359375
1772790176386617300,9.696617431640625,0.316680908203125,1.025177001953125,0.8809051513671875
1772790176406653400,9.7166533203125,0.3415985107421875,1.1220550537109375,0.8985595703125
1772790176426688500,9.7366884765625,0.336517333984375,1.1905517578125,0.917083740234375
1772790176446724400,9.756724365234374,0.280364990234375,1.2249908447265625,0.8839263916015625
1772790176466759400,9.776759521484376,0.182952880859375,1.184783935546875,0.7955474853515625
1772790176486795500,9.79679541015625,0.1484527587890625,1.10760498046875,0.716400146484375
1772790176506830300,9.816830322265625,0.1723785400390625,1.0412445068359375,0.6675872802734375
1772790176526866400,9.836866455078125,0.2053375244140625,0.9564666748046875,0.6280670166015625
1772790176546901500,9.856901611328125,0.2234649658203125,0.88592529296875,0.61627197265625
1772790176566937300,9.876937255859374,0.24749755859375,0.8467254638671875,0.63232421875
1772790176586972400,9.896972412109376,0.250244140625,0.8168487548828125,0.6369171142578125
1772790176607008300,9.91700830078125,0.2491455078125,0.7868804931640625,0.624603271484375
1772790176627043000,9.93704296875,0.246185302734375,0.7476043701171875,0.6114349365234375
1772790176647083000,9.9570830078125,0.245086669921875,0.69647216796875,0.5924835205078125
1772790176667118000,9.9771181640625,0.241302490234375,0.6520538330078125,0.579315185546875
1772790176687154200,9.997154296875,0.231353759765625,0.6219024658203125,0.569366455078125
1772790176707189000,10.01718896484375,0.2060394287109375,0.6088714599609375,0.5704498291015625
1772790176727225000,10.03722509765625,0.1822357177734375,0.615570068359375,0.56689453125
1772790176747260200,10.05726025390625,0.155609130859375,0.6271209716796875,0.5458221435546875
1772790176767296000,10.0772958984375,0.138580322265625,0.6280059814453125,0.5117950439453125
1772790176787331000,10.0973310546875,0.1288299560546875,0.61749267578125,0.457275390625
1772790176807367200,10.1173671875,0.128326416015625,0.5888214111328125,0.3982391357421875
1772790176827402200,10.13740234375,0.168548583984375,0.61151123046875,0.415435791015625
1772790176847438000,10.15743798828125,0.271636962890625,0.78619384765625,0.4913787841796875
1772790176867473200,10.17747314453125,0.2844085693359375,0.9143218994140625,0.46624755859375
1772790176887509000,10.197509033203126,0.2236480712890625,0.9324493408203125,0.4122772216796875
1772790176907544000,10.2175439453125,0.222869873046875,0.99713134765625,0.4382781982421875
1772790176927580200,10.237580078125,0.2470550537109375,1.0004730224609375,0.4797821044921875
1772790176947615200,10.257615234375,0.3070831298828125,0.9615631103515625,0.517608642578125
1772790176967651000,10.277651123046875,0.384063720703125,0.93072509765625,0.572021484375
1772790176987687200,10.297687255859374,0.4553375244140625,0.95172119140625,0.661407470703125
1772790177007722200,10.31772216796875,0.5682525634765625,0.985107421875,0.775665283203125
1772790177027758000,10.337758056640626,0.7027130126953125,0.9984893798828125,0.9073333740234375
1772790177047793200,10.357793212890625,0.8158721923828125,0.9534912109375,1.021636962890625
1772790177067829200,10.377829345703125,0.86773681640625,0.90863037109375,1.1220855712890625
1772790177087864000,10.397864013671875,0.8111724853515625,0.8052215576171875,1.204345703125
1772790177107900200,10.417900146484374,0.669891357421875,0.7030029296875,1.3086700439453125
1772790177127935200,10.437935302734376,0.53082275390625,0.6774444580078125,1.4108428955078125
1772790177147971000,10.45797119140625,0.43817138671875,0.59161376953125,1.400909423828125
1772790177168006100,10.478006103515625,0.3832550048828125,0.5167999267578125,1.23834228515625
1772790177188042200,10.498042236328125,0.37054443359375,0.54052734375,1.0595703125
1772790177208077300,10.518077392578125,0.37432861328125,0.6119842529296875,0.932830810546875
1772790177228113200,10.538113037109374,0.3466339111328125,0.6683197021484375,0.819854736328125
1772790177248148200,10.558148193359376,0.297515869140625,0.69757080078125,0.7154083251953125
1772790177268184000,10.57818408203125,0.2435150146484375,0.7020111083984375,0.616607666015625
1772790177288219100,10.59821923828125,0.19873046875,0.655548095703125,0.52801513671875
1772790177308255200,10.618255126953125,0.1627960205078125,0.6104888916015625,0.4891204833984375
1772790177328290300,10.638290283203125,0.1135711669921875,0.5858001708984375,0.494598388671875
1772790177348326100,10.658326171875,0.07275390625,0.572357177734375,0.5256195068359375
1772790177368362200,10.6783623046875,0.0462188720703125,0.5769195556640625,0.5549774169921875
1772790177388397300,10.698397216796875,0.02569580078125,0.597991943359375,0.57672119140625
1772790177408433200,10.71843310546875,0.0266265869140625,0.6148681640625,0.599090576171875
1772790177428468200,10.73846826171875,0.080474853515625,0.6214599609375,0.60675048828125
1772790177448504300,10.75850439453125,0.1496734619140625,0.6355743408203125,0.6326904296875
1772790177468539100,10.7785390625,0.22705078125,0.6356353759765625,0.6914520263671875
1772790177488575200,10.7985751953125,0.3073577880859375,0.6257476806640625,0.7424163818359375
1772790177508610000,10.818610107421875,0.394683837890625,0.608642578125,0.7822418212890625
1772790177528646100,10.838646240234375,0.48687744140625,0.5722503662109375,0.8053741455078125
1772790177548681000,10.858680908203125,0.5719757080078125,0.53076171875,0.8221893310546875
1772790177568717300,10.87871728515625,0.6254730224609375,0.4894256591796875,0.8131103515625
1772790177588752100,10.898752197265624,0.6384735107421875,0.4656524658203125,0.78741455078125
1772790177608789000,10.9187890625,0.623016357421875,0.478973388671875,0.7649688720703125
1772790177628824000,10.938823974609376,0.6317596435546875,0.6084747314453125,0.8213043212890625
1772790177648860000,10.95885986328125,0.626861572265625,0.8624267578125,0.9204254150390625
1772790177668894700,10.978894775390625,0.594512939453125,1.025390625,0.9808197021484375
1772790177688931000,10.99893115234375,0.5594940185546875,1.1289520263671875,1.0432281494140625
1772790177708966000,11.0189658203125,0.489105224609375,1.1009063720703125,1.0493316650390625
1772790177729001700,11.039001708984374,0.406524658203125,0.92840576171875,0.9674224853515625
1772790177749036800,11.059036865234376,0.352691650390625,0.7937164306640625,0.9044036865234375
1772790177769073000,11.079072998046875,0.3199310302734375,0.735504150390625,0.8600616455078125
1772790177789107700,11.099107666015625,0.3100128173828125,0.7382659912109375,0.81805419921875
1772790177809143800,11.119143798828125,0.3251953125,0.75628662109375,0.753265380859375
1772790177829179600,11.1391796875,0.3631744384765625,0.7948150634765625,0.68280029296875
1772790177849214700,11.159214599609374,0.3720855712890625,0.81103515625,0.63006591796875
1772790177869250800,11.179250732421876,0.36614990234375,0.830413818359375,0.604095458984375
1772790177889286000,11.199285888671875,0.346099853515625,0.8518829345703125,0.592529296875
1772790177909321700,11.21932177734375,0.31658935546875,0.862335205078125,0.5886383056640625
1772790177929356800,11.239356689453125,0.302520751953125,0.858612060546875,0.592620849609375
1772790177949393000,11.259392822265625,0.29168701171875,0.8524322509765625,0.6110382080078125
1772790177969427700,11.279427734375,0.2573089599609375,0.8102874755859375,0.608642578125
1772790177989463800,11.2994638671875,0.2047882080078125,0.7396240234375,0.607147216796875
1772790178009499000,11.319498779296875,0.1530914306640625,0.6923065185546875,0.627777099609375
1772790178029534700,11.33953466796875,0.123809814453125,0.6611328125,0.6446075439453125
1772790178049569800,11.35956982421875,0.1132049560546875,0.64697265625,0.653900146484375
1772790178069606000,11.37960595703125,0.1350250244140625,0.653350830078125,0.66253662109375
1772790178089641000,11.399640869140624,0.1671142578125,0.668365478515625,0.65179443359375
1772790178109676800,11.4196767578125,0.2089385986328125,0.69390869140625,0.6724853515625
1772790178129711900,11.4397119140625,0.265838623046875,0.7042388916015625,0.6785430908203125
1772790178149748000,11.459748046875,0.3156890869140625,0.7073211669921875,0.6786346435546875
1772790178169782800,11.47978271484375,0.37652587890625,0.6988983154296875,0.667022705078125
1772790178189819000,11.49981884765625,0.4594268798828125,0.69354248046875,0.636871337890625
1772790178209854000,11.51985400390625,0.552581787109375,0.7038116455078125,0.6103057861328125
1772790178229889800,11.539889892578126,0.6293182373046875,0.713226318359375,0.5857696533203125
1772790178249924900,11.5599248046875,0.6844482421875,0.73040771484375,0.5859832763671875
1772790178269961000,11.5799609375,0.7015228271484375,0.766082763671875,0.5829925537109375
1772790178289996000,11.59999609375,0.6737518310546875,0.7963714599609375,0.5756378173828125
1772790178310032000,11.620031982421875,0.642608642578125,0.8536376953125,0.6048431396484375
1772790178330068000,11.64006787109375,0.5849151611328125,0.959381103515625,0.658233642578125
1772790178350102800,11.660102783203126,0.49908447265625,1.09832763671875,0.6875152587890625
1772790178370139000,11.680138916015625,0.3696136474609375,1.1518402099609375,0.63409423828125
1772790178390174000,11.700174072265625,0.275634765625,1.1488494873046875,0.5748443603515625
1772790178410209800,11.720209716796875,0.201507568359375,1.122528076171875,0.539031982421875
1772790178430244900,11.740244873046874,0.159912109375,1.1180267333984375,0.5445709228515625
1772790178450281000,11.760281005859374,0.1267852783203125,1.1223602294921875,0.563201904296875
1772790178470316000,11.78031591796875,0.0947265625,1.1529541015625,0.58758544921875
1772790178490351900,11.800351806640625,0.0811614990234375,1.2095794677734375,0.6225433349609375
1772790178510387000,11.820386962890625,0.0555877685546875,1.2776031494140625,0.652618408203125
1772790178530423000,11.840423095703125,0.03875732421875,1.3095855712890625,0.6723175048828125
1772790178550457900,11.860457763671874,0.0223846435546875,1.35845947265625,0.7131805419921875
1772790178570494000,11.880493896484374,-0.00555419921875,1.378662109375,0.7582855224609375
1772790178590529000,11.900529052734376,-0.03582763671875,1.364105224609375,0.8038177490234375
1772790178610564400,11.920564453125,-0.07098388671875,1.3188934326171875,0.8564605712890625
1772790178630599200,11.94059912109375,-0.104766845703125,1.2377166748046875,0.8988494873046875
1772790178650635300,11.96063525390625,-0.1402130126953125,1.13861083984375,0.9257965087890625
1772790178670670300,11.98067041015625,-0.1850738525390625,1.01336669921875,0.9400482177734375
1772790178690706200,12.0007060546875,-0.221099853515625,0.899688720703125,0.9469757080078125
1772790178710741200,12.0207412109375,-0.21612548828125,0.8001861572265625,0.948638916015625
1772790178730777300,12.04077734375,-0.1579437255859375,0.7492218017578125,0.9486236572265625
1772790178750812200,12.060812255859375,-0.078582763671875,0.746002197265625,0.9515838623046875
1772790178770848300,12.08084814453125,-0.005462646484375,0.7449798583984375,0.931488037109375
1772790178790883000,12.100883056640624,0.088043212890625,0.7711639404296875,0.8929443359375
1772790178810919200,12.120919189453126,0.1807708740234375,0.7916412353515625,0.8194580078125
1772790178830954000,12.1409541015625,0.2629241943359375,0.791778564453125,0.7232818603515625
1772790178850990000,12.160989990234375,0.3309783935546875,0.776641845703125,0.61981201171875
1772790178871025200,12.181025146484375,0.362701416015625,0.7599945068359375,0.56280517578125
1772790178891061000,12.20106103515625,0.3620147705078125,0.7453155517578125,0.57720947265625
1772790178911096000,12.221095947265624,0.34271240234375,0.720428466796875,0.60693359375
1772790178931132200,12.241132080078126,0.317626953125,0.720306396484375,0.6358489990234375
1772790178951168000,12.26116796875,0.3013763427734375,0.7491912841796875,0.6588897705078125
1772790178971203000,12.281203125,0.301513671875,0.7698516845703125,0.6608123779296875
1772790178991239200,12.3012392578125,0.3239898681640625,0.7866973876953125,0.6763916015625
1772790179011274000,12.32127392578125,0.3566741943359375,0.7913360595703125,0.691436767578125
1772790179031310000,12.34131005859375,0.4079742431640625,0.7947998046875,0.7530059814453125
1772790179051345200,12.36134521484375,0.4694366455078125,0.7882232666015625,0.8567657470703125
1772790179071381000,12.381381103515626,0.5777130126953125,0.75872802734375,0.930419921875
1772790179091416000,12.401416015625,0.659271240234375,0.724884033203125,0.9742889404296875
1772790179111452200,12.4214521484375,0.6934356689453125,0.663482666015625,0.9925994873046875
1772790179131487200,12.4414873046875,0.6584014892578125,0.589141845703125,0.9839324951171875
1772790179151523000,12.461523193359374,0.5735321044921875,0.4910125732421875,0.9475860595703125
1772790179171558100,12.48155810546875,0.4897003173828125,0.448944091796875,0.92437744140625
1772790179191594200,12.50159423828125,0.432952880859375,0.463897705078125,0.8920745849609375
1772790179211629000,12.521629150390625,0.4048614501953125,0.495391845703125,0.85272216796875
1772790179231665200,12.5416650390625,0.4061431884765625,0.5376129150390625,0.827423095703125
1772790179251700200,12.5617001953125,0.4356231689453125,0.578216552734375,0.8130950927734375
1772790179271736000,12.581736083984374,0.4626312255859375,0.64581298828125,0.849090576171875
1772790179291771100,12.601771240234376,0.4872894287109375,0.762664794921875,0.900604248046875
1772790179311807200,12.62180712890625,0.4666748046875,0.8746795654296875,0.9281463623046875
1772790179331842300,12.64184228515625,0.4040985107421875,0.9088287353515625,0.880157470703125
1772790179351878100,12.661878173828125,0.3206024169921875,0.8822784423828125,0.8193511962890625
1772790179371913200,12.681913330078125,0.252716064453125,0.83319091796875,0.7638397216796875
1772790179391949000,12.701948974609374,0.214111328125,0.8088836669921875,0.7111358642578125
1772790179411984100,12.721984130859376,0.188079833984375,0.786590576171875,0.6376190185546875
1772790179432020200,12.742020263671876,0.1684112548828125,0.7589874267578125,0.55499267578125
1772790179452055300,12.76205517578125,0.1504974365234375,0.750091552734375,0.5193328857421875
1772790179472091100,12.782091064453125,0.1498260498046875,0.7560272216796875,0.5235595703125
1772790179492126200,12.802126220703125,0.1568450927734375,0.77197265625,0.543731689453125
1772790179512162300,12.822162353515624,0.1502532958984375,0.788360595703125,0.5488433837890625
1772790179532197000,12.842197021484376,0.143707275390625,0.796783447265625,0.55218505859375
1772790179552233200,12.862233154296876,0.1313934326171875,0.77606201171875,0.568572998046875
1772790179572269300,12.882269287109375,0.1326904296875,0.751007080078125,0.60943603515625
1772790179592304000,12.90230419921875,0.1422119140625,0.725494384765625,0.6581573486328125
1772790179612340000,12.922340087890625,0.165802001953125,0.6885986328125,0.684539794921875
1772790179632375000,12.942375,0.2004547119140625,0.6537933349609375,0.687774658203125
1772790179652411000,12.962410888671876,0.261260986328125,0.6311798095703125,0.6719970703125
1772790179672446000,12.982446044921875,0.334747314453125,0.6119232177734375,0.65496826171875
1772790179692482000,13.00248193359375,0.43975830078125,0.6063690185546875,0.6174163818359375
1772790179712517000,13.02251708984375,0.482940673828125,0.6701507568359375,0.5897369384765625
1772790179732553000,13.042552978515625,0.480499267578125,0.679962158203125,0.647552490234375
1772790179752588000,13.062588134765624,0.4280242919921875,0.65362548828125,0.6152496337890625
1772790179772624100,13.0826240234375,0.3025970458984375,0.6727142333984375,0.616729736328125
1772790179792659000,13.102658935546875,0.2773284912109375,0.66864013671875,0.606964111328125
1772790179812695000,13.122695068359375,0.32861328125,0.7153472900390625,0.5698394775390625
1772790179832730000,13.142730224609375,0.3519134521484375,0.7106170654296875,0.5793914794921875
1772790179852766000,13.162765869140625,0.4008941650390625,0.7075958251953125,0.58203125
1772790179872801000,13.182801025390624,0.424591064453125,0.726318359375,0.6124725341796875
1772790179892837000,13.202837158203126,0.4526824951171875,0.7283935546875,0.637725830078125
1772790179912872200,13.2228720703125,0.4630889892578125,0.734405517578125,0.673126220703125
1772790179932908000,13.242907958984375,0.5037841796875,0.815704345703125,0.7459716796875
1772790179952943000,13.262943115234375,0.4061737060546875,0.9081573486328125,0.785552978515625
1772790179972979000,13.28297900390625,0.455047607421875,0.9718017578125,0.8197479248046875
1772790179993014000,13.303013916015624,0.373626708984375,1.0526275634765625,0.82318115234375
1772790180013050000,13.323050048828126,0.325592041015625,1.04718017578125,0.8009490966796875
1772790180033085200,13.343085205078125,0.2828521728515625,0.9830780029296875,0.7631378173828125
1772790180053121000,13.36312109375,0.25628662109375,0.9048919677734375,0.759521484375
1772790180073156000,13.383156005859375,0.2149505615234375,0.7895050048828125,0.7436065673828125
1772790180093192200,13.403192138671875,0.212890625,0.6640472412109375,0.7064208984375
1772790180113227000,13.42322705078125,0.22210693359375,0.53363037109375,0.6597900390625
1772790180133263000,13.44326318359375,0.2799835205078125,0.4564971923828125,0.6690673828125
1772790180153298000,13.4632978515625,0.36993408203125,0.4571075439453125,0.7068634033203125
1772790180173333800,13.483333740234375,0.4191131591796875,0.489776611328125,0.7370758056640625
1772790180193368800,13.503368896484375,0.43157958984375,0.535614013671875,0.7477264404296875
1772790180213405000,13.523405029296875,0.425323486328125,0.6123504638671875,0.757720947265625
1772790180233437200,13.543437255859375,0.3943023681640625,0.6660919189453125,0.7399444580078125
1772790180253472000,13.563471923828125,0.3619842529296875,0.71240234375,0.70379638671875
1772790180273508000,13.583508056640625,0.3079986572265625,0.72906494140625,0.6613006591796875
1772790180293543200,13.603543212890624,0.2847900390625,0.7211151123046875,0.612518310546875
1772790180313579000,13.6235791015625,0.2879180908203125,0.7222900390625,0.5779876708984375
1772790180333614000,13.643614013671876,0.3111114501953125,0.7105712890625,0.5334930419921875
1772790180353650200,13.663650146484375,0.3514556884765625,0.6892852783203125,0.4780731201171875
1772790180373685200,13.683685302734375,0.38323974609375,0.6672210693359375,0.4423370361328125
1772790180393721000,13.70372119140625,0.3686981201171875,0.639434814453125,0.4402008056640625
1772790180413756000,13.723755859375,0.3572998046875,0.61651611328125,0.43939208984375
1772790180433792000,13.7437919921875,0.3268280029296875,0.5981292724609375,0.442138671875
1772790180453826800,13.763826904296875,0.3027191162109375,0.5879669189453125,0.418701171875
1772790180473863000,13.78386279296875,0.2918853759765625,0.58782958984375,0.3923187255859375
1772790180493898000,13.80389794921875,0.29364013671875,0.62432861328125,0.39422607421875
1772790180513933800,13.823933837890625,0.2693939208984375,0.6529083251953125,0.4075164794921875
1772790180533969000,13.843968994140624,0.2327728271484375,0.6809234619140625,0.424041748046875
1772790180554005000,13.8640048828125,0.215576171875,0.7004241943359375,0.42578125
1772790180574040000,13.8840400390625,0.2094573974609375,0.68365478515625,0.4477081298828125
1772790180594076000,13.904075927734375,0.2498931884765625,0.6801605224609375,0.51318359375
1772790180614111500,13.924111572265625,0.2998046875,0.677978515625,0.595672607421875
1772790180634147300,13.944147216796875,0.38372802734375,0.6973876953125,0.728546142578125
1772790180654186500,13.9641865234375,0.5001678466796875,0.872528076171875,0.952606201171875
1772790180674222600,13.98422265625,0.518096923828125,1.0068511962890625,1.0722808837890625
1772790180694257200,14.004257080078125,0.4618377685546875,1.023284912109375,1.1203155517578125
1772790180714293500,14.02429345703125,0.41461181640625,1.0074920654296875,1.187652587890625
1772790180734328300,14.044328369140626,0.3521881103515625,0.846893310546875,1.1459197998046875
1772790180754364400,14.064364501953126,0.3036346435546875,0.6583099365234375,1.092437744140625
1772790180774399200,14.084399169921875,0.297119140625,0.5250244140625,1.029083251953125
1772790180794435300,14.104435302734375,0.2853851318359375,0.469482421875,0.92010498046875
1772790180814470400,14.124470458984375,0.3037872314453125,0.48486328125,0.784027099609375
1772790180834506200,14.14450634765625,0.321990966796875,0.5157318115234375,0.675689697265625
1772790180854541300,14.164541259765626,0.3603668212890625,0.554168701171875,0.6195220947265625
1772790180874577400,14.184577392578126,0.3538818359375,0.5831451416015625,0.6072235107421875
1772790180894612200,14.2046123046875,0.2950439453125,0.6197967529296875,0.633331298828125
1772790180914648300,14.2246484375,0.243011474609375,0.66888427734375,0.684600830078125
1772790180934683400,14.244683349609375,0.200958251953125,0.7138519287109375,0.7435760498046875
1772790180954719200,14.26471923828125,0.1702423095703125,0.737548828125,0.7674407958984375
1772790180974754300,14.28475439453125,0.1492767333984375,0.751800537109375,0.773162841796875
1772790180994790400,14.304790283203126,0.1098785400390625,0.7439117431640625,0.7752685546875
1772790181014825500,14.324825439453125,0.1066131591796875,0.7428436279296875,0.7957000732421875
1772790181034861300,14.344861328125,0.1224212646484375,0.739654541015625,0.81671142578125
1772790181054896400,14.364896484375,0.1668701171875,0.72882080078125,0.80816650390625
1772790181074932200,14.38493212890625,0.2283782958984375,0.718475341796875,0.7840118408203125
1772790181094967300,14.40496728515625,0.2933807373046875,0.7493438720703125,0.7911834716796875
1772790181115003400,14.42500341796875,0.3164520263671875,0.731719970703125,0.7725830078125
1772790181135038500,14.44503857421875,0.3361968994140625,0.738128662109375,0.76287841796875
1772790181155074300,14.46507421875,0.3270416259765625,0.7633819580078125,0.756439208984375
1772790181175109400,14.485109375,0.29046630859375,0.78564453125,0.7442626953125
1772790181195145500,14.5051455078125,0.267242431640625,0.83331298828125,0.73468017578125
1772790181215180300,14.52518017578125,0.253387451171875,0.8868255615234375,0.7190399169921875
1772790181235216400,14.54521630859375,0.2346954345703125,0.916351318359375,0.6745147705078125
1772790181255251500,14.56525146484375,0.214202880859375,0.890869140625,0.6213836669921875
1772790181275287300,14.585287353515625,0.2028656005859375,0.8266754150390625,0.581268310546875
1772790181295322400,14.605322265625,0.201385498046875,0.7747650146484375,0.5950469970703125
1772790181315358500,14.6253583984375,0.25054931640625,0.8058319091796875,0.68560791015625
1772790181335393500,14.6453935546875,0.2657623291015625,0.857391357421875,0.7117156982421875
1772790181355429400,14.665429443359375,0.21356201171875,0.854156494140625,0.674346923828125
1772790181375464400,14.68546435546875,0.197601318359375,0.900482177734375,0.65313720703125
1772790181395500500,14.70550048828125,0.198028564453125,0.9340972900390625,0.609130859375
1772790181415535400,14.725535400390624,0.211212158203125,0.9008026123046875,0.561737060546875
1772790181435571500,14.745571533203124,0.2452392578125,0.7864837646484375,0.5127105712890625
1772790181455606500,14.7656064453125,0.302581787109375,0.6442413330078125,0.483001708984375
1772790181475642400,14.785642333984375,0.3649749755859375,0.526275634765625,0.5161590576171875
1772790181495677400,14.805677490234375,0.4303436279296875,0.4070892333984375,0.6002349853515625
1772790181515713500,14.825713623046875,0.509735107421875,0.3338470458984375,0.6449432373046875
1772790181535748600,14.84574853515625,0.5509185791015625,0.366943359375,0.682464599609375
1772790181555784400,14.865784423828124,0.5808868408203125,0.422821044921875,0.6558685302734375
1772790181575819500,14.885819580078126,0.5995330810546875,0.4819488525390625,0.652587890625
1772790181595855400,14.90585546875,0.5289764404296875,0.516937255859375,0.6953887939453125
1772790181615890200,14.92589013671875,0.415191650390625,0.547088623046875,0.75885009765625
1772790181635926300,14.94592626953125,0.3098907470703125,0.562652587890625,0.800689697265625
1772790181655961300,14.96596142578125,0.232330322265625,0.5871429443359375,0.8068084716796875
1772790181675997200,14.9859970703125,0.165557861328125,0.6098480224609375,0.7805633544921875
1772790181696032300,15.0060322265625,0.11834716796875,0.63568115234375,0.741973876953125
1772790181716068400,15.026068359375,0.0853118896484375,0.657501220703125,0.694244384765625
1772790181736103400,15.046103515625,0.0593109130859375,0.6579132080078125,0.6349334716796875
1772790181756139300,15.06613916015625,0.0419921875,0.648101806640625,0.596405029296875
1772790181776174300,15.08617431640625,0.0532989501953125,0.6208038330078125,0.5862884521484375
1772790181796210200,15.106210205078124,0.093109130859375,0.5783538818359375,0.628021240234375
1772790181816245200,15.126245361328126,0.1384124755859375,0.5137786865234375,0.6528472900390625
1772790181836281300,15.14628125,0.17877197265625,0.497222900390625,0.656890869140625
1772790181856316400,15.16631640625,0.2140655517578125,0.50958251953125,0.648834228515625
1772790181876352300,15.186352294921875,0.245391845703125,0.546844482421875,0.627288818359375
1772790181896387300,15.20638720703125,0.2767181396484375,0.599334716796875,0.660491943359375
1772790181916423400,15.22642333984375,0.28582763671875,0.61199951171875,0.73797607421875
1772790181936458200,15.246458251953126,0.3160858154296875,0.61602783203125,0.8184356689453125
1772790181956494300,15.266494384765625,0.350921630859375,0.63165283203125,0.8557586669921875
1772790181976529400,15.286529296875,0.382476806640625,0.6444549560546875,0.85540771484375
1772790181996565200,15.306565185546875,0.437835693359375,0.621368408203125,0.9244842529296875
1772790182016600300,15.326600341796874,0.505340576171875,0.5329437255859375,0.9938812255859375
1772790182036636400,15.346636474609374,0.5960540771484375,0.4326934814453125,1.015106201171875
1772790182056671500,15.36667138671875,0.7437286376953125,0.522613525390625,1.0594635009765625
1772790182076707300,15.386707275390625,0.8318023681640625,0.630889892578125,1.0631103515625
1772790182096742400,15.406742431640625,0.8434295654296875,0.7128448486328125,1.0554656982421875
1772790182116778500,15.426778564453125,0.7637176513671875,0.6909027099609375,1.0658721923828125
1772790182136813300,15.446813232421874,0.6721343994140625,0.655242919921875,1.107208251953125
1772790182156849400,15.466849365234374,0.5485076904296875,0.577545166015625,1.1059417724609375
1772790182176884500,15.486884521484376,0.4821624755859375,0.51953125,1.027374267578125
1772790182196920300,15.50692041015625,0.4382476806640625,0.50604248046875,0.8874053955078125
1772790182216955100,15.526955078125,0.428863525390625,0.5084686279296875,0.7094879150390625
1772790182236991500,15.546991455078125,0.4579925537109375,0.5660400390625,0.633148193359375
1772790182257026300,15.5670263671875,0.495635986328125,0.644256591796875,0.5985260009765625
1772790182277061000,15.58706103515625,0.5376739501953125,0.69384765625,0.5703277587890625
1772790182297097200,15.60709716796875,0.5381011962890625,0.7219696044921875,0.5831451416015625
1772790182317132300,15.62713232421875,0.512237548828125,0.7201385498046875,0.620819091796875
1772790182337168100,15.647168212890625,0.471893310546875,0.692840576171875,0.6488494873046875
1772790182357203200,15.667203125,0.45843505859375,0.6772003173828125,0.678741455078125
1772790182377239300,15.6872392578125,0.453857421875,0.6578369140625,0.7120208740234375
1772790182397274400,15.7072744140625,0.4367218017578125,0.62457275390625,0.7281646728515625
1772790182417310200,15.727310302734375,0.407745361328125,0.6082000732421875,0.7293243408203125
1772790182437345300,15.74734521484375,0.333770751953125,0.6079559326171875,0.710845947265625
1772790182457381400,15.76738134765625,0.2957000732421875,0.64044189453125,0.7104949951171875
1772790182477416200,15.787416259765624,0.2608184814453125,0.6667633056640625,0.7043914794921875
1772790182497452300,15.807452392578124,0.267852783203125,0.696624755859375,0.70733642578125
1772790182517487400,15.8274873046875,0.2521820068359375,0.700714111328125,0.6786956787109375
1772790182537523200,15.847523193359375,0.2528076171875,0.700531005859375,0.648956298828125
1772790182557558300,15.867558349609375,0.2406158447265625,0.6838836669921875,0.63494873046875
1772790182577594400,15.887594482421875,0.2277679443359375,0.6749725341796875,0.6614837646484375
1772790182597630000,15.9076298828125,0.214630126953125,0.6710205078125,0.6773529052734375
1772790182617666000,15.927666015625,0.21868896484375,0.7062835693359375,0.702850341796875
1772790182637701000,15.947701171875,0.2039794921875,0.7127838134765625,0.6634979248046875
1772790182657737000,15.967737060546876,0.2160491943359375,0.707977294921875,0.615875244140625
1772790182677771800,15.987771728515625,0.229522705078125,0.6736907958984375,0.5713653564453125
1772790182697808100,16.00780810546875,0.258880615234375,0.640899658203125,0.5670623779296875
1772790182717843000,16.027843017578125,0.280181884765625,0.6083984375,0.5741119384765625
1772790182737879000,16.047879150390624,0.3065948486328125,0.5866851806640625,0.60980224609375
1772790182757913900,16.067913818359376,0.4070892333984375,0.68487548828125,0.71856689453125
1772790182777949700,16.08794970703125,0.450103759765625,0.7565460205078125,0.71038818359375
1772790182797984800,16.10798486328125,0.44775390625,0.8139801025390625,0.6798248291015625
1772790182818020900,16.128020751953127,0.371826171875,0.820770263671875,0.6283111572265625
1772790182838056000,16.148055908203126,0.3299713134765625,0.7838287353515625,0.6151885986328125
1772790182858091800,16.168091796875,0.3248443603515625,0.723907470703125,0.6260986328125
1772790182878126800,16.188126953125,0.3413848876953125,0.64190673828125,0.6489105224609375
1772790182898163000,16.208162841796874,0.379638671875,0.5650482177734375,0.66583251953125
1772790182918197800,16.22819775390625,0.4268951416015625,0.497833251953125,0.663726806640625
1772790182938233900,16.24823388671875,0.4854583740234375,0.482940673828125,0.6946563720703125
1772790182958269000,16.26826904296875,0.5401763916015625,0.5066375732421875,0.7607574462890625
1772790182978304800,16.2883046875,0.5712890625,0.5327911376953125,0.8180694580078125
1772790182998339800,16.30833984375,0.5740814208984375,0.56585693359375,0.8355255126953125
1772790183018376000,16.3283759765625,0.53533935546875,0.60443115234375,0.8583831787109375
1772790183038411000,16.348410888671875,0.4554595947265625,0.6493988037109375,0.884185791015625
1772790183058446800,16.36844677734375,0.3540802001953125,0.67059326171875,0.895782470703125
1772790183078482000,16.38848193359375,0.2525177001953125,0.649993896484375,0.8805389404296875
1772790183098518000,16.40851806640625,0.2031097412109375,0.6324462890625,0.860992431640625
1772790183118552800,16.428552734375,0.1728668212890625,0.6086578369140625,0.83026123046875
1772790183138588000,16.448587890625,0.17962646484375,0.5882568359375,0.79278564453125
1772790183158624000,16.4686240234375,0.2171478271484375,0.56494140625,0.7538299560546875
1772790183178659000,16.4886591796875,0.259246826171875,0.55596923828125,0.7083740234375
1772790183198695000,16.50869482421875,0.2711639404296875,0.5435333251953125,0.67108154296875
1772790183218730000,16.52872998046875,0.28204345703125,0.540130615234375,0.6517181396484375
1772790183238766000,16.54876611328125,0.2530059814453125,0.53375244140625,0.6309661865234375
1772790183258801000,16.56880078125,0.2313385009765625,0.5384368896484375,0.6206512451171875
1772790183278837000,16.5888369140625,0.2271270751953125,0.5445098876953125,0.6348724365234375
1772790183298872000,16.6088720703125,0.239349365234375,0.553558349609375,0.6484222412109375
1772790183318908000,16.628907958984374,0.2721405029296875,0.5682220458984375,0.665191650390625
1772790183338943000,16.64894287109375,0.3164520263671875,0.59625244140625,0.6841888427734375
1772790183358979000,16.66897900390625,0.35479736328125,0.64373779296875,0.712158203125
1772790183379014000,16.689013916015625,0.3730010986328125,0.6872711181640625,0.7337799072265625
1772790183399050000,16.709050048828125,0.3699188232421875,0.712860107421875,0.7532501220703125
1772790183419085000,16.7290849609375,0.3625640869140625,0.723541259765625,0.7529296875
1772790183439121000,16.749120849609376,0.3158721923828125,0.7118072509765625,0.7519683837890625
1772790183459156000,16.769156005859376,0.294219970703125,0.6695098876953125,0.7430419921875
1772790183479192000,16.789192138671876,0.3451385498046875,0.7232208251953125,0.80865478515625
1772790183499227000,16.809226806640623,0.349578857421875,0.7838287353515625,0.8224945068359375
1772790183519263000,16.829262939453123,0.3294677734375,0.83746337890625,0.835968017578125
1772790183539297800,16.8492978515625,0.28973388671875,0.8551025390625,0.8439788818359375
1772790183559334000,16.869333984375,0.2444000244140625,0.81170654296875,0.8461761474609375
1772790183579368700,16.88936865234375,0.2000579833984375,0.7378387451171875,0.8429107666015625
1772790183599404300,16.909404296875,0.1706390380859375,0.6590118408203125,0.8400421142578125
1772790183619439400,16.929439453125,0.160858154296875,0.6201629638671875,0.83892822265625
1772790183639475500,16.949475341796877,0.1506500244140625,0.6034088134765625,0.819854736328125
1772790183659510300,16.96951025390625,0.1520538330078125,0.5988616943359375,0.787872314453125
1772790183679546400,16.98954638671875,0.155548095703125,0.62677001953125,0.77337646484375
1772790183699581400,17.00958154296875,0.179901123046875,0.6743011474609375,0.786651611328125
1772790183719617300,17.0296171875,0.2001800537109375,0.7318267822265625,0.8099822998046875
1772790183739652400,17.04965234375,0.221466064453125,0.7949066162109375,0.8355560302734375
1772790183759687400,17.0696875,0.24053955078125,0.8646240234375,0.8686370849609375
1772790183779723500,17.0897236328125,0.2692718505859375,0.9459228515625,0.8942413330078125
1772790183799758300,17.10975830078125,0.2518768310546875,0.939117431640625,0.8427581787109375
1772790183819794400,17.12979443359375,0.2312469482421875,0.9225006103515625,0.813934326171875
1772790183839829500,17.14982958984375,0.195220947265625,0.8871307373046875,0.7890625
1772790183859865300,17.169865234375,0.1599578857421875,0.8489837646484375,0.76971435546875
1772790183879900400,17.189900390625,0.1479949951171875,0.8214263916015625,0.7516937255859375
1772790183899936500,17.2099365234375,0.15728759765625,0.803375244140625,0.7241363525390625
1772790183919971600,17.2299716796875,0.1944580078125,0.7969512939453125,0.69488525390625
1772790183940007400,17.25000732421875,0.230621337890625,0.7969512939453125,0.656829833984375
1772790183960042500,17.27004248046875,0.2607574462890625,0.789337158203125,0.60577392578125
1772790183980078300,17.290078369140623,0.2901611328125,0.798553466796875,0.57720947265625
1772790184000113400,17.310113525390626,0.310150146484375,0.7949981689453125,0.534759521484375
1772790184020149500,17.3301494140625,0.3038787841796875,0.779388427734375,0.52593994140625
1772790184040184300,17.350184326171874,0.29779052734375,0.7732696533203125,0.5266265869140625
1772790184060220400,17.370220458984374,0.2923583984375,0.7642364501953125,0.5110015869140625
1772790184080255200,17.390255126953125,0.2772064208984375,0.7548675537109375,0.487030029296875
1772790184100291600,17.41029150390625,0.256439208984375,0.724578857421875,0.4587554931640625
1772790184120326400,17.430326416015625,0.234954833984375,0.6888275146484375,0.4475250244140625
1772790184140362200,17.4503623046875,0.269256591796875,0.70758056640625,0.527374267578125
1772790184160397300,17.470397216796876,0.2944183349609375,0.7923583984375,0.6116790771484375
1772790184180433200,17.49043310546875,0.275787353515625,0.8441925048828125,0.6100311279296875
1772790184200468200,17.51046826171875,0.2673492431640625,0.892333984375,0.6076507568359375
1772790184220500500,17.53050048828125,0.3321533203125,0.94195556640625,0.6156158447265625
1772790184240535300,17.550535400390626,0.419921875,0.945831298828125,0.585968017578125
1772790184260571400,17.5705712890625,0.5041961669921875,0.905303955078125,0.5791015625
1772790184280606200,17.590606201171877,0.5319976806640625,0.8050079345703125,0.578643798828125
1772790184300642600,17.610642578125,0.537567138671875,0.691741943359375,0.5750579833984375
1772790184320677400,17.630677490234376,0.5459136962890625,0.61029052734375,0.58929443359375
1772790184340713200,17.650713134765624,0.53369140625,0.5435638427734375,0.6125335693359375
1772790184360748300,17.670748291015624,0.533935546875,0.55145263671875,0.669403076171875
1772790184380784400,17.690784423828124,0.5149383544921875,0.622039794921875,0.7526092529296875
1772790184400819200,17.710819091796875,0.4339141845703125,0.695892333984375,0.8085479736328125
1772790184420855300,17.730855224609375,0.3464508056640625,0.7471771240234375,0.86700439453125
1772790184440890400,17.750890380859374,0.2469482421875,0.7743377685546875,0.9026336669921875
1772790184460925400,17.770925537109374,0.1807861328125,0.773712158203125,0.908203125
1772790184480961300,17.790961181640625,0.11358642578125,0.7501373291015625,0.88330078125
1772790184500996400,17.810996337890625,0.082550048828125,0.7162017822265625,0.857940673828125
1772790184521032400,17.831032470703125,0.0713958740234375,0.70672607421875,0.8454742431640625
1772790184541067300,17.8510673828125,0.08099365234375,0.7070159912109375,0.8159637451171875
1772790184561103400,17.871103271484376,0.0966796875,0.7023773193359375,0.76934814453125
1772790184581138400,17.891138427734376,0.12445068359375,0.7095489501953125,0.716796875
1772790184601174300,17.91117431640625,0.1462249755859375,0.6887664794921875,0.6587677001953125
1772790184621209000,17.931208984375,0.1691741943359375,0.6564483642578125,0.6229705810546875
1772790184641248300,17.951248291015624,0.180511474609375,0.6129608154296875,0.5998992919921875
1772790184661284000,17.9712841796875,0.1941070556640625,0.5981597900390625,0.597137451171875
1772790184681319200,17.991319091796875,0.194549560546875,0.60516357421875,0.5915985107421875
1772790184701355300,18.011355224609375,0.195220947265625,0.6241302490234375,0.6033477783203125
1772790184721390300,18.031390380859374,0.2174072265625,0.6388702392578125,0.612030029296875
1772790184741426200,18.05142626953125,0.264190673828125,0.6454315185546875,0.636932373046875
1772790184761461200,18.071461181640625,0.34478759765625,0.6369171142578125,0.70465087890625
1772790184781497300,18.091497314453125,0.4390716552734375,0.6030426025390625,0.782073974609375
1772790184801532200,18.1115322265625,0.523101806640625,0.5789642333984375,0.8503265380859375
1772790184821568300,18.131568359375,0.59112548828125,0.5513153076171875,0.8829345703125
1772790184841603300,18.151603271484376,0.63037109375,0.52362060546875,0.8905181884765625
1772790184861639200,18.17163916015625,0.6909332275390625,0.5526580810546875,0.9460906982421875
1772790184881674200,18.19167431640625,0.7159271240234375,0.6576995849609375,0.981353759765625
1772790184901710300,18.21171044921875,0.6801300048828125,0.719879150390625,0.96624755859375
1772790184921745400,18.231745361328127,0.6074981689453125,0.7854461669921875,0.957183837890625
1772790184941781200,18.25178125,0.5215911865234375,0.8004913330078125,0.9310302734375
1772790184961816300,18.27181640625,0.4519805908203125,0.791107177734375,0.9102020263671875
1772790184981852400,18.291852294921874,0.3961181640625,0.767364501953125,0.8719024658203125
1772790185001887200,18.31188720703125,0.3526611328125,0.7479248046875,0.8274078369140625
1772790185021922300,18.33192236328125,0.3251953125,0.742706298828125,0.7722625732421875
1772790185041958400,18.35195849609375,0.2931365966796875,0.732269287109375,0.7110137939453125
1772790185061993500,18.371993408203124,0.269256591796875,0.7223052978515625,0.6706695556640625
1772790185082029300,18.392029296875,0.2264862060546875,0.705902099609375,0.6465606689453125
1772790185102064400,18.412064453125,0.1963653564453125,0.708953857421875,0.638763427734375
1772790185122100500,18.4321005859375,0.153594970703125,0.706939697265625,0.6411285400390625
1772790185142135000,18.452135009765627,0.1387786865234375,0.72369384765625,0.6611785888671875
1772790185162171400,18.47217138671875,0.1524658203125,0.7788848876953125,0.706085205078125
1772790185182206200,18.492206298828126,0.1657562255859375,0.8380126953125,0.74407958984375
1772790185202242000,18.512241943359374,0.1725311279296875,0.886322021484375,0.7710723876953125
1772790185222277000,18.532277099609374,0.1892852783203125,0.9333038330078125,0.798980712890625
1772790185242313200,18.552313232421874,0.1864013671875,0.9427032470703125,0.8190460205078125
1772790185262348300,18.572348388671877,0.188232421875,0.9396209716796875,0.839111328125
1772790185282384100,18.592384033203125,0.1774444580078125,0.918365478515625,0.82305908203125
1772790185302419200,18.612419189453124,0.1632537841796875,0.88165283203125,0.799896240234375
1772790185322455000,18.632455078125,0.1583251953125,0.84271240234375,0.7793731689453125
1772790185342490000,18.652489990234375,0.1636199951171875,0.8060150146484375,0.7608489990234375
1772790185362525200,18.672525146484375,0.1841278076171875,0.778900146484375,0.729248046875
1772790185382561300,18.692561279296875,0.21893310546875,0.764373779296875,0.6952667236328125
1772790185402596400,18.712596435546875,0.2480621337890625,0.7562713623046875,0.65216064453125
1772790185422632200,18.732632080078126,0.2613677978515625,0.749664306640625,0.5859832763671875
1772790185442667300,18.752667236328126,0.2852935791015625,0.742156982421875,0.50225830078125
1772790185462703000,18.772703125,0.30914306640625,0.7210540771484375,0.4277191162109375
1772790185482738200,18.79273828125,0.325042724609375,0.6907196044921875,0.3520355224609375
1772790185502774300,18.812774169921877,0.334259033203125,0.6656494140625,0.301025390625
1772790185522809300,18.832809326171876,0.315948486328125,0.6414031982421875,0.2908782958984375
1772790185542845200,18.85284521484375,0.30194091796875,0.6340179443359375,0.3178253173828125
1772790185562880300,18.87288037109375,0.3124237060546875,0.646514892578125,0.3357696533203125
1772790185582916400,18.892916259765624,0.3712921142578125,0.6677398681640625,0.35382080078125
1772790185602951200,18.912951171875,0.42626953125,0.7109222412109375,0.3729248046875
1772790185622986200,18.932986328125,0.4774017333984375,0.77099609375,0.406982421875
1772790185643022300,18.953022216796874,0.50714111328125,0.8319854736328125,0.443572998046875
1772790185663057400,18.973057373046874,0.5254974365234375,0.89031982421875,0.502105712890625
1772790185683093200,18.99309326171875,0.5448760986328125,0.9268646240234375,0.5959625244140625
1772790185703128300,19.01312841796875,0.6117706298828125,1.029693603515625,0.733642578125
1772790185723164400,19.033164306640625,0.6610107421875,1.151641845703125,0.821044921875
1772790185743199200,19.05319921875,0.665618896484375,1.27154541015625,0.918121337890625
1772790185763235300,19.0732353515625,0.5998687744140625,1.307373046875,0.97430419921875
1772790185783270400,19.0932705078125,0.505218505859375,1.2683258056640625,1.0148468017578125
1772790185803306200,19.11330615234375,0.408905029296875,1.201568603515625,1.0339508056640625
1772790185823341300,19.13334130859375,0.3119659423828125,1.1110992431640625,1.0142974853515625
1772790185843377400,19.15337744140625,0.218536376953125,1.001922607421875,0.9651031494140625
1772790185863412200,19.173412109375,0.1412811279296875,0.881439208984375,0.9019622802734375
1772790185883447300,19.193447265625,0.07763671875,0.7950439453125,0.874298095703125
1772790185903483100,19.213483154296874,0.03533935546875,0.7136688232421875,0.832550048828125
1772790185923518200,19.233518310546874,0.026885986328125,0.6647186279296875,0.8058319091796875
1772790185943554000,19.253553955078125,0.0558013916015625,0.6837310791015625,0.80267333984375
1772790185963589000,19.273589111328125,0.07623291015625,0.7278289794921875,0.79791259765625
1772790185983625200,19.293625244140625,0.07940673828125,0.7600555419921875,0.7715911865234375
1772790186003660300,19.313660400390624,0.060577392578125,0.7734527587890625,0.7306976318359375
1772790186023696100,19.333696044921876,0.0290374755859375,0.7490692138671875,0.6760101318359375
1772790186043731200,19.353731201171875,-0.01190185546875,0.701690673828125,0.651824951171875
1772790186063767300,19.373767333984375,-0.038848876953125,0.65386962890625,0.643280029296875
1772790186083802000,19.393802001953127,-0.0520172119140625,0.625152587890625,0.6443939208984375
1772790186103837200,19.413837158203126,-0.0516510009765625,0.60870361328125,0.63800048828125
1772790186123873300,19.433873291015626,-0.0260467529296875,0.59466552734375,0.6497344970703125
1772790186143908400,19.453908447265626,0.0399627685546875,0.5715484619140625,0.6356048583984375
1772790186163944200,19.473944091796874,0.11663818359375,0.5808258056640625,0.63427734375
1772790186183979300,19.493979248046877,0.1751861572265625,0.5788726806640625,0.6113433837890625
1772790186204015400,19.514015380859377,0.241546630859375,0.5999908447265625,0.62005615234375
1772790186224050200,19.53405029296875,0.316070556640625,0.6169891357421875,0.6603546142578125
1772790186244086300,19.554086181640624,0.3952484130859375,0.606842041015625,0.6406707763671875
1772790186264121300,19.574121337890624,0.504852294921875,0.60931396484375,0.5824432373046875
1772790186284157200,19.5941572265625,0.6086883544921875,0.614166259765625,0.56536865234375
1772790186304192300,19.614192138671875,0.6881256103515625,0.6195526123046875,0.58404541015625
1772790186324228400,19.634228271484375,0.7618865966796875,0.6714935302734375,0.6542205810546875
1772790186344263400,19.654263427734374,0.841705322265625,0.717132568359375,0.7245330810546875
1772790186364298200,19.67429833984375,0.9673004150390625,0.7370452880859375,0.73553466796875
1772790186384334300,19.694334228515626,1.0627593994140625,0.7156982421875,0.723876953125
1772790186404369400,19.714369384765625,1.0358734130859375,0.6649322509765625,0.7181396484375
1772790186424405200,19.7344052734375,0.89373779296875,0.604766845703125,0.69512939453125
1772790186444440300,19.7544404296875,0.6985015869140625,0.597198486328125,0.6815338134765625
1772790186464476400,19.774476318359376,0.54937744140625,0.6676177978515625,0.738739013671875
1772790186484511200,19.79451123046875,0.41455078125,0.775360107421875,0.76995849609375
1772790186504547300,19.81454736328125,0.314239501953125,0.8717193603515625,0.79010009765625
1772790186524582100,19.83458203125,0.2360687255859375,0.934356689453125,0.8097076416015625
1772790186544618500,19.854618408203127,0.16552734375,0.91070556640625,0.8079681396484375
1772790186564653000,19.874653076171874,0.1285552978515625,0.8486785888671875,0.8126678466796875
1772790186584688000,19.894688232421874,0.106689453125,0.7730255126953125,0.826904296875
1772790186604724500,19.914724365234374,0.097747802734375,0.7249908447265625,0.8246917724609375
1772790186624759600,19.934759521484374,0.1029205322265625,0.701202392578125,0.81427001953125
1772790186644795400,19.95479541015625,0.1043701171875,0.688140869140625,0.779510498046875
1772790186664830500,19.97483056640625,0.113739013671875,0.6912078857421875,0.74224853515625
1772790186684866300,19.9948662109375,0.1120452880859375,0.6912078857421875,0.7108306884765625
1772790186704901400,20.0149013671875,0.119873046875,0.69342041015625,0.6963653564453125
1772790186724937500,20.0349375,0.133697509765625,0.7026214599609375,0.688934326171875
1772790186744972500,20.05497265625,0.1445465087890625,0.7218170166015625,0.683990478515625
1772790186765008400,20.07500830078125,0.1468353271484375,0.7567901611328125,0.674652099609375
1772790186785043500,20.09504345703125,0.1320343017578125,0.8056793212890625,0.67132568359375
1772790186805078500,20.11507861328125,0.111175537109375,0.8575592041015625,0.6754913330078125
1772790186825114400,20.1351142578125,0.102874755859375,0.885986328125,0.670074462890625
1772790186845149400,20.1551494140625,0.11126708984375,0.8957366943359375,0.659149169921875
1772790186865185500,20.175185546875,0.13201904296875,0.8658294677734375,0.649261474609375
1772790186885220600,20.195220703125,0.16510009765625,0.82147216796875,0.6385345458984375
1772790186905256400,20.21525634765625,0.197113037109375,0.77215576171875,0.6338348388671875
1772790186925291500,20.23529150390625,0.23675537109375,0.7427215576171875,0.6399993896484375
1772790186945327600,20.25532763671875,0.2737579345703125,0.723388671875,0.6375579833984375
1772790186965362400,20.275362548828124,0.3010406494140625,0.714874267578125,0.62786865234375
1772790186985398500,20.2953984375,0.3273162841796875,0.71295166015625,0.618896484375
1772790187005433600,20.31543359375,0.341461181640625,0.70928955078125,0.59381103515625
1772790187025468700,20.33546875,0.3425140380859375,0.7139129638671875,0.58154296875
1772790187045504500,20.35550439453125,0.3416290283203125,0.729278564453125,0.589263916015625
1772790187065539600,20.37553955078125,0.3375091552734375,0.7465667724609375,0.589111328125
1772790187085575700,20.39557568359375,0.358245849609375,0.787078857421875,0.605560302734375
1772790187105610500,20.415610595703125,0.3669281005859375,0.83673095703125,0.6072998046875
1772790187125646600,20.435646484375,0.3585205078125,0.8599853515625,0.5928497314453125
1772790187145681700,20.455681640625,0.33392333984375,0.8406982421875,0.587432861328125
1772790187165717500,20.475717529296876,0.3169708251953125,0.7895050048828125,0.5943450927734375
1772790187185752300,20.49575244140625,0.3750457763671875,0.8046112060546875,0.66705322265625
1772790187205787400,20.515787353515623,0.4180755615234375,0.8567962646484375,0.68365478515625
1772790187225823500,20.535823486328123,0.4308013916015625,0.8817138671875,0.6618804931640625
1772790187245858300,20.5558583984375,0.43572998046875,0.889007568359375,0.6290283203125
1772790187265894400,20.575894287109374,0.46551513671875,0.8914337158203125,0.6073455810546875
1772790187285929500,20.595929443359374,0.4942474365234375,0.8829345703125,0.5975494384765625
1772790187305965300,20.61596533203125,0.502777099609375,0.8401947021484375,0.5846710205078125
1772790187326000400,20.63600048828125,0.4819793701171875,0.770233154296875,0.55810546875
1772790187346036500,20.656036376953125,0.4248199462890625,0.69891357421875,0.5355072021484375
1772790187366071600,20.676071533203125,0.33404541015625,0.634246826171875,0.521209716796875
1772790187386107400,20.696107421875,0.2451324462890625,0.587493896484375,0.533477783203125
1772790187406142500,20.716142578125,0.182586669921875,0.5779266357421875,0.564727783203125
1772790187426177500,20.736177490234375,0.1611785888671875,0.6208648681640625,0.6211700439453125
1772790187446213400,20.75621337890625,0.1384735107421875,0.701202392578125,0.668975830078125
1772790187466248400,20.77624853515625,0.1095123291015625,0.7963409423828125,0.70208740234375
1772790187486284500,20.796284423828126,0.0627288818359375,0.8680419921875,0.7527923583984375
1772790187506319600,20.816319580078126,0.0279083251953125,0.890716552734375,0.7929229736328125
1772790187526355500,20.83635546875,-0.001708984375,0.8564605712890625,0.8075408935546875
1772790187546390500,20.856390625,-0.0211944580078125,0.795623779296875,0.80487060546875
1772790187566426600,20.876426513671873,-0.022979736328125,0.731719970703125,0.806488037109375
1772790187586461400,20.89646142578125,-0.016082763671875,0.6800537109375,0.8077392578125
1772790187606496500,20.91649658203125,0.0143890380859375,0.638092041015625,0.7963409423828125
1772790187626532600,20.93653271484375,0.0647735595703125,0.623931884765625,0.7665252685546875
1772790187646567700,20.956567626953124,0.096954345703125,0.6159210205078125,0.729522705078125
1772790187666603500,20.976603515625,0.1434173583984375,0.6230621337890625,0.697723388671875
1772790187686638600,20.996638671875,0.197967529296875,0.6253204345703125,0.644622802734375
1772790187706674700,21.0166748046875,0.2565155029296875,0.629638671875,0.59564208984375
1772790187726709500,21.03670947265625,0.29461669921875,0.6354522705078125,0.5734405517578125
1772790187746745600,21.05674560546875,0.3087921142578125,0.6401519775390625,0.577911376953125
1772790187766780700,21.07678076171875,0.3212127685546875,0.6644287109375,0.57861328125
1772790187786815700,21.096815673828125,0.35125732421875,0.72869873046875,0.618682861328125
1772790187806851600,21.1168515625,0.3935546875,0.80633544921875,0.6904296875
1772790187826886700,21.13688671875,0.4680023193359375,0.8544921875,0.785491943359375
1772790187846922800,21.1569228515625,0.5512542724609375,0.83599853515625,0.837738037109375
1772790187866957300,21.176957275390624,0.6245880126953125,0.7806243896484375,0.8355865478515625
1772790187886993700,21.19699365234375,0.6677398681640625,0.7254791259765625,0.7936248779296875
1772790187907028500,21.217028564453123,0.6452789306640625,0.661468505859375,0.7241668701171875
1772790187927064600,21.237064697265627,0.5889434814453125,0.6149444580078125,0.6913299560546875
1772790187947099400,21.257099365234374,0.495452880859375,0.5974273681640625,0.7074432373046875
1772790187967134500,21.277134521484374,0.4146270751953125,0.6339263916015625,0.7568206787109375
1772790187987170600,21.297170654296874,0.3621826171875,0.78118896484375,0.83209228515625
1772790188007205400,21.317205322265625,0.2972259521484375,0.9448394775390625,0.8919219970703125
1772790188027241500,21.337241455078125,0.252655029296875,1.0536651611328125,0.920501708984375
1772790188047276500,21.357276611328125,0.2112579345703125,1.0801544189453125,0.909149169921875
1772790188067312400,21.3773125,0.1761932373046875,1.023345947265625,0.884490966796875
1772790188087347500,21.397347412109376,0.1262969970703125,0.934326171875,0.862945556640625
1772790188107383600,21.417383544921876,0.0664520263671875,0.84942626953125,0.8216400146484375
1772790188127418600,21.437418701171875,0.049896240234375,0.7915191650390625,0.7933807373046875
1772790188147453400,21.457453369140627,0.071746826171875,0.75775146484375,0.7730712890625
1772790188167489500,21.477489501953126,0.1168060302734375,0.75146484375,0.7249298095703125
1772790188187524600,21.497524658203126,0.133392333984375,0.7663116455078125,0.719329833984375
1772790188207560400,21.517560546875,0.1563873291015625,0.75531005859375,0.762939453125
1772790188227592400,21.537592529296877,0.162200927734375,0.7694854736328125,0.952117919921875
1772790188247627500,21.55762744140625,0.150299072265625,0.7332763671875,1.066497802734375
1772790188267662600,21.57766259765625,0.1556854248046875,0.7544403076171875,1.1135711669921875
1772790188287698400,21.597698486328124,0.0986175537109375,0.79425048828125,1.142578125
1772790188307733500,21.6177333984375,-0.0109710693359375,0.81671142578125,1.166717529296875
1772790188327769600,21.63776953125,-0.1115875244140625,0.8655548095703125,1.206268310546875
1772790188347804700,21.6578046875,-0.16693115234375,0.8800811767578125,1.1775360107421875
1772790188367840500,21.677840576171874,-0.173553466796875,0.8523712158203125,1.095489501953125
1772790188387875600,21.69787548828125,-0.2226409912109375,0.8067169189453125,1.073883056640625
1772790188407910700,21.71791064453125,-0.2942657470703125,0.785675048828125,1.060302734375
1772790188427946500,21.737946533203125,-0.3294830322265625,0.74212646484375,1.0269775390625
1772790188447981600,21.757981689453125,-0.3446502685546875,0.6909027099609375,0.9825897216796875
1772790188468017700,21.778017578125,-0.3674774169921875,0.618194580078125,0.9150848388671875
1772790188488052500,21.798052490234376,-0.473968505859375,0.53692626953125,0.85113525390625
1772790188508088600,21.818088623046876,-0.5583953857421875,0.4397125244140625,0.7913360595703125
1772790188528123600,21.83812353515625,-0.56390380859375,0.3518829345703125,0.74383544921875
1772790188548159500,21.858159423828123,-0.58282470703125,0.2700042724609375,0.6371917724609375
1772790188568194600,21.878194580078127,-0.5490264892578125,0.1826934814453125,0.4620819091796875
1772790188588229600,21.898229736328126,-0.4917449951171875,0.08721923828125,0.3039398193359375
1772790188608265500,21.918265380859374,-0.530303955078125,-0.01763916015625,0.2782135009765625
1772790188628300500,21.938300537109374,-0.588287353515625,-0.0987548828125,0.281829833984375
1772790188648339500,21.95833935546875,-0.6060638427734375,-0.1249847412109375,0.24127197265625
1772790188668375600,21.97837548828125,-0.6205596923828125,-0.1986083984375,0.1823272705078125
1772790188688410600,21.99841064453125,-0.7274322509765625,-0.256378173828125,0.125579833984375
1772790188708446500,22.018446533203125,-0.751068115234375,-0.226593017578125,0.0982818603515625
1772790188728481500,22.0384814453125,-0.807403564453125,-0.2585296630859375,0.078857421875
1772790188748517600,22.058517578125,-0.869598388671875,-0.275604248046875,0.0949249267578125
1772790188768552200,22.07855224609375,-0.9203033447265625,-0.25628662109375,0.107757568359375
1772790188788588500,22.098588623046876,-0.9518585205078125,-0.2752532958984375,0.0779571533203125
1772790188808623400,22.118623291015624,-0.9979400634765625,-0.272247314453125,0.0369720458984375
1772790188828658400,22.138658447265627,-1.0726470947265625,-0.260833740234375,0.0664520263671875
1772790188848694300,22.1586943359375,-1.15911865234375,-0.29010009765625,0.0693359375
1772790188868729300,22.178729248046874,-1.167755126953125,-0.2361297607421875,0.127655029296875
1772790188888765400,22.198765380859374,-1.1066436767578125,-0.2027435302734375,0.132659912109375
1772790188908800300,22.21880029296875,-0.973724365234375,-0.2030792236328125,0.15167236328125
1772790188928836400,22.23883642578125,-0.792510986328125,-0.2454681396484375,0.11785888671875
1772790188948871400,22.258871337890625,-0.676116943359375,-0.3002777099609375,0.124114990234375
1772790188968907300,22.2789072265625,-0.79779052734375,-0.3330535888671875,0.2058258056640625
1772790188988942300,22.2989423828125,-0.911102294921875,-0.3268585205078125,0.2480010986328125
1772790189008977400,22.318977294921876,-0.9038543701171875,-0.33233642578125,0.2750396728515625
1772790189029013500,22.339013427734375,-0.8861236572265625,-0.34014892578125,0.253753662109375
1772790189049048300,22.35904833984375,-0.8696441650390625,-0.31396484375,0.2164459228515625
1772790189069084400,22.37908447265625,-0.87713623046875,-0.297149658203125,0.1905670166015625
1772790189089119500,22.399119384765626,-0.87359619140625,-0.274200439453125,0.1678619384765625
1772790189109155300,22.4191552734375,-0.8647918701171875,-0.29931640625,0.21014404296875
1772790189129190400,22.4391904296875,-0.7688446044921875,-0.3601531982421875,0.198028564453125
1772790189149225500,22.4592255859375,-0.68621826171875,-0.4089813232421875,0.1708831787109375
1772790189169261600,22.479261474609373,-0.67547607421875,-0.4373321533203125,0.1392974853515625
1772790189189296400,22.49929638671875,-0.713897705078125,-0.4307861328125,0.1096954345703125
1772790189209332500,22.51933251953125,-0.7336578369140625,-0.4086456298828125,0.0738677978515625
1772790189229367600,22.539367431640624,-0.760284423828125,-0.3948974609375,0.056304931640625
1772790189249403400,22.5594033203125,-0.7425384521484375,-0.4213714599609375,0.0475616455078125
1772790189269438500,22.5794384765625,-0.7056121826171875,-0.4589996337890625,0.0439605712890625
1772790189289474600,22.599474609375,-0.7341766357421875,-0.4674530029296875,0.0237579345703125
1772790189309509600,22.619509521484375,-0.76824951171875,-0.471038818359375,0.018524169921875
1772790189329544200,22.639544189453126,-0.7874755859375,-0.47052001953125,0.0238037109375
1772790189349580500,22.65958056640625,-0.8343963623046875,-0.4841766357421875,0.04608154296875
1772790189369615400,22.679615478515625,-0.85400390625,-0.4954071044921875,0.0564117431640625
1772790189389651500,22.6996513671875,-0.8250274658203125,-0.5327911376953125,0.04937744140625
1772790189409686300,22.719686279296877,-0.816802978515625,-0.5391387939453125,0.0311737060546875
1772790189429722400,22.739722412109376,-0.8758392333984375,-0.5088653564453125,-0.0017242431640625
1772790189449757400,22.75975732421875,-0.9119415283203125,-0.453277587890625,-0.033538818359375
1772790189469792300,22.779792236328124,-0.8881378173828125,-0.3964080810546875,0.014739990234375
1772790189489828400,22.799828369140624,-0.7932586669921875,-0.4003448486328125,0.062530517578125
1772790189509863400,22.819863525390623,-0.7924041748046875,-0.4794464111328125,0.057342529296875
1772790189529899300,22.839899169921875,-0.8051910400390625,-0.3900604248046875,0.073333740234375
1772790189549934300,22.859934326171874,-1.0088348388671875,-0.30322265625,0.2530364990234375
1772790189569970400,22.879970458984374,-1.275787353515625,-0.2502288818359375,-0.0819854736328125
1772790189590005500,22.900005615234374,-1.369293212890625,-0.3497314453125,0.0445556640625
1772790189610041300,22.920041259765625,-1.3233489990234375,-0.2867889404296875,0.0256500244140625
1772790189630076400,22.940076416015625,-1.23126220703125,-0.3029327392578125,0.005218505859375
1772790189650111500,22.960111572265625,-1.0923614501953125,-0.2839202880859375,0.0388946533203125
1772790189670147300,22.980147216796876,-0.9854583740234375,-0.279144287109375,0.0807342529296875
1772790189690182400,23.000182373046876,-0.9481048583984375,-0.2883758544921875,0.0804595947265625
1772790189710218500,23.020218505859376,-0.926177978515625,-0.242218017578125,0.091217041015625
1772790189730253600,23.040253662109375,-0.8545379638671875,-0.23651123046875,0.07275390625
1772790189750289400,23.060289306640627,-0.8369140625,-0.3360137939453125,-0.0604248046875
1772790189770324500,23.080324462890626,-0.716766357421875,-0.36737060546875,-0.12774658203125
1772790189790359300,23.100359375,-0.578643798828125,-0.240570068359375,0.0630340576171875
1772790189810395400,23.1203955078125,-0.9191131591796875,-0.244415283203125,-0.0109405517578125
1772790189830430200,23.14043017578125,-1.1123046875,-0.2136077880859375,0.0702056884765625
1772790189850466600,23.160466552734373,-1.083160400390625,-0.19927978515625,0.09014892578125
1772790189870501400,23.18050146484375,-0.9740142822265625,-0.2245635986328125,0.0541534423828125
1772790189890537200,23.200537109375,-0.8592987060546875,-0.2717742919921875,0.010528564453125
1772790189910572300,23.220572265625,-0.860382080078125,-0.2521514892578125,0.0617218017578125
1772790189930607400,23.240607421875,-0.889129638671875,-0.2297821044921875,0.1392059326171875
1772790189950643200,23.260643310546875,-0.8797149658203125,-0.22991943359375,0.1630096435546875
1772790189970678300,23.28067822265625,-0.871490478515625,-0.2882537841796875,0.180084228515625
1772790189990714400,23.30071435546875,-0.820037841796875,-0.3198089599609375,0.2269134521484375
1772790190010749400,23.32074951171875,-0.7662200927734375,-0.2855987548828125,0.255645751953125
1772790190030785300,23.340785400390626,-0.8244781494140625,-0.2950592041015625,0.246490478515625
1772790190050820400,23.3608203125,-0.855682373046875,-0.2452545166015625,0.3223419189453125
1772790190070855400,23.38085546875,-0.9611663818359375,-0.2388458251953125,0.3166046142578125
1772790190090891300,23.400891357421877,-0.9954376220703125,-0.1878204345703125,0.4116668701171875
1772790190110926300,23.42092626953125,-0.982635498046875,-0.1580352783203125,0.4704742431640625
1772790190130962400,23.44096240234375,-0.9440765380859375,-0.20849609375,0.525634765625
1772790190150997500,23.46099755859375,-0.9051971435546875,-0.18896484375,0.5673370361328125
1772790190171033300,23.481033447265624,-0.84375,-0.1115875244140625,0.578887939453125
1772790190191068400,23.501068359375,-0.7227783203125,-0.072540283203125,0.5717620849609375
1772790190211103500,23.521103515625,-0.559539794921875,0.00091552734375,0.5469512939453125
1772790190231139300,23.541139404296874,-0.361328125,-0.0232391357421875,0.494537353515625
1772790190251174400,23.56117431640625,-0.206878662109375,-0.0047760009765625,0.5151214599609375
1772790190271210500,23.58121044921875,-0.1171875,0.0501556396484375,0.549652099609375
1772790190291245600,23.60124560546875,-0.0502471923828125,0.1368255615234375,0.58929443359375
1772790190311281400,23.621281494140625,-0.0142669677734375,0.2142333984375,0.56085205078125
1772790190331316500,23.64131640625,0.0356903076171875,0.2932586669921875,0.55047607421875
1772790190351351300,23.661351318359376,0.0969390869140625,0.38299560546875,0.5131072998046875
1772790190371387400,23.681387451171876,0.1898651123046875,0.51953125,0.4900665283203125
1772790190391422200,23.701422119140624,0.273956298828125,0.7372589111328125,0.4978179931640625
1772790190411458600,23.72145849609375,0.40753173828125,0.9351959228515625,0.589508056640625
1772790190431493400,23.741493408203127,0.474395751953125,1.1686248779296875,0.8115386962890625
1772790190451528200,23.761528076171874,0.52801513671875,1.3632965087890625,1.0855865478515625
1772790190471564300,23.781564208984374,0.5860595703125,1.49755859375,1.326019287109375
1772790190491599400,23.801599365234374,0.4429931640625,1.56024169921875,1.4824981689453125
1772790190511635200,23.82163525390625,0.311859130859375,1.515380859375,1.5044708251953125
1772790190531670300,23.841670166015625,0.17425537109375,1.367462158203125,1.4962310791015625
1772790190551706400,23.861706298828125,0.0646514892578125,1.1517333984375,1.4588165283203125
1772790190571741400,23.881741455078124,-0.0045928955078125,0.9629058837890625,1.3941192626953125
1772790190591776300,23.9017763671875,-0.0601806640625,0.799835205078125,1.3097076416015625
1772790190611812000,23.92181201171875,-0.084747314453125,0.6974029541015625,1.19140625
1772790190631847200,23.94184716796875,-0.03326416015625,0.695892333984375,1.083343505859375
1772790190651883000,23.961883056640627,-0.0043182373046875,0.679718017578125,0.9317779541015625
1772790190671918000,23.98191796875,0.04638671875,0.7063140869140625,0.8152008056640625
1772790190691953000,24.001952880859374,0.108428955078125,0.6937255859375,0.7342071533203125
1772790190711989000,24.021989013671874,0.14599609375,0.6912841796875,0.678558349609375
1772790190732024000,24.042024169921874,0.1721649169921875,0.6667633056640625,0.6324920654296875
1772790190752060000,24.062059814453125,0.1762237548828125,0.657989501953125,0.6574249267578125
1772790190772095000,24.082094970703125,0.1834564208984375,0.6970672607421875,0.7164459228515625
1772790190792131000,24.102131103515624,0.1118621826171875,0.793365478515625,0.6537322998046875
1772790190812166000,24.122165771484376,0.02850341796875,0.7178802490234375,0.616241455078125
1772790190832201000,24.142200927734375,0.0581512451171875,0.71588134765625,0.685638427734375
1772790190852237000,24.162237060546875,0.0394439697265625,0.709136962890625,0.81622314453125
1772790190872272100,24.182272216796875,0.073455810546875,0.54058837890625,0.8251495361328125
1772790190892308000,24.202307861328126,0.1170654296875,0.61474609375,1.0374908447265625
1772790190912343000,24.222343017578126,0.1693572998046875,0.549713134765625,1.076995849609375
1772790190932379000,24.24237890625,0.2222137451171875,0.4884490966796875,1.198486328125
1772790190952414000,24.2624140625,0.38275146484375,0.458770751953125,1.1995391845703125
1772790190972449000,24.282448974609373,0.4763641357421875,0.3829803466796875,1.25958251953125
1772790190992485000,24.302485107421877,0.6780548095703125,0.469329833984375,1.41412353515625
1772790191012520200,24.322520263671876,0.7928009033203125,0.5576629638671875,1.323394775390625
1772790191032556000,24.34255615234375,0.605010986328125,0.3506622314453125,1.187835693359375
1772790191052591000,24.362591064453124,0.579071044921875,0.311553955078125,1.0296478271484375
1772790191072626200,24.382626220703123,0.862152099609375,0.3650665283203125,0.95849609375
1772790191092662000,24.402662109375,0.8452301025390625,0.3543243408203125,0.83782958984375
1772790191112697000,24.422697021484375,0.876495361328125,0.3325347900390625,0.779754638671875
1772790191132733200,24.442733154296874,0.9564971923828125,0.4502105712890625,0.710235595703125
1772790191152768300,24.462768310546874,1.058441162109375,0.5466461181640625,0.6832275390625
1772790191172802800,24.482802734375,1.23333740234375,0.86578369140625,0.4869842529296875
1772790191192839200,24.502839111328125,1.0234375,0.9184112548828125,0.2021636962890625
1772790191212874000,24.5228740234375,0.8494720458984375,0.8950653076171875,0.2801971435546875
1772790191232910000,24.54291015625,0.765106201171875,0.8208465576171875,0.333404541015625
1772790191252945000,24.56294482421875,0.6824188232421875,0.6593475341796875,0.3499755859375
1772790191272981000,24.58298095703125,0.5992584228515625,0.6033935546875,0.377838134765625
1772790191293016000,24.60301611328125,0.564788818359375,0.634979248046875,0.466339111328125
1772790191313051000,24.62305078125,0.423431396484375,0.65533447265625,0.61541748046875
1772790191333087000,24.6430869140625,0.461181640625,0.7623291015625,0.754150390625
1772790191353122000,24.6631220703125,0.4813385009765625,0.753448486328125,0.9002227783203125
1772790191373158000,24.683157958984374,0.5784759521484375,0.684967041015625,0.953643798828125
1772790191393193000,24.70319287109375,0.5687408447265625,0.644073486328125,0.950103759765625
1772790191413228000,24.72322802734375,0.4597320556640625,0.62982177734375,0.92572021484375
1772790191433264000,24.74326416015625,0.35650634765625,0.6449432373046875,0.90631103515625
1772790191453299000,24.763298828125,0.2667388916015625,0.6500091552734375,0.890594482421875
1772790191473335000,24.7833349609375,0.2115631103515625,0.64794921875,0.8519744873046875
1772790191493370000,24.8033701171875,0.215087890625,0.6344146728515625,0.7977447509765625
1772790191513405200,24.8234052734375,0.2572479248046875,0.621795654296875,0.724822998046875
1772790191533441000,24.84344091796875,0.300872802734375,0.6201629638671875,0.6690673828125
1772790191553476000,24.86347607421875,0.3122711181640625,0.620697021484375,0.598236083984375
1772790191573512200,24.88351220703125,0.3087921142578125,0.625030517578125,0.53619384765625
1772790191593547000,24.903547119140626,0.3087005615234375,0.634002685546875,0.4840545654296875
1772790191613582000,24.92358203125,0.3642578125,0.7020111083984375,0.398040771484375
1772790191633618200,24.9436181640625,0.469696044921875,0.7054901123046875,0.27142333984375
1772790191653653200,24.9636533203125,0.459136962890625,0.5505828857421875,0.1631317138671875
1772790191673689000,24.983689208984377,0.4661712646484375,0.5750274658203125,0.288299560546875
1772790191693724200,25.00372412109375,0.4992828369140625,0.630706787109375,0.2207794189453125
1772790191713760300,25.02376025390625,0.49237060546875,0.7327117919921875,0.1788330078125
1772790191733795000,25.043795166015624,0.4605560302734375,0.760955810546875,0.1728057861328125
1772790191753830100,25.063830078125,0.3273773193359375,0.823760986328125,0.27325439453125
1772790191773866200,25.0838662109375,0.6837158203125,0.937835693359375,0.4630889892578125
1772790191793901300,25.1039013671875,0.7075958251953125,1.047088623046875,0.5381011962890625
1772790191813937200,25.123937255859374,0.6796112060546875,1.2400970458984375,0.6478729248046875
1772790191833972200,25.14397216796875,0.585235595703125,1.3301849365234375,0.619049072265625
1772790191854007300,25.16400732421875,0.538970947265625,1.3530120849609375,0.663818359375
1772790191874043100,25.184043212890625,0.490325927734375,1.2667236328125,0.785125732421875
1772790191894078000,25.204077880859376,0.4324798583984375,1.3016815185546875,0.9609832763671875
1772790191914114300,25.2241142578125,0.269439697265625,1.1495361328125,0.9104461669921875
1772790191934149000,25.244149169921876,0.1984710693359375,0.979278564453125,0.954803466796875
1772790191954184000,25.264183837890624,0.1265869140625,0.8441925048828125,0.989227294921875
1772790191974220000,25.284219970703123,0.1136932373046875,0.693695068359375,0.9851837158203125
1772790191994255000,25.304255126953127,0.1403045654296875,0.5863800048828125,0.9871063232421875
1772790192014291000,25.324291015625,0.18902587890625,0.5366363525390625,0.955047607421875
1772790192034326000,25.344325927734374,0.2303924560546875,0.5213775634765625,0.9390106201171875
1772790192054361000,25.364361083984374,0.2448883056640625,0.5445709228515625,0.9130096435546875
1772790192074397200,25.384397216796874,0.22344970703125,0.618408203125,0.8814849853515625
1772790192094432000,25.404431884765625,0.18316650390625,0.726409912109375,0.8528289794921875
1772790192114468000,25.424468017578125,0.0990447998046875,0.8761138916015625,0.7515869140625
1772790192134503200,25.444503173828124,0.049835205078125,0.893280029296875,0.6754150390625
1772790192154538200,25.464538330078124,0.0274810791015625,0.876800537109375,0.622406005859375
1772790192174574000,25.484573974609376,-0.006072998046875,0.8133087158203125,0.5721435546875
1772790192194609200,25.504609130859375,-0.010467529296875,0.7742919921875,0.5528106689453125
1772790192214645200,25.524645263671875,-0.1079254150390625,0.8053436279296875,0.4376678466796875
1772790192234680000,25.54468017578125,-0.11859130859375,0.722320556640625,0.3530731201171875
1772790192254715100,25.564715087890626,-0.0306396484375,0.6589508056640625,0.412994384765625
1772790192274751200,25.584751220703126,0.072418212890625,0.6204833984375,0.51007080078125
1772790192294786300,25.604786376953125,0.1762237548828125,0.5341644287109375,0.6103515625
1772790192314822100,25.624822265625,0.291046142578125,0.4802703857421875,0.5953369140625
1772790192334857200,25.644857177734377,0.4145660400390625,0.51019287109375,0.5834808349609375
1772790192354892000,25.66489208984375,0.5341796875,0.6539764404296875,0.61761474609375
1772790192374928100,25.68492822265625,0.554443359375,0.7613983154296875,0.6563568115234375
1772790192394963000,25.704962890625,0.580047607421875,0.871490478515625,0.69476318359375
1772790192414999300,25.724999267578124,0.6215972900390625,0.9150390625,0.7316741943359375
1772790192435034000,25.7450341796875,0.688629150390625,0.8545989990234375,0.716949462890625
1772790192455069200,25.765069091796875,0.71661376953125,0.719451904296875,0.6693115234375
1772790192475105000,25.78510498046875,0.7149505615234375,0.6145477294921875,0.6873931884765625
1772790192495140000,25.80514013671875,0.6644287109375,0.6044921875,0.720977783203125
1772790192515175200,25.825175048828125,0.60308837890625,0.70684814453125,0.7694091796875
1772790192535211000,25.8452109375,0.486083984375,0.7704620361328125,0.7823944091796875
1772790192555246000,25.86524609375,0.368743896484375,0.85833740234375,0.808807373046875
1772790192575282200,25.8852822265625,0.25146484375,0.8560791015625,0.84625244140625
1772790192595317200,25.905317138671876,0.1478424072265625,0.8181304931640625,0.859222412109375
1772790192615352600,25.9253525390625,0.0793609619140625,0.742095947265625,0.8403472900390625
1772790192635388700,25.945388671875,0.0698699951171875,0.687835693359375,0.8182830810546875
1772790192655423700,25.965423828125,0.0668487548828125,0.667388916015625,0.799713134765625
1772790192675459600,25.98545947265625,0.0750274658203125,0.6771392822265625,0.765869140625
1772790192695494700,26.00549462890625,0.0644073486328125,0.655548095703125,0.7404327392578125
1772790192715529700,26.02552978515625,0.0823822021484375,0.66455078125,0.7423095703125
1772790192735565600,26.045565673828126,0.1186981201171875,0.691925048828125,0.71490478515625
1772790192755600600,26.0656005859375,0.1350860595703125,0.69476318359375,0.7034454345703125
1772790192775636700,26.08563671875,0.1766204833984375,0.70867919921875,0.699798583984375
1772790192795671800,26.105671875,0.1892242431640625,0.71942138671875,0.6829833984375
1772790192815706600,26.12570654296875,0.186431884765625,0.7284088134765625,0.6690216064453125
1772790192835742700,26.14574267578125,0.178375244140625,0.760772705078125,0.6616668701171875
1772790192855777800,26.16577783203125,0.1512908935546875,0.7823333740234375,0.6616058349609375
1772790192875813600,26.185813720703123,0.124420166015625,0.7861480712890625,0.671234130859375
1772790192895848700,26.2058486328125,0.098297119140625,0.7890625,0.6862335205078125
1772790192915883800,26.2258837890625,0.0697021484375,0.7722015380859375,0.6901397705078125
