time,seconds_elapsed,z,y,x
1772790166753280300,0.0632802734375,1.1360517740249634,1.2966934442520142,-0.6008978486061096
1772790166773315000,0.083315185546875,1.118155598640442,1.4689804315567017,-0.7168603539466858
1772790166793351200,0.10335107421875,1.041926383972168,0.9414173364639282,-0.5509086847305298
1772790166813386200,0.12338623046875,1.084222435951233,0.6015247106552124,-0.47279950976371765
1772790166833422000,0.143422119140625,1.064951777458191,0.2795371115207672,-0.29304999113082886
1772790166853457200,0.16345703125,1.1776440143585205,0.20211288332939148,-0.1630597561597824
1772790166873493200,0.1834931640625,0.9255222678184509,0.5388331413269043,-0.283849835395813
1772790166893529000,0.203529052734375,0.37922242283821106,0.9883536696434021,-0.608953058719635
1772790166913564200,0.223564208984375,0.20680564641952515,0.6276907920837402,-0.7010670304298401
1772790166933600300,0.243600341796875,0.1967594027519226,0.21557515859603882,-0.4939873516559601
1772790166953635300,0.26363525390625,0.3125070333480835,-0.11892478913068771,-0.41407814621925354
1772790166973671200,0.283671142578125,0.39528340101242065,-0.30302324891090393,-0.55881267786026
1772790166993706200,0.303706298828125,0.3714616894721985,-0.37508732080459595,-0.6817034482955933
1772790167013742300,0.323742431640625,0.2739468514919281,-0.2645166218280792,-0.7275583148002625
1772790167033778200,0.343778076171875,0.2746235728263855,-0.17977482080459595,-0.7379446029663086
1772790167053813200,0.363813232421875,0.46328508853912354,-0.2174692004919052,-0.9041338562965393
1772790167073849000,0.38384912109375,0.883527398109436,-0.45342233777046204,-0.7571588158607483
1772790167093884200,0.40388427734375,0.9481412768363953,-0.49711522459983826,-0.026188993826508522
1772790167113920300,0.423920166015625,0.5829060077667236,-0.42135894298553467,0.842888355255127
1772790167133955300,0.443955322265625,0.315266877412796,-0.08340274542570114,1.3670024871826172
1772790167153991200,0.4639912109375,0.7100786566734314,0.4813799560070038,1.2008228302001953
1772790167174027300,0.48402734375,1.1940597295761108,0.5283868908882141,0.5690751671791077
1772790167194062300,0.504062255859375,1.2366955280303955,0.48330727219581604,0.04031253606081009
1772790167214098200,0.52409814453125,1.1940789222717285,0.5781147480010986,-0.011453723534941673
1772790167234133200,0.54413330078125,1.1462594270706177,1.0007562637329102,0.22482512891292572
1772790167254169300,0.56416943359375,1.3188692331314087,1.530882477760315,0.4218441843986511
1772790167274204200,0.5842041015625,1.5970371961593628,1.9100267887115479,0.5965659022331238
1772790167294240300,0.604240234375,1.7459076642990112,2.629887104034424,0.5253751277923584
1772790167314275300,0.624275390625,1.475083589553833,3.0559792518615723,0.25418540835380554
1772790167334311200,0.644311279296875,1.035281777381897,3.0546164512634277,-0.2121913582086563
1772790167354347300,0.66434716796875,0.33205118775367737,3.429398775100708,-0.8568300008773804
1772790167374382300,0.68438232421875,-0.5186231732368469,3.9882972240448,-1.3287583589553833
1772790167394418200,0.704418212890625,-0.6573206186294556,3.882946014404297,-1.6132804155349731
1772790167414453200,0.724453369140625,-0.5916182994842529,4.119789123535156,-1.7541906833648682
1772790167434489300,0.7444892578125,-0.9548641443252563,4.737096786499023,-1.6080957651138306
1772790167454524200,0.764524169921875,-1.5868862867355347,4.7975006103515625,-1.3478857278823853
1772790167474560300,0.784560302734375,-2.1604976654052734,4.970205307006836,-1.1556992530822754
1772790167494596400,0.804596435546875,-2.743330717086792,5.40294075012207,-1.0484665632247925
1772790167514631200,0.824631103515625,-3.1287944316864014,5.723053455352783,-1.1563013792037964
1772790167534667300,0.844667236328125,-3.109454870223999,6.6439528465271,-1.566759467124939
1772790167554702300,0.864702392578125,-3.230154514312744,8.047017097473145,-1.7946557998657227
1772790167574738200,0.88473828125,-3.8145081996917725,8.694013595581055,-1.3049018383026123
1772790167594773200,0.904773193359375,-4.764285087585449,8.638495445251465,-0.6960917115211487
1772790167614809300,0.924809326171875,-5.84377384185791,8.350959777832031,-0.34854066371917725
1772790167634844400,0.944844482421875,-6.663223743438721,8.329557418823242,-0.17382505536079407
1772790167654880300,0.96488037109375,-7.1758832931518555,8.324214935302734,0.7797871232032776
1772790167674916400,0.984916259765625,-7.582554340362549,7.826387882232666,2.988847494125366
1772790167694951200,1.004951171875,-7.6332292556762695,6.163261890411377,5.548460483551025
1772790167714987300,1.0249873046875,-7.2835259437561035,3.5502121448516846,7.015712261199951
1772790167735022300,1.045022216796875,-6.661242485046387,0.24448084831237793,7.1046295166015625
1772790167755058200,1.06505810546875,-5.948439598083496,-2.730923891067505,6.216670036315918
1772790167775093200,1.08509326171875,-5.4446024894714355,-4.219050884246826,5.157329559326172
1772790167795129300,1.10512939453125,-4.678523063659668,-4.109103202819824,4.324283599853516
1772790167815164400,1.125164306640625,-2.677786350250244,-4.052735805511475,3.8080646991729736
1772790167835200300,1.1452001953125,-0.5307967662811279,-3.7401766777038574,3.2053310871124268
1772790167855235300,1.1652353515625,1.2204396724700928,-3.2840464115142822,1.9986310005187988
1772790167875271400,1.185271484375,2.6256802082061768,-3.043405055999756,0.17940251529216766
1772790167895306200,1.20530615234375,3.845837116241455,-2.7106611728668213,-1.8828260898590088
1772790167915342300,1.22534228515625,4.385653972625732,-2.618443727493286,-3.751420736312866
1772790167935378400,1.24537841796875,3.9672889709472656,-3.3274128437042236,-4.963385581970215
1772790167955413200,1.265413330078125,2.7317190170288086,-4.541988372802734,-5.468225955963135
1772790167975449300,1.285449462890625,1.031467080116272,-5.771694183349609,-5.452381610870361
1772790167995484400,1.305484375,-0.12976199388504028,-6.118832111358643,-5.375428676605225
1772790168015520300,1.325520263671875,-1.0304428339004517,-5.928341388702393,-5.1895527839660645
1772790168035555300,1.345555419921875,-1.6317355632781982,-5.411990165710449,-4.724647045135498
1772790168055591400,1.36559130859375,-1.7549391984939575,-4.7532196044921875,-4.210289001464844
1772790168075626200,1.385626220703125,-1.4993668794631958,-3.91560435295105,-3.769757032394409
1772790168095662300,1.405662353515625,-1.1194978952407837,-2.8450517654418945,-3.3676254749298096
1772790168115698400,1.425698486328125,-1.1302404403686523,-1.829293131828308,-2.672882318496704
1772790168135733200,1.445733154296875,-1.2535291910171509,-1.1173596382141113,-1.8448971509933472
1772790168155769300,1.465769287109375,-1.4372718334197998,-0.32028746604919434,-1.083989143371582
1772790168175804200,1.48580419921875,-1.6411865949630737,0.4709312915802002,-0.11082851141691208
1772790168195840300,1.50584033203125,-1.6286457777023315,0.9321625828742981,1.1338317394256592
1772790168215875000,1.525875,-1.170202612876892,0.9509420990943909,2.250155448913574
1772790168235911400,1.545911376953125,-0.452075332403183,0.7666559219360352,3.080962657928467
1772790168255946200,1.5659462890625,0.23342180252075195,0.7489698529243469,3.372523784637451
1772790168275982000,1.585982177734375,0.8024192452430725,0.9170352816581726,3.070582389831543
1772790168296017200,1.60601708984375,1.0765376091003418,1.2414463758468628,2.415653705596924
1772790168316053200,1.62605322265625,1.2200793027877808,1.1661452054977417,1.6855522394180298
1772790168336088000,1.646088134765625,1.4614458084106445,0.7029812932014465,1.00710129737854
1772790168356124200,1.666124267578125,1.7404683828353882,0.2040490061044693,0.2993217408657074
1772790168376160300,1.68616015625,1.9656038284301758,-0.025671808049082756,-0.1115475669503212
1772790168396195000,1.706195068359375,2.034078598022461,-0.2175815850496292,-0.16557884216308594
1772790168416231200,1.726231201171875,2.002809762954712,-0.018748654052615166,-0.16334818303585052
1772790168436266200,1.746266357421875,1.874587059020996,0.48024678230285645,-0.11354999989271164
1772790168456302000,1.766302001953125,1.7468395233154297,1.1595754623413086,0.13563133776187897
1772790168476337200,1.786337158203125,1.786348581314087,1.9215351343154907,0.5509300231933594
1772790168496373200,1.806373291015625,1.8462846279144287,2.812328338623047,1.077292561531067
1772790168516408300,1.826408203125,1.8032135963439941,3.6456851959228516,1.6323974132537842
1772790168536444200,1.846444091796875,1.647739291191101,4.291842460632324,2.0189826488494873
1772790168556479200,1.866479248046875,1.481637716293335,4.713134765625,2.1603500843048096
1772790168576515000,1.88651513671875,1.4156399965286255,4.854118347167969,2.053025007247925
1772790168596551400,1.906551513671875,1.5069206953048706,4.608343601226807,1.7285512685775757
1772790168616586500,1.92658642578125,1.6854432821273804,4.249114036560059,1.266535997390747
1772790168636622300,1.946622314453125,1.9678733348846436,3.682006359100342,0.7166009545326233
1772790168656657400,1.966657470703125,2.2215769290924072,2.9171411991119385,0.12330622225999832
1772790168676693500,1.986693603515625,2.4020259380340576,2.085663080215454,-0.48929858207702637
1772790168696728600,2.006728515625,2.5043349266052246,1.2100932598114014,-1.0724525451660156
1772790168716764400,2.026764404296875,2.528224229812622,0.3172759711742401,-1.5298891067504883
1772790168736799500,2.046799560546875,2.4894967079162598,-0.5443434715270996,-1.8153696060180664
1772790168756835600,2.066835693359375,2.385427713394165,-1.3762931823730469,-1.9876768589019775
1772790168776870400,2.086870361328125,2.3260974884033203,-2.177788734436035,-2.1025757789611816
1772790168796906500,2.106906494140625,2.3603334426879883,-2.9568448066711426,-2.0674426555633545
1772790168816941600,2.126941650390625,2.3374433517456055,-3.6259963512420654,-1.8046785593032837
1772790168836977400,2.146977294921875,2.212989330291748,-4.213004112243652,-1.3271090984344482
1772790168857013500,2.167013427734375,2.1280314922332764,-4.600378513336182,-0.8303866982460022
1772790168877048600,2.187048583984375,2.170728921890259,-4.662472724914551,-0.48183906078338623
1772790168897084400,2.20708447265625,2.350323438644409,-4.479030609130859,-0.1782621443271637
1772790168917119500,2.227119384765625,2.367227792739868,-4.20991325378418,0.21821515262126923
1772790168937155600,2.247155517578125,1.982857346534729,-3.7069408893585205,0.6667908430099487
1772790168957190400,2.2671904296875,1.07310152053833,-2.849205493927002,0.8534565567970276
1772790168977226500,2.2872265625,-0.11614498496055603,-2.0305047035217285,0.5881261229515076
1772790168997261600,2.307261474609375,-1.3858256340026855,-1.2643139362335205,0.24199852347373962
1772790169017297400,2.32729736328125,-2.576343536376953,-0.491791307926178,0.24454902112483978
1772790169037332500,2.34733251953125,-3.573824644088745,0.20740166306495667,0.5894443392753601
1772790169057368600,2.36736865234375,-4.4017333984375,0.938897430896759,1.0386322736740112
1772790169077404400,2.387404296875,-5.1236491203308105,1.3522783517837524,1.2727185487747192
1772790169097439500,2.407439453125,-5.642025470733643,1.4715410470962524,1.0887864828109741
1772790169117475600,2.4274755859375,-5.961893081665039,1.4919912815093994,0.5390525460243225
1772790169137510700,2.4475107421875,-6.0860772132873535,1.5575973987579346,-0.30292898416519165
1772790169157546500,2.46754638671875,-6.036667823791504,1.923875331878662,-1.3231295347213745
1772790169177581600,2.48758154296875,-5.664062976837158,2.395779609680176,-2.0493221282958984
1772790169197617400,2.507617431640625,-5.175627708435059,2.8354332447052,-2.016430139541626
1772790169217652500,2.527652587890625,-4.671202182769775,3.180856227874756,-1.349535584449768
1772790169237688600,2.5476884765625,-3.752744674682617,3.0889811515808105,-0.5628103613853455
1772790169257723600,2.5677236328125,-2.3419172763824463,2.3714730739593506,-0.11856233328580856
1772790169277759500,2.587759521484375,-0.8922159671783447,1.4880743026733398,-0.19690613448619843
1772790169297794600,2.607794677734375,0.4372929036617279,0.5838778018951416,-0.7217922806739807
1772790169317830700,2.62783056640625,1.5531094074249268,-0.26788124442100525,-1.4898303747177124
1772790169337866500,2.647866455078125,2.2204885482788086,-1.2576261758804321,-2.2239294052124023
1772790169357901600,2.667901611328125,2.481682538986206,-2.347724437713623,-2.7276225090026855
1772790169377937700,2.687937744140625,2.319545269012451,-3.369262218475342,-2.992550849914551
1772790169397972500,2.707972412109375,1.7536433935165405,-4.264571189880371,-3.04899001121521
1772790169418008600,2.728008544921875,0.976098358631134,-4.943569660186768,-2.9670562744140625
1772790169438043600,2.748043701171875,0.12757553160190582,-5.287736892700195,-2.856142520904541
1772790169458079500,2.76807958984375,-0.6273065209388733,-5.212308883666992,-2.748793601989746
1772790169478114600,2.788114501953125,-1.1600394248962402,-4.684046745300293,-2.615013360977173
1772790169498150700,2.808150634765625,-1.5019309520721436,-3.9014432430267334,-2.4011077880859375
1772790169518185700,2.828185791015625,-1.658716082572937,-3.0053794384002686,-2.094369411468506
1772790169538221600,2.8482216796875,-1.6917357444763184,-1.9071964025497437,-1.688996434211731
1772790169558256400,2.86825634765625,-1.7390021085739136,-0.7530825734138489,-1.189882516860962
1772790169578292700,2.888292724609375,-2.0644352436065674,0.2832476794719696,-0.5518029928207397
1772790169598327800,2.908327880859375,-2.4251341819763184,1.5386881828308105,0.056706156581640244
1772790169618363000,2.92836279296875,-2.741250991821289,3.02850079536438,-0.010460630059242249
1772790169638399000,2.94839892578125,-2.905766010284424,4.144847393035889,-0.7057152986526489
1772790169658433800,2.968433837890625,-2.389152765274048,4.189821243286133,-1.4358491897583008
1772790169678470000,2.988469970703125,-1.2163561582565308,2.8660991191864014,-1.9011331796646118
1772790169698505000,3.0085048828125,0.16446590423583984,-0.39808106422424316,-1.7542942762374878
1772790169718540800,3.028540771484375,1.154366374015808,-3.5191500186920166,-1.5556652545928955
1772790169738576000,3.048575927734375,1.3902531862258911,-3.113853693008423,-1.7099249362945557
1772790169758612000,3.068612060546875,1.4997493028640747,-1.0577104091644287,-1.7794944047927856
1772790169778647000,3.08864697265625,2.5010814666748047,0.537587583065033,-1.1924573183059692
1772790169798683000,3.108682861328125,3.660313606262207,1.8645821809768677,-0.32142624258995056
1772790169818718000,3.128718017578125,4.557478427886963,2.8062691688537598,0.5834887623786926
1772790169838754000,3.148754150390625,4.996018886566162,3.287978410720825,1.674496054649353
1772790169858788900,3.168788818359375,4.896646976470947,3.3571767807006836,2.7655153274536133
1772790169878825000,3.188824951171875,4.3960490226745605,3.2362775802612305,3.6401526927948
1772790169898861000,3.208861083984375,3.5007259845733643,3.015388250350952,4.4235429763793945
1772790169918895900,3.228895751953125,2.30930233001709,2.435986280441284,5.067845344543457
1772790169938932000,3.248931884765625,1.2434579133987427,1.4963064193725586,5.305968284606934
1772790169958967000,3.268967041015625,0.5691356062889099,0.6332818865776062,4.976089954376221
1772790169979003000,3.2890029296875,0.2414693534374237,0.1500089317560196,4.198220729827881
1772790169999038000,3.309037841796875,0.23851004242897034,0.2185901254415512,3.2492763996124268
1772790170019074000,3.329073974609375,0.42143377661705017,0.7045725584030151,2.3170721530914307
1772790170039108900,3.34910888671875,0.5291389226913452,1.3269761800765991,1.532459020614624
1772790170059145000,3.36914501953125,0.5699324607849121,1.8861843347549438,0.9465710520744324
1772790170079179800,3.3891796875,0.616559624671936,2.38987398147583,0.4140094220638275
1772790170099216000,3.4092158203125,0.6799425482749939,2.7044942378997803,-0.15717098116874695
1772790170119250700,3.429250732421875,0.7756850719451904,2.8984532356262207,-0.7016787528991699
1772790170139287000,3.449287109375,0.8627198338508606,2.8745152950286865,-1.2554346323013306
1772790170159323000,3.469322998046875,0.9696289896965027,2.522676467895508,-1.743219256401062
1772790170179357700,3.489357666015625,1.1008679866790771,1.7637442350387573,-2.150376081466675
1772790170199394000,3.50939404296875,1.2297838926315308,0.7575675845146179,-2.438314437866211
1772790170219428900,3.529428955078125,1.3375215530395508,-0.42860540747642517,-2.5813217163085938
1772790170239464700,3.549464599609375,1.4721366167068481,-1.8178279399871826,-2.5455687046051025
1772790170259499800,3.569499755859375,1.6507772207260132,-3.04915452003479,-2.4320883750915527
1772790170279535900,3.589535888671875,1.816835880279541,-3.846543073654175,-2.346034526824951
1772790170299570700,3.60957080078125,1.977561116218567,-3.9170031547546387,-1.9590073823928833
1772790170319606800,3.629606689453125,1.6875442266464233,-3.178853750228882,-0.886077880859375
1772790170339641900,3.649641845703125,0.9346044063568115,-1.7883400917053223,0.5821728706359863
1772790170359677700,3.669677734375,0.269429087638855,-0.5974197387695312,1.8337293863296509
1772790170379712800,3.689712646484375,0.02142086997628212,0.18499541282653809,2.491854190826416
1772790170399748900,3.709748779296875,0.13139423727989197,0.2933945953845978,2.658092975616455
1772790170419784700,3.72978466796875,0.23984241485595703,-0.02792004868388176,2.4876112937927246
1772790170439819800,3.74981982421875,0.24857598543167114,-0.5116353034973145,2.0675575733184814
1772790170459856000,3.76985595703125,0.017254088073968887,-1.125315546989441,1.5053269863128662
1772790170479891000,3.789890869140625,-0.5721263885498047,-1.5220139026641846,0.9158046245574951
1772790170499926800,3.8099267578125,-1.1835743188858032,-1.704465389251709,0.2616947293281555
1772790170519961900,3.8299619140625,-1.5751218795776367,-1.7097139358520508,-0.35914191603660583
1772790170539997700,3.849997802734375,-1.8435269594192505,-1.4393203258514404,-0.8017933964729309
1772790170560032800,3.87003271484375,-2.0206210613250732,-1.0055028200149536,-1.0355144739151
1772790170580068900,3.89006884765625,-2.0195510387420654,-0.5659611225128174,-1.0898007154464722
1772790170600104400,3.9101044921875,-1.9407954216003418,-0.1880769580602646,-0.9244543313980103
1772790170620140500,3.930140625,-1.8530908823013306,0.016263658180832863,-0.5900688767433167
1772790170640175600,3.950175537109375,-1.786501407623291,0.09649112075567245,-0.16893655061721802
1772790170660211500,3.97021142578125,-1.6554478406906128,0.2270914763212204,0.21373172104358673
1772790170680247600,3.99024755859375,-1.4773122072219849,0.2823243737220764,0.4332166910171509
1772790170700282600,4.01028271484375,-1.3214831352233887,0.35156574845314026,0.5106347799301147
1772790170720318500,4.030318359375,-1.1853482723236084,0.3475169539451599,0.44806885719299316
1772790170740353500,4.050353515625,-1.0324345827102661,0.24343262612819672,0.2883146107196808
1772790170760389600,4.0703896484375,-0.8769406080245972,0.04174531623721123,0.06571616232395172
1772790170780424700,4.0904248046875,-0.7687680721282959,-0.29349473118782043,-0.23807461559772491
1772790170800460500,4.11046044921875,-0.6830115914344788,-0.6644808053970337,-0.5892406105995178
1772790170820495600,4.13049560546875,-0.6470367908477783,-0.9980108141899109,-0.9383118152618408
1772790170840531700,4.15053173828125,-0.7407763600349426,-1.2389363050460815,-1.1916186809539795
1772790170860566500,4.17056640625,-0.9012280702590942,-1.450103998184204,-1.2895630598068237
1772790170880602600,4.1906025390625,-1.1285525560379028,-1.6541495323181152,-1.2834370136260986
1772790170900637700,4.2106376953125,-1.3311363458633423,-1.633995532989502,-1.2183191776275635
1772790170920673500,4.230673583984375,-1.351410984992981,-1.334667682647705,-1.30778968334198
1772790170940708600,4.25070849609375,-1.2707630395889282,-0.7428197860717773,-1.561283826828003
1772790170960744700,4.27074462890625,-1.3181813955307007,0.13584811985492706,-1.484788179397583
1772790170980780500,4.290780517578125,-1.4257352352142334,0.7624949812889099,-0.8879868388175964
1772790171000815600,4.310815673828125,-1.3581652641296387,1.2688984870910645,-0.06162181869149208
1772790171020851700,4.330851806640625,-0.9408508539199829,1.6735775470733643,0.5786170363426208
1772790171040886500,4.350886474609375,-0.1817205250263214,1.8806862831115723,1.0086463689804077
1772790171060922600,4.370922607421875,0.7400820851325989,1.8318012952804565,1.3399803638458252
1772790171080957700,4.390957763671875,1.628459095954895,1.7181223630905151,1.547169804573059
1772790171100993500,4.41099365234375,2.288856267929077,1.7597100734710693,1.5662740468978882
1772790171121028600,4.431028564453125,2.651231527328491,1.7636667490005493,1.4728615283966064
1772790171141064700,4.451064697265625,2.7910208702087402,1.8933056592941284,1.3791706562042236
1772790171161099500,4.471099609375,2.7757227420806885,2.0486629009246826,1.3250981569290161
1772790171181135600,4.491135498046875,2.6544711589813232,2.2499804496765137,1.3246229887008667
1772790171201170400,4.51117041015625,2.530687093734741,2.415569305419922,1.326748013496399
1772790171221206500,4.53120654296875,2.442228317260742,2.494887590408325,1.3338338136672974
1772790171241242600,4.55124267578125,2.47110915184021,2.454627513885498,1.2842217683792114
1772790171261277400,4.57127734375,2.5628771781921387,2.251007080078125,1.1626391410827637
1772790171281313500,4.5913134765625,2.650468349456787,2.031463623046875,1.0281546115875244
1772790171301348400,4.611348388671875,2.6567001342773438,1.712602138519287,0.835787832736969
1772790171321384400,4.631384521484375,2.5128657817840576,1.3707129955291748,0.6012512445449829
1772790171341419500,4.65141943359375,2.251312017440796,0.9913486838340759,0.30691173672676086
1772790171361455400,4.671455322265625,1.9671516418457031,0.47678041458129883,-0.06365061551332474
1772790171381490400,4.691490478515625,1.6974014043807983,0.025771941989660263,-0.44984200596809387
1772790171401526500,4.711526611328125,1.4238979816436768,-0.33411192893981934,-0.7498396039009094
1772790171421561600,4.7315615234375,1.1954070329666138,-0.5592531561851501,-0.8968961834907532
1772790171441597400,4.751597412109375,1.0438214540481567,-0.6515021324157715,-0.9251970648765564
1772790171461632500,4.771632568359375,0.9795977473258972,-0.6753299832344055,-0.897055447101593
1772790171481668400,4.79166845703125,0.9345322251319885,-0.6374414563179016,-0.8195521235466003
1772790171501703400,4.811703369140625,0.9280503988265991,-0.5249505639076233,-0.7123638987541199
1772790171521739500,4.831739501953125,1.016432762145996,-0.3873322904109955,-0.6244761347770691
1772790171541775400,4.851775390625,1.2443883419036865,-0.2802271246910095,-0.689866304397583
1772790171561810400,4.871810546875,1.3980612754821777,-0.26103559136390686,-0.9742458462715149
1772790171581846500,4.891846435546875,1.2035753726959229,-0.2985597848892212,-1.2060905694961548
1772790171601881900,4.9118818359375,0.7007676959037781,-0.3873807489871979,-1.1626311540603638
1772790171621918000,4.93191796875,0.07778960466384888,-0.5831350684165955,-0.7792419791221619
1772790171641953000,4.951953125,-0.582566499710083,-0.8584044575691223,-0.0781286209821701
1772790171661988900,4.97198876953125,-1.0908997058868408,-1.0961363315582275,0.7234088182449341
1772790171682024000,4.99202392578125,-1.2483046054840088,-1.3252613544464111,1.3650867938995361
1772790171702060000,5.01206005859375,-1.0899988412857056,-1.4258012771606445,1.8037126064300537
1772790171722095000,5.03209521484375,-0.8933792114257812,-1.4533146619796753,1.9766035079956055
1772790171742131000,5.052130859375,-0.8536696434020996,-1.4233453273773193,1.8779202699661255
1772790171762166000,5.072166015625,-0.9739214777946472,-1.2956489324569702,1.5334484577178955
1772790171782202000,5.0922021484375,-1.2783279418945312,-1.0264073610305786,0.9468587040901184
1772790171802238000,5.112238037109375,-1.9207532405853271,-0.39300480484962463,0.16367042064666748
1772790171822273000,5.13227294921875,-2.7092247009277344,0.3217460811138153,-0.7623580694198608
1772790171842309000,5.15230908203125,-3.2015581130981445,0.994327962398529,-1.791123390197754
1772790171862344000,5.172343994140625,-3.232357978820801,1.468192219734192,-2.636016607284546
1772790171882380000,5.192380126953125,-2.9636919498443604,1.558523416519165,-2.941558361053467
1772790171902415000,5.2124150390625,-2.60848069190979,1.1784554719924927,-2.729647636413574
1772790171922451000,5.232450927734375,-2.2112109661102295,0.5440624952316284,-2.1908316612243652
1772790171942486000,5.252486083984375,-1.8875819444656372,-0.0020013656467199326,-1.5079989433288574
1772790171962522000,5.272522216796875,-1.8096389770507812,-0.3444572389125824,-0.7478736639022827
1772790171982557200,5.29255712890625,-1.8922864198684692,-0.5636956095695496,0.027404991909861565
1772790172002593000,5.312593017578125,-1.9641292095184326,-0.6434263586997986,0.6402742266654968
1772790172022628000,5.332628173828125,-2.0080008506774902,-0.6101299524307251,0.974837601184845
1772790172042664000,5.352663818359375,-1.989552617073059,-0.5012726783752441,1.0894006490707397
1772790172062699000,5.372698974609375,-1.9044827222824097,-0.3834373950958252,1.070705533027649
1772790172082735000,5.392735107421875,-1.8249350786209106,-0.3760990500450134,0.963768720626831
1772790172102771000,5.41277099609375,-1.774971842765808,-0.4338268041610718,0.7554823160171509
1772790172122806000,5.432805908203125,-1.7490112781524658,-0.465527206659317,0.4039013981819153
1772790172142842000,5.452842041015625,-1.6659736633300781,-0.4270671606063843,-0.05993017926812172
1772790172162877200,5.472877197265625,-1.476357102394104,-0.3423352539539337,-0.6047543287277222
1772790172182913000,5.4929130859375,-1.3152577877044678,-0.1965860277414322,-1.0144590139389038
1772790172202948000,5.512947998046875,-1.1834099292755127,-0.17011021077632904,-1.1195465326309204
1772790172222984200,5.532984130859375,-0.992089033126831,-0.26573553681373596,-0.9286929965019226
1772790172243019000,5.55301904296875,-0.7144837975502014,-0.4245845675468445,-0.5591319799423218
1772790172263055000,5.57305517578125,-0.3145536780357361,-0.6794115304946899,-0.16481079161167145
1772790172283090200,5.593090087890625,0.17030729353427887,-0.872847318649292,0.19269435107707977
1772790172303126000,5.6131259765625,0.7089622616767883,-1.0037201642990112,0.472246915102005
1772790172323161000,5.6331611328125,1.2445225715637207,-1.0210996866226196,0.7276334166526794
1772790172343197200,5.653197265625,1.7243815660476685,-0.8624407649040222,0.9930427074432373
1772790172363233000,5.67323291015625,2.0881457328796387,-0.5351377129554749,1.1807547807693481
1772790172383268000,5.69326806640625,2.269899606704712,0.13391998410224915,1.2650078535079956
1772790172403304200,5.71330419921875,2.3091073036193848,0.9469364285469055,1.2902474403381348
1772790172423339000,5.733339111328125,2.234166383743286,1.8616195917129517,1.3219300508499146
1772790172443375000,5.753375,2.1434991359710693,2.772555351257324,1.39495849609375
1772790172463410200,5.77341015625,2.1453020572662354,3.631960153579712,1.5201600790023804
1772790172483446000,5.793446044921875,2.260488510131836,4.355534076690674,1.6498011350631714
1772790172503481000,5.813481201171875,2.490499496459961,4.903985500335693,1.7482898235321045
1772790172523517200,5.83351708984375,2.804703712463379,5.212907791137695,1.8179270029067993
1772790172543552300,5.85355224609375,3.061410665512085,5.219343662261963,1.8855550289154053
1772790172563588000,5.873588134765625,3.1496310234069824,4.907063961029053,1.8522071838378906
1772790172583623000,5.893622802734375,3.004444122314453,4.298977851867676,1.6525212526321411
1772790172603658800,5.91365869140625,2.6669747829437256,3.466951370239258,1.2148150205612183
1772790172623694800,5.93369482421875,2.270075559616089,2.452540397644043,0.5696120858192444
1772790172643732700,5.953732666015625,1.867572546005249,1.3856173753738403,-0.149077370762825
1772790172663767800,5.973767822265625,1.527745246887207,0.40940749645233154,-0.8521763682365417
1772790172683804000,5.993803955078125,1.302261233329773,-0.407396525144577,-1.4684550762176514
1772790172703838700,6.013838623046875,1.210572600364685,-1.1345596313476562,-1.9485803842544556
1772790172723874800,6.033874755859375,1.2199304103851318,-1.651625156402588,-2.2401161193847656
1772790172743910000,6.053909912109375,1.2843738794326782,-2.057325839996338,-2.327609062194824
1772790172763945700,6.07394580078125,1.2944592237472534,-2.3319668769836426,-2.2142410278320312
1772790172783980800,6.093980712890625,1.1588393449783325,-2.3985891342163086,-1.879889965057373
1772790172804017000,6.114016845703125,0.9625627994537354,-2.321270227432251,-1.3647291660308838
1772790172824052000,6.134052001953125,0.8471400737762451,-1.999300241470337,-0.875612735748291
1772790172844087800,6.154087890625,0.8916348218917847,-1.5084199905395508,-0.6590713858604431
1772790172864123000,6.174122802734375,0.9020376801490784,-1.032962679862976,-0.7081789970397949
1772790172884159000,6.194158935546875,0.7149173617362976,-0.7350146174430847,-0.6939105987548828
1772790172904194800,6.21419482421875,0.33616629242897034,-0.5972780585289001,-0.4314821660518646
1772790172924230000,6.23422998046875,-0.12340475618839264,-0.5241622924804688,0.007392402272671461
1772790172944265700,6.254265625,-0.616348922252655,-0.40639543533325195,0.5667603611946106
1772790172964300800,6.27430078125,-1.1122775077819824,-0.41288265585899353,1.133158564567566
1772790172984337000,6.2943369140625,-1.5582903623580933,-0.5687713027000427,1.6121387481689453
1772790173004372000,6.3143720703125,-1.9231892824172974,-0.7142704725265503,1.9086142778396606
1772790173024407800,6.33440771484375,-2.2022979259490967,-0.8034951090812683,1.996755838394165
1772790173044443000,6.35444287109375,-2.3249475955963135,-0.7513283491134644,1.8300236463546753
1772790173064479000,6.37447900390625,-2.292285680770874,-0.5559806823730469,1.4202347993850708
1772790173084513800,6.394513671875,-2.22544527053833,-0.3664480447769165,0.9019924402236938
1772790173104550000,6.4145498046875,-2.266261100769043,0.06644480675458908,0.2182745486497879
1772790173124585000,6.4345849609375,-2.4315686225891113,0.7059419751167297,-0.5109306573867798
1772790173144620800,6.454620849609375,-2.6021347045898438,1.2357347011566162,-1.0988889932632446
1772790173164657000,6.474656982421875,-2.7447149753570557,1.4060488939285278,-1.3632903099060059
1772790173184692000,6.49469189453125,-2.8499863147735596,1.140778660774231,-1.2685017585754395
1772790173204727800,6.514727783203125,-2.806057929992676,0.6547203063964844,-0.9835684895515442
1772790173224762600,6.5347626953125,-2.545772075653076,0.22742250561714172,-0.697862446308136
1772790173244799000,6.554799072265625,-2.1262409687042236,-0.00018801917030941695,-0.48311686515808105
1772790173264833800,6.574833740234375,-1.606191635131836,-0.2215518355369568,-0.3346775770187378
1772790173284870000,6.594869873046875,-1.0998353958129883,-0.5327440500259399,-0.18992972373962402
1772790173304904700,6.61490478515625,-0.7215800285339355,-0.8202517628669739,-0.05497509986162186
1772790173324940800,6.63494091796875,-0.5034282803535461,-1.06442391872406,-0.0006918892613612115
1772790173344975600,6.6549755859375,-0.4526881277561188,-1.3397780656814575,-0.06975777447223663
1772790173365011700,6.67501171875,-0.4618014395236969,-1.543129324913025,-0.22079496085643768
1772790173385046800,6.695046875,-0.5137298703193665,-1.7168490886688232,-0.3773387670516968
1772790173405082600,6.71508251953125,-0.5656316876411438,-1.8978620767593384,-0.49210742115974426
1772790173425117700,6.73511767578125,-0.5781645178794861,-2.0468904972076416,-0.5772446990013123
1772790173445153800,6.75515380859375,-0.6205354332923889,-2.1186656951904297,-0.652276873588562
1772790173465189600,6.775189697265625,-0.754425048828125,-2.0530240535736084,-0.7224814891815186
1772790173485224700,6.795224609375,-0.9429622292518616,-1.793162226676941,-0.7579199075698853
1772790173505260800,6.8152607421875,-1.110675573348999,-1.354480504989624,-0.6627191305160522
1772790173525295600,6.835295654296875,-1.1661531925201416,-0.8468335270881653,-0.4002256989479065
1772790173545331700,6.855331787109375,-1.0456616878509521,-0.2553044557571411,-0.021037906408309937
1772790173565366800,6.87536669921875,-0.7406805157661438,0.3578132688999176,0.3225386440753937
1772790173585402600,6.895402587890625,-0.21763725578784943,1.204229474067688,0.32338738441467285
1772790173605437200,6.915437255859375,0.1978856474161148,2.2686376571655273,0.262484073638916
1772790173625473300,6.935473388671875,0.27763986587524414,3.055732488632202,0.6159965991973877
1772790173645508400,6.95550830078125,0.4746354818344116,3.4386978149414062,1.2132765054702759
1772790173665544200,6.975544189453125,0.7994109392166138,3.562643527984619,1.635046124458313
1772790173685579300,6.995579345703125,1.3109066486358643,3.3185510635375977,1.7187902927398682
1772790173705615400,7.015615478515625,1.919640064239502,2.787986993789673,1.5198700428009033
1772790173725651200,7.035651123046875,2.4475882053375244,2.2091104984283447,1.0952383279800415
1772790173745686300,7.055686279296875,2.808145761489868,1.8010164499282837,0.621800422668457
1772790173765722400,7.075722412109375,2.951172351837158,1.4491956233978271,0.24613334238529205
1772790173785757200,7.095757080078125,2.8901216983795166,1.1910239458084106,-0.001353152096271515
1772790173805793300,7.115793212890625,2.805276870727539,1.088850498199463,-0.1460203230381012
1772790173825828400,7.135828369140625,2.7035675048828125,1.175600290298462,-0.19432953000068665
1772790173845864200,7.1558642578125,2.5340890884399414,1.4031751155853271,-0.1199524998664856
1772790173865899300,7.175899169921875,2.250488519668579,1.6903682947158813,0.08373404294252396
1772790173885935400,7.195935302734375,1.9396917819976807,1.990759253501892,0.35565343499183655
1772790173905970400,7.215970458984375,1.6757309436798096,2.2222633361816406,0.5589077472686768
1772790173926006300,7.23600634765625,1.5635175704956055,2.335505962371826,0.5903636813163757
1772790173946041300,7.256041259765625,1.636896014213562,2.338405132293701,0.4671384394168854
1772790173966077400,7.276077392578125,1.8611268997192383,2.2022252082824707,0.23977690935134888
1772790173986112300,7.2961123046875,2.1132185459136963,1.899391531944275,-0.04782131686806679
1772790174006148400,7.3161484375,2.278150796890259,1.4166208505630493,-0.4012928307056427
1772790174026183400,7.336183349609375,2.321002960205078,0.8031726479530334,-0.8308407664299011
1772790174046219300,7.35621923828125,2.2608518600463867,0.14701394736766815,-1.2770349979400635
1772790174066255400,7.37625537109375,2.059274911880493,-0.4870743155479431,-1.6673532724380493
1772790174086290400,7.39629052734375,1.774545431137085,-1.113363265991211,-1.891394853591919
1772790174106326300,7.416326171875,1.521187424659729,-1.599764347076416,-1.9300037622451782
1772790174126361300,7.436361328125,1.3199715614318848,-1.9077287912368774,-1.8511557579040527
1772790174146397400,7.4563974609375,1.2104556560516357,-2.0538806915283203,-1.719842553138733
1772790174166432300,7.476432373046875,1.2010281085968018,-2.0949816703796387,-1.5169477462768555
1772790174186468400,7.49646826171875,1.1826575994491577,-2.0520195960998535,-1.2305386066436768
1772790174206503400,7.51650341796875,1.0746995210647583,-1.8313101530075073,-0.991046667098999
1772790174226539300,7.536539306640625,0.7657293677330017,-1.5622366666793823,-0.9523053765296936
1772790174246574300,7.55657421875,0.23346520960330963,-1.4055578708648682,-0.9290874004364014
1772790174266610400,7.5766103515625,-0.43265873193740845,-1.3634146451950073,-0.7750533819198608
1772790174286645500,7.5966455078125,-1.1999636888504028,-1.2697328329086304,-0.41858020424842834
1772790174306681300,7.616681396484375,-2.028400182723999,-1.0428574085235596,0.1053924709558487
1772790174326716400,7.63671630859375,-2.768649101257324,-0.8132809400558472,0.5955126285552979
1772790174346752500,7.65675244140625,-3.2178192138671875,-0.6034365892410278,0.9592578411102295
1772790174366788400,7.676788330078125,-3.3828113079071045,-0.42613905668258667,1.2888168096542358
1772790174386823400,7.696823486328125,-3.5385451316833496,-0.19295907020568848,1.5048655271530151
1772790174406859500,7.716859619140625,-3.731790781021118,0.07774193584918976,1.461609125137329
1772790174426894300,7.736894287109375,-3.9243323802948,0.4588368237018585,1.2918025255203247
1772790174446930400,7.756930419921875,-4.21297550201416,0.9505021572113037,1.1189860105514526
1772790174466965500,7.776965576171875,-4.490755558013916,1.5334566831588745,1.0148617029190063
1772790174487001300,7.79700146484375,-4.585638523101807,2.116241693496704,0.9375118017196655
1772790174507036400,7.817036376953125,-4.458398818969727,2.509965658187866,0.882104754447937
1772790174527072500,7.837072509765625,-4.127752304077148,2.563826560974121,0.8951054811477661
1772790174547107600,7.857107666015625,-3.437375545501709,2.083909749984741,0.9584642052650452
1772790174567143400,7.877143310546875,-2.4362339973449707,1.0652095079421997,1.0273854732513428
1772790174587178500,7.897178466796875,-1.4580678939819336,-0.03257205709815025,0.9173617959022522
1772790174607214800,7.91721484375,-0.5718733668327332,-1.0395395755767822,0.5176807045936584
1772790174627250000,7.93725,0.1632682830095291,-1.9026943445205688,-0.07244650274515152
1772790174647286000,7.9572861328125,0.6443728804588318,-2.5895915031433105,-0.7284696102142334
1772790174667321000,7.977321044921875,0.8657020330429077,-3.12170147895813,-1.2595396041870117
1772790174687357000,7.99735693359375,0.783482551574707,-3.5358214378356934,-1.5678974390029907
1772790174707393000,8.01739306640625,0.46599113941192627,-3.680530071258545,-1.7217656373977661
1772790174727427800,8.037427734375,0.10806708037853241,-3.570910930633545,-1.8241451978683472
1772790174747464000,8.0574638671875,-0.1488717645406723,-3.092670440673828,-1.9205024242401123
1772790174767499000,8.0774990234375,-0.2949059307575226,-2.309202194213867,-1.966332197189331
1772790174787534800,8.097534912109374,-0.36002662777900696,-1.2670915126800537,-1.9137531518936157
1772790174807570000,8.11756982421875,-0.3979007601737976,-0.08441581577062607,-1.7310354709625244
1772790174827606000,8.13760595703125,-0.4869976043701172,1.1396512985229492,-1.3606069087982178
1772790174847641000,8.15764111328125,-0.6651372313499451,2.187055826187134,-0.7430160641670227
1772790174867677000,8.177677001953125,-0.7742373943328857,2.9587223529815674,0.05728219822049141
1772790174887711700,8.197711669921874,-0.688080370426178,3.3622183799743652,0.8811625242233276
1772790174907748000,8.217748046875,-0.2723524272441864,3.5684890747070312,1.3979848623275757
1772790174927782700,8.23778271484375,0.39663389325141907,3.6762771606445312,1.554054617881775
1772790174947819000,8.257819091796875,1.0447921752929688,3.787721633911133,1.668574571609497
1772790174967853800,8.277853759765625,1.526845932006836,3.870836019515991,1.8586711883544922
1772790174987889700,8.2978896484375,1.9171630144119263,3.80861496925354,2.0491976737976074
1772790175007926000,8.317926025390625,2.315551996231079,3.5035507678985596,2.0784852504730225
1772790175027960800,8.3379609375,2.704613208770752,3.0556423664093018,1.8145290613174438
1772790175047996700,8.35799658203125,3.07708477973938,2.5311121940612793,1.2358965873718262
1772790175068031700,8.37803173828125,3.461595058441162,2.1362316608428955,0.4430527985095978
1772790175088067800,8.39806787109375,3.761425018310547,1.7600901126861572,-0.3180043399333954
1772790175108103000,8.41810302734375,3.895028829574585,1.3885250091552734,-0.7794068455696106
1772790175128138800,8.438138671875,3.84810209274292,1.0726799964904785,-0.902588427066803
1772790175148173800,8.458173828125,3.678696870803833,0.8951699137687683,-0.7642598748207092
1772790175168209700,8.478209716796876,3.423107385635376,0.9321417808532715,-0.46965616941452026
1772790175188244700,8.49824462890625,3.1298859119415283,1.1024879217147827,-0.11781025677919388
1772790175208280800,8.51828076171875,2.8460381031036377,1.3931323289871216,0.22039389610290527
1772790175228316000,8.53831591796875,2.6483819484710693,1.712214469909668,0.4716367721557617
1772790175248351700,8.558351806640625,2.541494607925415,1.9252742528915405,0.62896329164505
1772790175268386800,8.57838671875,2.5022573471069336,1.97621488571167,0.7095881104469299
1772790175288423000,8.5984228515625,2.4763987064361572,1.8689310550689697,0.6966965198516846
1772790175308458800,8.618458740234376,2.4288551807403564,1.661407232284546,0.5921458601951599
1772790175328493800,8.638493896484375,2.33609938621521,1.3497477769851685,0.38492849469184875
1772790175348530000,8.658530029296875,2.1358635425567627,0.9255959987640381,0.11427810788154602
1772790175368564700,8.678564697265625,1.861223578453064,0.459583044052124,-0.171384796500206
1772790175388600800,8.698600830078124,1.5383033752441406,0.010518155060708523,-0.43983757495880127
1772790175408636000,8.718635986328126,1.185402274131775,-0.39910370111465454,-0.6401610970497131
1772790175428671700,8.738671630859375,0.856109619140625,-0.7512849569320679,-0.7423665523529053
1772790175448706800,8.758706787109375,0.610899031162262,-1.020492672920227,-0.7862434387207031
1772790175468743000,8.778742919921875,0.4757305681705475,-1.2726777791976929,-0.7813237905502319
1772790175488778000,8.798778076171875,0.3881314992904663,-1.4679745435714722,-0.6830017566680908
1772790175508813800,8.818813720703124,0.3387245237827301,-1.6153403520584106,-0.5688173770904541
1772790175528849000,8.838848876953126,0.2856530547142029,-1.6908127069473267,-0.6210702061653137
1772790175548885000,8.858885009765626,0.20772257447242737,-1.7347761392593384,-0.6743278503417969
1772790175568919800,8.878919921875,-0.023361781612038612,-1.688620686531067,-0.4662475883960724
1772790175588956000,8.898955810546875,-0.45040231943130493,-1.4586710929870605,0.015548599883913994
1772790175608990500,8.918990478515624,-1.079808235168457,-0.9616746306419373,0.6683266758918762
1772790175629026300,8.9390263671875,-1.845507264137268,-0.49722760915756226,1.363955020904541
1772790175649062400,8.9590625,-2.453735828399658,-0.19516603648662567,1.792332410812378
1772790175669097500,8.979097412109375,-2.720707416534424,0.06983234733343124,1.837829351425171
1772790175689133300,8.99913330078125,-2.716176986694336,0.176895409822464,1.6778684854507446
1772790175709168400,9.01916845703125,-2.7233872413635254,0.10636239498853683,1.398276686668396
1772790175729204500,9.03920458984375,-2.9023776054382324,-0.03332972526550293,1.0509201288223267
1772790175749239600,9.059239501953124,-3.394655227661133,-0.05965001508593559,0.698976457118988
1772790175769275400,9.079275390625,-3.906928062438965,0.048534512519836426,0.27444568276405334
1772790175789310500,9.099310546875,-4.107781410217285,0.2531324028968811,-0.2736341953277588
1772790175809346600,9.1193466796875,-3.997067451477051,0.4053376317024231,-0.8180442452430725
1772790175829381400,9.13938134765625,-3.7094717025756836,0.30387625098228455,-1.1518845558166504
1772790175849417500,9.15941748046875,-3.392190933227539,-0.015802398324012756,-1.1715000867843628
1772790175869452500,9.17945263671875,-3.073167324066162,-0.46756720542907715,-0.988666296005249
1772790175889488400,9.19948828125,-2.6623520851135254,-0.9059341549873352,-0.7137503623962402
1772790175909523500,9.2195234375,-2.1079583168029785,-1.2143495082855225,-0.4714146554470062
1772790175929559600,9.2395595703125,-1.4955772161483765,-1.4323688745498657,-0.36033448576927185
1772790175949594600,9.2595947265625,-0.9854699969291687,-1.5516362190246582,-0.41288691759109497
1772790175969630500,9.27963037109375,-0.5743258595466614,-1.6418403387069702,-0.5816892385482788
1772790175989666600,9.29966650390625,-0.41434258222579956,-1.6816096305847168,-0.772733747959137
1772790176009701400,9.319701416015626,-0.49955523014068604,-1.7241102457046509,-1.002926230430603
1772790176029737500,9.339737548828126,-0.8166194558143616,-1.7054705619812012,-1.2364671230316162
1772790176049772500,9.3597724609375,-1.151931643486023,-1.6826226711273193,-1.3477920293807983
1772790176069808400,9.379808349609375,-1.394007921218872,-1.6141490936279297,-1.3516639471054077
1772790176089843500,9.399843505859375,-1.5012236833572388,-1.3898677825927734,-1.245988368988037
1772790176109879600,9.419879638671874,-1.4799330234527588,-1.0511512756347656,-1.0090928077697754
1772790176129914600,9.43991455078125,-1.4164413213729858,-0.5477759838104248,-0.6414058208465576
1772790176149950500,9.459950439453126,-1.280659556388855,0.13173753023147583,-0.1766437441110611
1772790176169985500,9.479985595703125,-0.897434651851654,0.9833551645278931,0.18555335700511932
1772790176190021600,9.500021728515625,-0.40866580605506897,2.0806803703308105,0.4321759045124054
1772790176210056200,9.52005615234375,0.15752597153186798,3.160917282104492,0.781094491481781
1772790176230089500,9.54008935546875,0.9985002875328064,3.6869590282440186,1.301665186882019
1772790176250125300,9.560125244140625,2.013322353363037,3.507456064224243,1.760783314704895
1772790176270160400,9.580160400390625,2.830383062362671,3.0746748447418213,1.856745719909668
1772790176290196500,9.600196533203125,3.4295897483825684,2.4299392700195312,1.5996601581573486
1772790176310232300,9.620232421875,3.758047342300415,1.6458159685134888,1.129936933517456
1772790176330267400,9.640267333984376,3.83040714263916,0.8922716379165649,0.6689234972000122
1772790176350303500,9.660303466796876,3.776747226715088,0.2933727502822876,0.4394945502281189
1772790176370338600,9.680338623046875,3.6808347702026367,-0.08694422245025635,0.4269137680530548
1772790176390374400,9.70037451171875,3.637895107269287,-0.13278068602085114,0.4785420894622803
1772790176410409500,9.720409423828125,3.7201812267303467,0.1274184137582779,0.5366631746292114
1772790176430445300,9.7404453125,3.974156618118286,0.689651370048523,0.6006906032562256
1772790176450480400,9.76048046875,4.2119879722595215,1.585429310798645,0.7915309071540833
1772790176470516500,9.7805166015625,4.172360420227051,2.4982247352600098,1.1926207542419434
1772790176490551600,9.800551513671875,3.8444836139678955,2.8746447563171387,1.580414891242981
1772790176510587400,9.82058740234375,3.3950679302215576,2.8534440994262695,1.6858060359954834
1772790176530622500,9.84062255859375,2.934152364730835,2.626514434814453,1.459898829460144
1772790176550658600,9.860658447265624,2.5091803073883057,2.2545275688171387,1.0571132898330688
1772790176570693400,9.880693359375,2.116074323654175,1.7539442777633667,0.6449262499809265
1772790176590729500,9.9007294921875,1.7463884353637695,1.2532469034194946,0.2869260311126709
1772790176610764000,9.920763916015625,1.4211561679840088,0.801866352558136,-0.02383156307041645
1772790176630800100,9.940800048828125,1.1269805431365967,0.35862287878990173,-0.3050230145454407
1772790176650836200,9.960836181640625,0.8496200442314148,-0.05107330530881882,-0.5961089134216309
1772790176670871000,9.98087109375,0.6388095021247864,-0.41854560375213623,-0.9425007104873657
1772790176690907100,10.0009072265625,0.48280420899391174,-0.7661815881729126,-1.2902523279190063
1772790176710942000,10.02094189453125,0.3921129107475281,-1.0443661212921143,-1.551344871520996
1772790176730978000,10.04097802734375,0.33576682209968567,-1.2820875644683838,-1.6704955101013184
1772790176751013000,10.06101318359375,0.2716866433620453,-1.5256980657577515,-1.6519116163253784
1772790176771049000,10.081049072265625,0.1669149547815323,-1.67387855052948,-1.5333040952682495
1772790176791084000,10.101083984375,-0.019522035494446754,-1.7296544313430786,-1.3376363515853882
1772790176811120000,10.1211201171875,-0.24347443878650665,-1.6976383924484253,-1.0902752876281738
1772790176831155000,10.141155029296876,-0.4230857491493225,-1.4706209897994995,-0.910286545753479
1772790176851191000,10.16119091796875,-0.5782601237297058,-1.1964187622070312,-1.0672410726547241
1772790176871226000,10.18122607421875,-0.9413208961486816,-0.9158227443695068,-1.2795788049697876
1772790176891262000,10.201261962890625,-1.53566575050354,-0.609240710735321,-1.1173646450042725
1772790176911297000,10.221297119140624,-2.2034292221069336,-0.3173518478870392,-0.718036413192749
1772790176931333000,10.2413330078125,-2.8216938972473145,0.08334788680076599,-0.2627120614051819
1772790176951368200,10.2613681640625,-3.3688905239105225,0.5209441184997559,0.17192861437797546
1772790176971404000,10.281404052734375,-3.785835027694702,0.8014623522758484,0.5328679084777832
1772790176991440100,10.301440185546875,-4.051119327545166,0.8882651329040527,0.9643173217773438
1772790177011475200,10.32147509765625,-4.296270370483398,0.8348639607429504,1.4761499166488647
1772790177031511000,10.341510986328124,-4.525416374206543,0.682621955871582,1.842759370803833
1772790177051546000,10.361546142578124,-4.60995626449585,0.5447626709938049,1.8015280961990356
1772790177071582000,10.38158203125,-4.474728584289551,0.649146556854248,1.3427021503448486
1772790177091617000,10.401616943359375,-4.0379638671875,1.1304469108581543,0.768241286277771
1772790177111653000,10.421653076171875,-3.2866015434265137,1.7152302265167236,0.4035184383392334
1772790177131688200,10.441688232421875,-2.3354880809783936,1.593948483467102,0.3321302831172943
1772790177151724000,10.46172412109375,-1.3824293613433838,0.5351371765136719,0.27060139179229736
1772790177171759000,10.481759033203126,-0.6658408641815186,-0.8659473061561584,-0.07266674935817719
1772790177191795200,10.501795166015626,-0.10470350831747055,-1.9744495153427124,-0.791566014289856
1772790177211830000,10.521830078125,0.2827693819999695,-2.775547504425049,-1.6392185688018799
1772790177231866000,10.5418662109375,0.37350034713745117,-3.369981527328491,-2.2654225826263428
1772790177251901200,10.561901123046875,0.2151179015636444,-3.8464765548706055,-2.537649393081665
1772790177271937000,10.58193701171875,-0.08417133241891861,-4.10433292388916,-2.531304121017456
1772790177291972000,10.60197216796875,-0.4020156264305115,-4.046289920806885,-2.3906843662261963
1772790177312008200,10.62200830078125,-0.6204280853271484,-3.657062292098999,-2.2298948764801025
1772790177332043300,10.642043212890625,-0.6759555339813232,-2.9807112216949463,-1.9983558654785156
1772790177352079000,10.6620791015625,-0.5857300758361816,-2.1589722633361816,-1.6156468391418457
1772790177372115200,10.682115234375,-0.45268359780311584,-1.3146319389343262,-1.0851510763168335
1772790177392150300,10.702150390625,-0.33004555106163025,-0.46525824069976807,-0.4751335084438324
1772790177412186000,10.72218603515625,-0.2719694674015045,0.23736567795276642,0.17084871232509613
1772790177432221200,10.74222119140625,-0.2917279899120331,0.8205910325050354,0.7146520614624023
1772790177452257300,10.76225732421875,-0.2974548637866974,1.3445335626602173,1.141017198562622
1772790177472292000,10.7822919921875,-0.23226040601730347,1.6882891654968262,1.5304347276687622
1772790177492328200,10.802328125,-0.12014265358448029,1.8391971588134766,1.8726706504821777
1772790177512363300,10.82236328125,-0.022056566551327705,1.8756201267242432,2.1225521564483643
1772790177532399000,10.842399169921874,0.12441515922546387,1.7542908191680908,2.1550519466400146
1772790177552434200,10.86243408203125,0.3329566419124603,1.4874385595321655,1.9006352424621582
1772790177572470300,10.88247021484375,0.5345994830131531,1.1465257406234741,1.37502920627594
1772790177592505300,10.90250537109375,0.6882979869842529,0.7367826700210571,0.6901211738586426
1772790177612542000,10.9225419921875,0.782882809638977,0.27245041728019714,-0.0441187247633934
1772790177632577000,10.942576904296875,0.9245805740356445,0.006713296286761761,-0.7919628620147705
1772790177652612900,10.96261279296875,1.076532244682312,-0.06180424615740776,-1.343624472618103
1772790177672648000,10.98264794921875,1.0827568769454956,-0.12741254270076752,-1.5151232481002808
1772790177692684000,11.00268408203125,1.0701944828033447,-0.24682815372943878,-1.325713038444519
1772790177712718800,11.02271875,1.1321486234664917,-0.3110122084617615,-0.889743983745575
1772790177732755000,11.0427548828125,1.328683853149414,-0.26464709639549255,-0.47604429721832275
1772790177752790000,11.0627900390625,1.7252404689788818,-0.10092421621084213,-0.1896578073501587
1772790177772825900,11.082825927734374,2.2822318077087402,0.0748465433716774,0.05536285787820816
1772790177792861000,11.10286083984375,2.799590587615967,0.27019232511520386,0.4196513295173645
1772790177812897000,11.12289697265625,3.1001861095428467,0.5017611384391785,0.8210600018501282
1772790177832932900,11.142932861328125,3.1983816623687744,0.6261195540428162,1.045676350593567
1772790177852968000,11.162968017578125,3.113818407058716,0.7501940727233887,0.9869430065155029
1772790177873004000,11.183004150390625,2.8818037509918213,0.755980908870697,0.7463684678077698
1772790177893039000,11.2030390625,2.4876928329467773,0.6516987085342407,0.43416130542755127
1772790177913075000,11.223074951171874,1.9290093183517456,0.4515778422355652,0.1647990643978119
1772790177933109800,11.24310986328125,1.3600497245788574,0.1833607703447342,-0.05784465745091438
1772790177953145900,11.263145751953125,0.8697673678398132,-0.03181598708033562,-0.27988171577453613
1772790177973180700,11.2831806640625,0.4637239873409271,-0.11027031391859055,-0.4549185037612915
1772790177993217000,11.303217041015625,0.21475890278816223,-0.13801033794879913,-0.5466889142990112
1772790178013251800,11.323251953125,0.12598855793476105,-0.22570662200450897,-0.5357933640480042
1772790178033287700,11.34328759765625,0.14817401766777039,-0.3342325687408447,-0.43957656621932983
1772790178053322800,11.36332275390625,0.22161228954792023,-0.425924688577652,-0.2883939743041992
1772790178073358800,11.38335888671875,0.28746214509010315,-0.49591201543807983,-0.14468474686145782
1772790178093394000,11.403393798828125,0.29602205753326416,-0.5260201096534729,-0.0305176954716444
1772790178113429800,11.4234296875,0.2960369884967804,-0.5537867546081543,0.08588055521249771
1772790178133464800,11.44346484375,0.29968205094337463,-0.5758662223815918,0.23350729048252106
1772790178153500700,11.463500732421876,0.30317559838294983,-0.507773756980896,0.40637120604515076
1772790178173535700,11.48353564453125,0.3000708818435669,-0.36377155780792236,0.5711489915847778
1772790178193571800,11.50357177734375,0.20792071521282196,-0.19081762433052063,0.6419123411178589
1772790178213607000,11.52360693359375,0.05020191892981529,-0.1034020185470581,0.48599281907081604
1772790178233642800,11.543642822265625,-0.12045690417289734,-0.11543525010347366,0.05823587626218796
1772790178253677800,11.563677734375,-0.31980329751968384,-0.24089249968528748,-0.6198651194572449
1772790178273714000,11.5837138671875,-0.5872136950492859,-0.542068600654602,-1.4765163660049438
1772790178293748700,11.603748779296875,-0.8763964772224426,-0.9316131472587585,-2.3797519207000732
1772790178313784800,11.623784912109375,-1.0881987810134888,-1.2390538454055786,-3.30513334274292
1772790178333821000,11.643821044921875,-1.2022851705551147,-1.4037359952926636,-4.216527462005615
1772790178353855700,11.663855712890625,-1.364115595817566,-1.5399454832077026,-4.931217193603516
1772790178373891800,11.683891845703124,-1.677685260772705,-1.6900449991226196,-5.271488666534424
1772790178393927000,11.703927001953126,-2.0628418922424316,-1.7892873287200928,-5.35025691986084
1772790178413962800,11.723962646484376,-2.4062514305114746,-1.7426202297210693,-5.36568546295166
1772790178433997800,11.743997802734375,-2.6549735069274902,-1.579737901687622,-5.452547550201416
1772790178454034000,11.764033935546875,-2.785792112350464,-1.358872652053833,-5.603811740875244
1772790178474069000,11.784069091796875,-2.8587727546691895,-1.1401066780090332,-5.744264602661133
1772790178494104800,11.804104736328124,-2.904916286468506,-0.8910489678382874,-5.823692798614502
1772790178514140000,11.824139892578126,-3.002436876296997,-0.5378570556640625,-5.80797815322876
1772790178534176000,11.844176025390626,-3.1430482864379883,-0.14078880846500397,-5.693546295166016
1772790178554210800,11.8642109375,-3.3364295959472656,0.3354664146900177,-5.483278274536133
1772790178574247000,11.884246826171875,-3.549471616744995,0.8510016798973083,-5.1364665031433105
1772790178594282000,11.904281982421875,-3.769392490386963,1.2792675495147705,-4.616766929626465
1772790178614317000,11.924317138671874,-3.9131019115448,1.5452635288238525,-3.9544103145599365
1772790178634352000,11.94435205078125,-3.9215247631073,1.5463426113128662,-3.225430488586426
1772790178654388200,11.96438818359375,-3.7829694747924805,1.26084303855896,-2.47450852394104
1772790178674423300,11.98442333984375,-3.491550922393799,0.7730943560600281,-1.6797480583190918
1772790178694459100,12.004459228515625,-3.0666141510009766,0.16997838020324707,-0.8223550915718079
1772790178714494200,12.024494140625,-2.5525565147399902,-0.4394162595272064,0.05335909500718117
1772790178734530300,12.0445302734375,-1.9969971179962158,-0.9902764558792114,0.8379998207092285
1772790178754565000,12.064565185546876,-1.441606879234314,-1.4269871711730957,1.5228599309921265
1772790178774601200,12.084601318359375,-0.9228034019470215,-1.7548737525939941,2.0815114974975586
1772790178794636300,12.10463623046875,-0.5419836640357971,-1.8833861351013184,2.421391010284424
1772790178814672100,12.124672119140625,-0.3269754648208618,-1.8035494089126587,2.475956439971924
1772790178834707200,12.144707275390624,-0.3573605418205261,-1.672480583190918,2.2372231483459473
1772790178854743300,12.164743408203124,-0.6873352527618408,-1.5676686763763428,1.7648909091949463
1772790178874778400,12.1847783203125,-1.1273791790008545,-1.5993198156356812,1.1324149370193481
1772790178894814200,12.204814208984375,-1.4645010232925415,-1.7545067071914673,0.5036596655845642
1772790178914849300,12.224849365234375,-1.6680421829223633,-1.9734649658203125,-0.016812002286314964
1772790178934885400,12.244885498046875,-1.8116869926452637,-2.1735119819641113,-0.41335880756378174
1772790178954921200,12.264921142578125,-1.944885492324829,-2.3238117694854736,-0.6823846697807312
1772790178974956300,12.284956298828124,-2.1322457790374756,-2.3915185928344727,-0.8583977818489075
1772790178994992400,12.304992431640626,-2.3494579792022705,-2.354071855545044,-0.9180629849433899
1772790179015027200,12.325027099609375,-2.496643543243408,-2.22198224067688,-0.8329749703407288
1772790179035063300,12.345063232421875,-2.4717352390289307,-2.120304822921753,-0.6399860978126526
1772790179055098000,12.36509814453125,-2.2907352447509766,-1.9003456830978394,-0.36066603660583496
1772790179075134200,12.38513427734375,-2.0499484539031982,-1.6756937503814697,-0.07604283839464188
1772790179095169000,12.4051689453125,-1.848721981048584,-1.4477287530899048,0.07777389138936996
1772790179115205400,12.425205322265626,-1.5824404954910278,-1.244278907775879,-0.034087128937244415
1772790179135240200,12.445240234375,-1.1974201202392578,-1.0458552837371826,-0.2843920588493347
1772790179155276000,12.465276123046875,-0.7433726787567139,-0.9156326055526733,-0.49097052216529846
1772790179175311000,12.48531103515625,-0.24704280495643616,-0.9185370206832886,-0.6156954169273376
1772790179195347000,12.505346923828125,0.1536066085100174,-1.0577034950256348,-0.6567139625549316
1772790179215382000,12.525382080078124,0.40657147765159607,-1.3087226152420044,-0.6454591751098633
1772790179235418000,12.545418212890626,0.5612987279891968,-1.592667579650879,-0.6690704822540283
1772790179255453200,12.565453125,0.7089822292327881,-1.788662075996399,-0.794765830039978
1772790179275489000,12.585489013671875,0.9595422744750977,-1.8429758548736572,-1.020343542098999
1772790179295524000,12.605524169921875,1.2772924900054932,-1.8171789646148682,-1.2655307054519653
1772790179315560200,12.625560302734375,1.5543065071105957,-1.7934887409210205,-1.4266276359558105
1772790179335595000,12.645594970703126,1.7096482515335083,-1.7971407175064087,-1.4201037883758545
1772790179355631000,12.665631103515626,1.7961671352386475,-1.8374042510986328,-1.243728756904602
1772790179375666200,12.685666259765625,1.8765416145324707,-1.8992778062820435,-1.0093973875045776
1772790179395702000,12.705701904296875,1.9426406621932983,-1.9144924879074097,-0.8018250465393066
1772790179415737000,12.725737060546875,1.8831251859664917,-1.8645390272140503,-0.5900425314903259
1772790179435773200,12.745773193359375,1.6996331214904785,-1.7596336603164673,-0.3500640094280243
1772790179455808300,12.765808349609374,1.4978389739990234,-1.5165605545043945,-0.10225526243448257
1772790179475844000,12.785843994140626,1.3149168491363525,-1.1644096374511719,0.17115123569965363
1772790179495879200,12.805879150390625,1.098807692527771,-0.7262871861457825,0.47182586789131165
1772790179515915300,12.825915283203125,0.8152199983596802,-0.16256041824817657,0.7863169312477112
1772790179535950000,12.8459501953125,0.4960193336009979,0.47690290212631226,1.1144626140594482
1772790179555986200,12.865986083984374,0.2233089804649353,1.0823150873184204,1.4337478876113892
1772790179576022300,12.886022216796874,0.0897863432765007,1.5163387060165405,1.7171082496643066
1772790179596057000,12.90605712890625,0.11426398903131485,1.7185817956924438,2.027038335800171
1772790179616093000,12.926093017578125,0.15296398103237152,1.7107819318771362,2.3273351192474365
1772790179636128000,12.9461279296875,0.17213261127471924,1.5209366083145142,2.459813117980957
1772790179656163800,12.966163818359375,0.19663849472999573,1.2846252918243408,2.295562505722046
1772790179676199000,12.986198974609374,0.18455493450164795,1.116823434829712,1.8363810777664185
1772790179696235000,13.006235107421874,0.00276063266210258,0.9951146245002747,1.1156575679779053
1772790179716270000,13.02627001953125,-0.28585439920425415,0.6304045915603638,0.2966497838497162
1772790179736306000,13.046305908203125,-0.3155704736709595,0.5793946385383606,-0.5078696012496948
1772790179756341000,13.066341064453125,-0.14570526778697968,0.5465331077575684,-0.9132788777351379
1772790179776377000,13.086377197265625,-0.11036432534456253,0.29279032349586487,-0.7989445924758911
1772790179796412000,13.106411865234374,-0.2682620882987976,-0.15140657126903534,-0.36771517992019653
1772790179816448000,13.126447998046874,-0.5652766823768616,-0.4396570026874542,-0.0024442493449896574
1772790179836483000,13.146483154296876,-0.7851235866546631,-0.5538192391395569,0.218978151679039
1772790179856519000,13.166518798828125,-0.9136576056480408,-0.5943198204040527,0.24421826004981995
1772790179876554000,13.186553955078125,-1.0540416240692139,-0.5259522199630737,0.13065841794013977
1772790179896590000,13.206590087890625,-1.1028331518173218,-0.5108214616775513,-0.04938459396362305
1772790179916625000,13.226625,-1.1248992681503296,-0.4270237684249878,-0.3271397650241852
1772790179936661000,13.246660888671874,-1.0958788394927979,-0.27438974380493164,-0.7349536418914795
1772790179956696000,13.266696044921876,-1.085047721862793,-0.47715243697166443,-1.0739092826843262
1772790179976732000,13.28673193359375,-1.06301748752594,-0.31723788380622864,-1.4964959621429443
1772790179996767000,13.30676708984375,-1.143026351928711,-0.4085227847099304,-1.7117691040039062
1772790180016803000,13.326802978515625,-1.3033382892608643,-0.4945239722728729,-1.751671552658081
1772790180036838100,13.346838134765624,-1.4157185554504395,-0.6156032681465149,-1.637427806854248
1772790180056874000,13.3668740234375,-1.3890485763549805,-0.7037749290466309,-1.4402724504470825
1772790180076909000,13.386908935546876,-1.2774068117141724,-0.7934840321540833,-1.1608107089996338
1772790180096945200,13.406945068359375,-1.1341303586959839,-0.9562141299247742,-0.8697165250778198
1772790180116980000,13.42697998046875,-0.9789630770683289,-1.088330626487732,-0.6552225947380066
1772790180137016000,13.44701611328125,-0.705109179019928,-1.126805067062378,-0.6403483152389526
1772790180157051100,13.467051025390624,-0.3406398594379425,-1.029398798942566,-0.8347121477127075
1772790180177087000,13.4870869140625,0.054308246821165085,-0.9238641858100891,-1.032230019569397
1772790180197122000,13.5071220703125,0.4768528342247009,-0.864409327507019,-1.1685242652893066
1772790180217158100,13.527158203125,0.8415000438690186,-0.7788901925086975,-1.2851788997650146
1772790180237193200,13.547193115234375,1.119807243347168,-0.8561642169952393,-1.3241686820983887
1772790180257229000,13.56722900390625,1.2885569334030151,-1.1152609586715698,-1.2835458517074585
1772790180277264100,13.58726416015625,1.3270989656448364,-1.3080909252166748,-1.108502745628357
1772790180297300200,13.60730029296875,1.2637221813201904,-1.571756362915039,-0.8384661674499512
1772790180317334800,13.627334716796875,1.147111415863037,-1.7522423267364502,-0.560529351234436
1772790180337371100,13.64737109375,0.9724668264389038,-1.767815351486206,-0.32714590430259705
1772790180357406000,13.667406005859375,0.7122600078582764,-1.7107642889022827,-0.210592120885849
1772790180377442000,13.687442138671875,0.45515578985214233,-1.5983141660690308,-0.20431505143642426
1772790180397476900,13.707476806640624,0.2590091824531555,-1.4405269622802734,-0.20739740133285522
1772790180417513000,13.727512939453124,0.17110463976860046,-1.2627018690109253,-0.1999775618314743
1772790180437548000,13.747548095703126,0.09044068306684494,-0.979169487953186,-0.1741342544555664
1772790180457583900,13.767583984375,-0.06245752051472664,-0.6088143587112427,-0.13925616443157196
1772790180477620000,13.787619873046875,-0.2853955328464508,-0.27082642912864685,-0.1663317233324051
1772790180497655000,13.807655029296875,-0.5097684264183044,0.0004362257895991206,-0.2701593041419983
1772790180517689900,13.82768994140625,-0.7782105803489685,0.23054586350917816,-0.29558372497558594
1772790180537726000,13.847725830078126,-1.129289984703064,0.30724090337753296,-0.1761619746685028
1772790180557761800,13.86776171875,-1.5351877212524414,0.40601488947868347,0.009309612214565277
1772790180577796900,13.887796875,-1.9158066511154175,0.5664138793945312,0.22683288156986237
1772790180597833000,13.9078330078125,-2.207871913909912,0.7674551010131836,0.4031842052936554
1772790180617868500,13.92786865234375,-2.3598859310150146,0.996425986289978,0.5423175692558289
1772790180637904400,13.947904296875,-2.2214255332946777,1.183755874633789,0.4897015392780304
1772790180657939500,13.967939453125,-1.8708720207214355,1.4581949710845947,0.18430352210998535
1772790180677975300,13.987975341796876,-1.635329246520996,1.8881276845932007,-0.051769454032182693
1772790180698010400,14.00801025390625,-1.4926639795303345,2.0330007076263428,0.018035193905234337
1772790180718046500,14.02804638671875,-1.3478658199310303,1.8676897287368774,0.2481679916381836
1772790180738081500,14.04808154296875,-1.125115990638733,1.4195383787155151,0.4235539436340332
1772790180758117400,14.068117431640625,-0.7278978228569031,0.6806192994117737,0.40955474972724915
1772790180778152400,14.08815234375,-0.0821678414940834,-0.2848772704601288,0.1551927775144577
1772790180798188500,14.1081884765625,0.5323560237884521,-1.2939335107803345,-0.16461344063282013
1772790180818223400,14.128223388671875,0.7218735218048096,-2.166297435760498,-0.33931708335876465
1772790180838259500,14.148259521484375,0.6101049184799194,-2.683309555053711,-0.39009398221969604
1772790180858294500,14.16829443359375,0.4418778121471405,-2.6653237342834473,-0.48109233379364014
1772790180878330400,14.188330322265625,0.42330414056777954,-2.1637184619903564,-0.5407681465148926
1772790180898365200,14.208365234375,0.5490977168083191,-1.306660532951355,-0.3987082242965698
1772790180918401500,14.228401611328126,0.7684018611907959,-0.1785431057214737,-0.027834560722112656
1772790180938436400,14.248436279296875,1.040736436843872,0.9889624714851379,0.45735129714012146
1772790180958472400,14.268472412109375,1.258610725402832,1.9824185371398926,0.9272364974021912
1772790180978507300,14.28850732421875,1.467218041419983,2.782250165939331,1.2940526008605957
1772790180998543400,14.30854345703125,1.6399152278900146,3.278473138809204,1.6414395570755005
1772790181018578200,14.328578125,1.7906112670898438,3.335878849029541,1.9399269819259644
1772790181038614300,14.3486142578125,1.9144399166107178,3.0092148780822754,2.1127874851226807
1772790181058649300,14.3686494140625,1.945789098739624,2.4684505462646484,2.086176633834839
1772790181078685200,14.388685302734375,1.8651269674301147,1.8266323804855347,1.7774964570999146
1772790181098720300,14.40872021484375,1.7863078117370605,1.1002447605133057,1.2077789306640625
1772790181118756400,14.42875634765625,1.6781171560287476,0.4521011412143707,0.4906168580055237
1772790181138791400,14.44879150390625,1.6084054708480835,-0.1476597636938095,-0.2852889895439148
1772790181158827300,14.4688271484375,1.5936845541000366,-0.6445659399032593,-0.9585710167884827
1772790181178862300,14.4888623046875,1.5820494890213013,-1.090491533279419,-1.3479403257369995
1772790181198898400,14.5088984375,1.5516082048416138,-1.4425270557403564,-1.5275462865829468
1772790181218933200,14.528933349609375,1.45973801612854,-1.6821718215942383,-1.5632505416870117
1772790181238969300,14.54896923828125,1.28484046459198,-1.7819911241531372,-1.4225823879241943
1772790181259004400,14.56900439453125,1.0055183172225952,-1.6884675025939941,-1.1428481340408325
1772790181279040300,14.589040283203126,0.7199022173881531,-1.3961621522903442,-0.8455195426940918
1772790181299075300,14.609075439453125,0.5827457308769226,-0.9246572256088257,-0.6208427548408508
1772790181319111400,14.629111328125,0.6614485383033752,-0.40878111124038696,-0.5525566339492798
1772790181339146500,14.649146484375,0.7536399364471436,0.01641838811337948,-0.5551289916038513
1772790181359182300,14.669182373046874,0.7041712403297424,0.28124019503593445,-0.4316992163658142
1772790181379217400,14.689217529296876,0.5169174075126648,0.33808988332748413,-0.21630486845970154
1772790181399253200,14.709253173828126,0.16345657408237457,0.26135435700416565,0.08949259668588638
1772790181419288300,14.729288330078125,-0.3164232075214386,0.1786174178123474,0.47492125630378723
1772790181439324400,14.749324462890625,-0.8222994208335876,0.100887730717659,0.8578683733940125
1772790181459359500,14.769359375,-1.2266134023666382,0.03205966576933861,1.0827767848968506
1772790181479395300,14.789395263671874,-1.3692213296890259,0.02629445493221283,1.1693445444107056
1772790181499430400,14.809430419921876,-1.1928207874298096,0.1142091304063797,1.2260184288024902
1772790181519466500,14.829466552734376,-0.8442673087120056,0.3481614291667938,1.187915563583374
1772790181539501300,14.849501220703125,-0.5706046223640442,0.8874360918998718,0.9935468435287476
1772790181559537400,14.869537353515625,-0.5601224303245544,1.4164376258850098,0.6515325307846069
1772790181579572500,14.889572509765625,-0.6767995357513428,1.8096134662628174,0.049798447638750076
1772790181599608000,14.909608154296874,-0.7734515070915222,1.9456833600997925,-0.6250777244567871
1772790181619643100,14.92964306640625,-0.8468902707099915,1.6303060054779053,-1.1567511558532715
1772790181639679200,14.94967919921875,-0.867394745349884,0.9986851215362549,-1.5612257719039917
1772790181659714300,14.96971435546875,-0.7953658103942871,0.27211806178092957,-1.8636507987976074
1772790181679750100,14.989750244140625,-0.7102174162864685,-0.3824078142642975,-2.000332832336426
1772790181699785200,15.00978515625,-0.7052282094955444,-0.9406998753547668,-1.9360195398330688
1772790181719821300,15.0298212890625,-0.7987091541290283,-1.3926985263824463,-1.6964117288589478
1772790181739856100,15.049856201171876,-0.9620472192764282,-1.6973880529403687,-1.3517944812774658
1772790181759892200,15.069892333984376,-1.1441155672073364,-1.801279067993164,-0.9665192365646362
1772790181779927300,15.08992724609375,-1.2355916500091553,-1.6759264469146729,-0.6122122406959534
1772790181799963100,15.109963134765625,-1.0626838207244873,-1.3664573431015015,-0.3462490141391754
1772790181819998200,15.129998291015625,-0.7607194185256958,-0.8524248600006104,-0.08510850369930267
1772790181840034300,15.150034423828124,-0.47807151079177856,-0.21840530633926392,0.14791782200336456
1772790181860069400,15.1700693359375,-0.32121530175209045,0.4420383870601654,0.3609089255332947
1772790181880105200,15.190105224609376,-0.40392109751701355,1.0416219234466553,0.4989496171474457
1772790181900140300,15.210140380859375,-0.6084966063499451,1.4963934421539307,0.6417925357818604
1772790181920176400,15.23017626953125,-0.7408602237701416,1.7293592691421509,0.8807172179222107
1772790181940211200,15.250211181640625,-0.8165361285209656,1.7249771356582642,1.1115427017211914
1772790181960247300,15.270247314453124,-0.9719757437705994,1.5858708620071411,1.2545875310897827
1772790181980282400,15.290282470703126,-1.233219861984253,1.246573805809021,1.3242030143737793
1772790182000318200,15.310318115234375,-1.3087888956069946,0.724468469619751,1.3275150060653687
1772790182020353300,15.330353271484375,-1.1017420291900635,0.15506495535373688,1.1666048765182495
1772790182040389400,15.350389404296875,-0.7128781676292419,-0.23306921124458313,0.760779082775116
1772790182060424400,15.370424560546875,-0.3173728883266449,-0.35095909237861633,0.056232910603284836
1772790182080460300,15.390460205078124,-0.1202063038945198,-0.22739534080028534,-0.6558516025543213
1772790182100495400,15.410495361328126,-0.14041969180107117,0.009664878249168396,-1.1639982461929321
1772790182120531200,15.43053125,-0.06960996985435486,0.18854381144046783,-1.431583285331726
1772790182140566300,15.450566162109375,0.2949189841747284,0.38204482197761536,-1.4765063524246216
1772790182160602400,15.470602294921875,0.8901458978652954,0.38743454217910767,-1.2495663166046143
1772790182180637400,15.490637451171875,1.5781519412994385,0.1649135798215866,-0.8576334714889526
1772790182200673300,15.51067333984375,2.1952786445617676,0.17717477679252625,-0.34085986018180847
1772790182220708400,15.530708251953126,2.544640302658081,0.5887367725372314,0.23413953185081482
1772790182240744400,15.550744384765625,2.6523447036743164,0.9054343104362488,0.7089827656745911
1772790182260779300,15.570779296875,2.4982588291168213,0.8896281719207764,1.0045135021209717
1772790182280814300,15.590814453125,2.1802127361297607,0.6762242913246155,1.0569037199020386
1772790182300850400,15.610850341796874,1.8242653608322144,0.4088439643383026,0.9393208622932434
1772790182320885200,15.63088525390625,1.5261857509613037,0.03549567610025406,0.803581178188324
1772790182340921300,15.65092138671875,1.2428120374679565,-0.3486725091934204,0.6799079775810242
1772790182360956200,15.6709560546875,0.9545885324478149,-0.632781982421875,0.4508737027645111
1772790182380992500,15.690992431640625,0.752406895160675,-0.8736904859542847,0.05626753345131874
1772790182401027300,15.71102734375,0.6640474796295166,-1.0551036596298218,-0.4522281885147095
1772790182421063200,15.731063232421874,0.6773430705070496,-1.2498531341552734,-0.8658775687217712
1772790182441098200,15.75109814453125,0.707047164440155,-1.2248908281326294,-0.9833714365959167
1772790182461134000,15.771134033203126,0.7691989541053772,-1.0752723217010498,-0.8722094893455505
1772790182481169200,15.791169189453125,0.8833401799201965,-0.8088725805282593,-0.6267621517181396
1772790182501205200,15.811205322265625,0.9994300007820129,-0.44558918476104736,-0.36146658658981323
1772790182521240300,15.831240234375,1.0452007055282593,0.04603087529540062,-0.15574805438518524
1772790182541276200,15.851276123046874,0.9703858494758606,0.4826478660106659,-0.02714506722986698
1772790182561311200,15.871311279296876,0.8560542464256287,0.7554088234901428,0.01635953225195408
1772790182581347300,15.891347412109376,0.7922677993774414,0.8486647605895996,-0.01221325621008873
1772790182601383000,15.9113828125,0.7738237977027893,0.7868341207504272,-0.0695234164595604
1772790182621419000,15.9314189453125,0.7499530911445618,0.5886600613594055,-0.10677438229322433
1772790182641454000,15.9514541015625,0.5886880159378052,0.3353753387928009,-0.05120113492012024
1772790182661490000,15.971489990234375,0.3259054124355316,0.053464822471141815,0.03604215756058693
1772790182681525000,15.99152490234375,0.013596768490970135,-0.12470225244760513,0.11859562247991562
1772790182701561000,16.01156103515625,-0.24506515264511108,-0.2355177104473114,0.15225903689861298
1772790182721596000,16.031595947265625,-0.41498255729675293,-0.3203388750553131,0.20393341779708862
1772790182741632000,16.051632080078125,-0.46007758378982544,-0.33205676078796387,0.2543153762817383
1772790182761667000,16.0716669921875,-0.3941190838813782,-0.2865297794342041,0.11503470689058304
1772790182781703000,16.091702880859376,-0.4886104166507721,-0.10340628027915955,-0.14869600534439087
1772790182801738000,16.111738037109376,-0.7570893168449402,-0.012707538902759552,-0.34495872259140015
1772790182821774000,16.131774169921876,-1.2123771905899048,0.0254619512706995,-0.25182318687438965
1772790182841809200,16.15180908203125,-1.663572907447815,-0.0272689051926136,0.034387003630399704
1772790182861845000,16.171844970703123,-1.9835056066513062,-0.09780166298151016,0.3161124289035797
1772790182881879800,16.1918798828125,-2.14091420173645,-0.2114616483449936,0.5995939373970032
1772790182901916000,16.211916015625,-2.2100119590759277,-0.3663204610347748,0.8397839069366455
1772790182921950700,16.23195068359375,-2.2264297008514404,-0.4614797532558441,0.9561288952827454
1772790182941987000,16.251987060546874,-2.1461431980133057,-0.40291815996170044,0.9153702855110168
1772790182962022000,16.27202197265625,-1.989275574684143,-0.2882501780986786,0.7823573350906372
1772790182982057700,16.2920576171875,-1.8366389274597168,-0.13193966448307037,0.5511696934700012
1772790183002092800,16.3120927734375,-1.6865719556808472,0.09028328955173492,0.13453331589698792
1772790183022129000,16.33212890625,-1.5060104131698608,0.383453905582428,-0.40456879138946533
1772790183042164000,16.3521640625,-1.3540139198303223,0.4583883285522461,-0.8351497054100037
1772790183062199800,16.37219970703125,-1.2374132871627808,0.2714884877204895,-1.0337597131729126
1772790183082235000,16.39223486328125,-1.1483556032180786,-0.08924438804388046,-1.0025432109832764
1772790183102270700,16.412270751953123,-1.0155493021011353,-0.5308758616447449,-0.8055979609489441
1772790183122305800,16.432305908203126,-0.8618990778923035,-0.9084404706954956,-0.5255072116851807
1772790183142340900,16.4523408203125,-0.7280304431915283,-1.1559858322143555,-0.26267823576927185
1772790183162377000,16.472376953125,-0.6145531535148621,-1.2425204515457153,-0.1169162318110466
1772790183182412000,16.492412109375,-0.5488396883010864,-1.2253224849700928,-0.10784044861793518
1772790183202448000,16.51244775390625,-0.4946371614933014,-1.0855382680892944,-0.14792874455451965
1772790183222483000,16.53248291015625,-0.41126343607902527,-0.9176092147827148,-0.20830607414245605
1772790183242518800,16.552518798828125,-0.35564813017845154,-0.6483473777770996,-0.20114296674728394
1772790183262553900,16.572553955078124,-0.3079988360404968,-0.4082343578338623,-0.10559646785259247
1772790183282590000,16.59258984375,-0.22835087776184082,-0.20282821357250214,0.04247076064348221
1772790183302625000,16.612625,-0.15859843790531158,-0.04614219442009926,0.17073392868041992
1772790183322660900,16.632660888671875,-0.10027014464139938,-0.0020732709672302008,0.23031549155712128
1772790183342696000,16.652696044921875,-0.053405702114105225,0.03780383616685867,0.18843595683574677
1772790183362732000,16.67273193359375,-0.03620940446853638,0.10881409794092178,0.08198994398117065
1772790183382766800,16.692766845703126,-0.052866410464048386,0.18207232654094696,-0.01775556057691574
1772790183402803000,16.712802978515626,-0.07649823278188705,0.29697468876838684,-0.06105616316199303
1772790183422838000,16.732838134765625,-0.12566392123699188,0.29807430505752563,-0.03026283159852028
1772790183442873900,16.752873779296873,-0.18197566270828247,0.3240603506565094,0.07537385076284409
1772790183462909000,16.772908935546877,-0.17115603387355804,0.28900089859962463,0.17305992543697357
1772790183482945000,16.792945068359376,-0.021952703595161438,0.3903762698173523,0.04167953506112099
1772790183502980000,16.81297998046875,0.08244986832141876,0.6097267270088196,-0.10272637754678726
1772790183523016000,16.833015869140624,0.0884113535284996,0.7955080270767212,-0.08853811770677567
1772790183543051000,16.853051025390624,0.05741855129599571,0.9249100089073181,0.08244267851114273
1772790183563087000,16.873087158203123,0.07176792621612549,1.0527653694152832,0.31773534417152405
1772790183583122000,16.893121826171875,0.1914921998977661,1.1614532470703125,0.5117903351783752
1772790183603157200,16.9131572265625,0.44130176305770874,1.1467965841293335,0.6673191785812378
1772790183623192300,16.9331923828125,0.7723827362060547,1.0428502559661865,0.7710139155387878
1772790183643228400,16.953228515625,1.0796303749084473,0.9187056422233582,0.8830575942993164
1772790183663263200,16.97326318359375,1.3110305070877075,0.8392360806465149,1.0153591632843018
1772790183683299300,16.99329931640625,1.4813807010650635,0.9140826463699341,1.1182982921600342
1772790183703334400,17.01333447265625,1.6763757467269897,1.0832527875900269,1.179029107093811
1772790183723370200,17.033370361328124,1.8919466733932495,1.3083114624023438,1.2168161869049072
1772790183743405300,17.0534052734375,2.1067612171173096,1.5438536405563354,1.2372758388519287
1772790183763440400,17.0734404296875,2.291952133178711,1.7168294191360474,1.2157636880874634
1772790183783476500,17.0934765625,2.395118474960327,1.75616455078125,1.1189641952514648
1772790183803511300,17.11351123046875,2.3548684120178223,1.7142757177352905,1.0103987455368042
1772790183823547400,17.13354736328125,2.275400400161743,1.5809972286224365,0.8061918616294861
1772790183843582500,17.15358251953125,2.2142460346221924,1.3313605785369873,0.5940937399864197
1772790183863618300,17.173618408203126,2.189081907272339,0.9485769867897034,0.48101377487182617
1772790183883653400,17.1936533203125,2.2080368995666504,0.5336127877235413,0.43750250339508057
1772790183903689500,17.213689453125,2.2309083938598633,0.1476597636938095,0.3824658691883087
1772790183923724300,17.233724365234377,2.2000739574432373,-0.263639360666275,0.2922965884208679
1772790183943760400,17.253760498046876,2.084686517715454,-0.6178296804428101,0.13347071409225464
1772790183963795500,17.27379541015625,1.856127381324768,-0.8931427001953125,-0.05704677477478981
1772790183983831300,17.293831298828124,1.5624268054962158,-1.0802053213119507,-0.2960769236087799
1772790184003866400,17.313866455078124,1.234410047531128,-1.1904667615890503,-0.5436249375343323
1772790184023902500,17.33390234375,0.9673067331314087,-1.210121750831604,-0.7217389941215515
1772790184043937500,17.3539375,0.7595380544662476,-1.160813570022583,-0.7920209169387817
1772790184063973400,17.373973388671875,0.5834991335868835,-1.0575377941131592,-0.8179166913032532
1772790184084008400,17.394008544921874,0.3610929548740387,-0.8377055525779724,-0.8013867139816284
1772790184104044500,17.41404443359375,0.0995716005563736,-0.5708065032958984,-0.691053569316864
1772790184124079400,17.434079345703125,-0.14690501987934113,-0.3001435697078705,-0.5007022619247437
1772790184144115500,17.454115478515625,-0.2072834074497223,0.009665410034358501,-0.4171149432659149
1772790184164150500,17.474150634765625,-0.19918207824230194,0.3196379244327545,-0.43235087394714355
1772790184184186400,17.494186279296876,-0.32111623883247375,0.5023030638694763,-0.2450675368309021
1772790184204221400,17.514221435546876,-0.5182820558547974,0.5712667107582092,0.1949620395898819
1772790184224256300,17.53425634765625,-0.8385545611381531,0.6329433917999268,0.6982811093330383
1772790184244292400,17.554292236328124,-1.291797161102295,0.7138880491256714,1.007568120956421
1772790184264327200,17.5743271484375,-1.7078937292099,0.6848267912864685,1.0402240753173828
1772790184284363300,17.59436328125,-2.0996267795562744,0.4562484920024872,0.9279539585113525
1772790184304398300,17.6143984375,-2.4357221126556396,0.08595725148916245,0.6588306427001953
1772790184324434200,17.63443408203125,-2.6757538318634033,-0.3316671550273895,0.2220650166273117
1772790184344469200,17.65446923828125,-2.7757701873779297,-0.6267733573913574,-0.3177585303783417
1772790184364505300,17.67450537109375,-2.699225425720215,-0.6386140584945679,-0.9091312885284424
1772790184384540400,17.69454052734375,-2.4993786811828613,-0.39400774240493774,-1.4337489604949951
1772790184404576300,17.714576171875,-2.285407543182373,0.01025370229035616,-1.7160855531692505
1772790184424611300,17.734611328125,-2.0549540519714355,0.3892683982849121,-1.751675009727478
1772790184444647400,17.7546474609375,-1.8417447805404663,0.6398689150810242,-1.6320844888687134
1772790184464682200,17.77468212890625,-1.6567671298980713,0.6265531182289124,-1.467664122581482
1772790184484718300,17.79471826171875,-1.517366647720337,0.3779768645763397,-1.255613088607788
1772790184504753400,17.81475341796875,-1.323752999305725,-0.032172318547964096,-1.04402756690979
1772790184524789200,17.834789306640626,-1.0894474983215332,-0.40109097957611084,-0.8455235362052917
1772790184544824300,17.85482421875,-0.8989108800888062,-0.7810220718383789,-0.6632882356643677
1772790184564860400,17.8748603515625,-0.8092036247253418,-1.1037322282791138,-0.5486775040626526
1772790184584895500,17.8948955078125,-0.8566172122955322,-1.3384133577346802,-0.5090619325637817
1772790184604930000,17.914929931640625,-0.9592623710632324,-1.4902511835098267,-0.5169046521186829
1772790184624966100,17.934966064453125,-1.0656391382217407,-1.5478854179382324,-0.5395593643188477
1772790184645001200,17.955001220703124,-1.1084686517715454,-1.5227326154708862,-0.5810479521751404
1772790184665037000,17.975037109375,-1.1152706146240234,-1.373816967010498,-0.6478946208953857
1772790184685072100,17.995072021484376,-1.1258505582809448,-1.1256449222564697,-0.6240249872207642
1772790184705108200,18.015108154296875,-1.1866427659988403,-0.8242470026016235,-0.43583163619041443
1772790184725143300,18.035143310546875,-1.3022916316986084,-0.5358876585960388,-0.12817154824733734
1772790184745179100,18.05517919921875,-1.408189296722412,-0.18980827927589417,0.23213230073451996
1772790184765214200,18.075214111328126,-1.3830983638763428,0.10728171467781067,0.5759666562080383
1772790184785250300,18.095250244140626,-1.1794410943984985,0.4385879933834076,0.8507769107818604
1772790184805285000,18.11528515625,-0.8711894750595093,0.7785999178886414,1.0478638410568237
1772790184825321200,18.1353212890625,-0.5331352949142456,1.001383662223816,1.131357192993164
1772790184845356300,18.155356201171877,-0.18551340699195862,1.1550675630569458,1.0614806413650513
1772790184865392000,18.17539208984375,0.27262991666793823,1.2452573776245117,0.7495166063308716
1772790184885427200,18.19542724609375,0.6711869239807129,1.2596358060836792,0.3293243646621704
1772790184905463300,18.21546337890625,0.9090068936347961,1.1156830787658691,-0.05164109170436859
1772790184925498400,18.235498291015624,1.033205509185791,0.865301251411438,-0.32052528858184814
1772790184945534200,18.2555341796875,1.0903974771499634,0.5057926177978516,-0.4737614393234253
1772790184965569300,18.2755693359375,1.1815942525863647,0.09457231312990189,-0.5906169414520264
1772790184985605000,18.295605224609375,1.3295857906341553,-0.30517616868019104,-0.6477481722831726
1772790185005640200,18.31564013671875,1.4593685865402222,-0.6528643369674683,-0.6262189149856567
1772790185025675300,18.33567529296875,1.5252059698104858,-0.8979678153991699,-0.5714528560638428
1772790185045711400,18.35571142578125,1.5310359001159668,-0.9943479299545288,-0.4910501539707184
1772790185065746400,18.375746337890625,1.5267138481140137,-0.978044331073761,-0.38790804147720337
1772790185085782300,18.3957822265625,1.5312204360961914,-0.8072667121887207,-0.24553200602531433
1772790185105817300,18.4158173828125,1.561064600944519,-0.5830133557319641,-0.030296120792627335
1772790185125853200,18.435853271484376,1.6201633214950562,-0.22407570481300354,0.23884400725364685
1772790185145888300,18.45588818359375,1.7069575786590576,0.19335640966892242,0.5348942875862122
1772790185165924400,18.47592431640625,1.8356990814208984,0.618510365486145,0.7737505435943604
1772790185185959400,18.49595947265625,1.9421701431274414,0.9960688352584839,0.9883360862731934
1772790185205995300,18.515995361328127,1.9946783781051636,1.2888925075531006,1.151778221130371
1772790185226030300,18.5360302734375,2.0379085540771484,1.5014744997024536,1.2498526573181152
1772790185246066400,18.55606640625,2.0924816131591797,1.6335026025772095,1.2996364831924438
1772790185266101200,18.576101318359374,2.1571810245513916,1.6233055591583252,1.307687759399414
1772790185286137300,18.596137451171874,2.175356864929199,1.4535322189331055,1.2664790153503418
1772790185306172400,18.61617236328125,2.1701741218566895,1.1469409465789795,1.1835814714431763
1772790185326208300,18.636208251953125,2.164472818374634,0.7019125819206238,1.0739002227783203
1772790185346243000,18.6562431640625,2.1726903915405273,0.1632174253463745,0.9377772808074951
1772790185366278100,18.676278076171876,2.154911756515503,-0.42263779044151306,0.7943218946456909
1772790185386314200,18.696314208984376,2.1104366779327393,-1.023921012878418,0.6397232413291931
1772790185406349000,18.71634912109375,2.0219714641571045,-1.5221585035324097,0.513161301612854
1772790185426385200,18.73638525390625,1.7906173467636108,-1.852542757987976,0.44941428303718567
1772790185446420200,18.756420166015626,1.4122610092163086,-1.9987061023712158,0.4196462631225586
1772790185466456000,18.7764560546875,0.9367722272872925,-1.9709380865097046,0.3901560306549072
1772790185486491100,18.7964912109375,0.42570921778678894,-1.6418603658676147,0.37915343046188354
1772790185506527200,18.81652734375,0.0009376989910379052,-0.9811615347862244,0.41061949729919434
1772790185526562300,18.836562255859373,-0.273505300283432,-0.24922873079776764,0.5709066390991211
1772790185546598100,18.85659814453125,-0.4538330137729645,0.2073819488286972,0.7784803509712219
1772790185566633200,18.87663330078125,-0.6355172991752625,0.49067917466163635,0.8777981400489807
1772790185586669300,18.89666943359375,-0.84429532289505,0.5567431449890137,0.8097767233848572
1772790185606704000,18.9167041015625,-1.168191909790039,0.47531166672706604,0.6061418652534485
1772790185626739200,18.9367392578125,-1.5726487636566162,0.3395991027355194,0.3233053684234619
1772790185646775300,18.956775390625,-2.056756019592285,0.23121671378612518,0.04279939457774162
1772790185666810400,18.976810302734375,-2.5298690795898438,0.10251891613006592,-0.15865595638751984
1772790185686846200,18.99684619140625,-2.854741096496582,0.006807572208344936,-0.32362279295921326
1772790185706881300,19.01688134765625,-3.0595650672912598,0.045459359884262085,-0.6579278111457825
1772790185726917400,19.03691748046875,-3.291022300720215,0.21615999937057495,-1.1553679704666138
1772790185746952200,19.0569521484375,-3.5085103511810303,0.360660195350647,-1.6415756940841675
1772790185766988300,19.07698828125,-3.6778831481933594,0.33153054118156433,-1.9924570322036743
1772790185787023400,19.0970234375,-3.6934659481048584,0.2334175407886505,-2.229617118835449
1772790185807059200,19.11705908203125,-3.541513681411743,0.09823815524578094,-2.3793013095855713
1772790185827094300,19.13709423828125,-3.289250373840332,-0.11806139349937439,-2.3779757022857666
1772790185847130400,19.15713037109375,-3.039247512817383,-0.30866703391075134,-2.275730848312378
1772790185867165400,19.17716552734375,-2.7934775352478027,-0.4628933370113373,-2.157780647277832
1772790185887200300,19.1972001953125,-2.4390506744384766,-0.6614415645599365,-2.0422158241271973
1772790185907236400,19.217236328125,-2.1044976711273193,-0.9576197266578674,-1.8610737323760986
1772790185927271400,19.237271484375,-1.735259771347046,-1.2126342058181763,-1.7222929000854492
1772790185947307300,19.257307373046874,-1.3301868438720703,-1.3441314697265625,-1.7128962278366089
1772790185967342000,19.277342041015626,-1.0108879804611206,-1.3453317880630493,-1.7174004316329956
1772790185987378400,19.29737841796875,-0.8039335012435913,-1.2920187711715698,-1.6609134674072266
1772790186007413200,19.317413330078125,-0.7380042672157288,-1.2141103744506836,-1.5407534837722778
1772790186027449300,19.337449462890625,-0.7448390126228333,-1.1563475131988525,-1.372549295425415
1772790186047484200,19.357484130859376,-0.7214860320091248,-1.1446281671524048,-1.169320821762085
1772790186067520300,19.377520263671876,-0.6480903625488281,-1.217151403427124,-0.9378944635391235
1772790186087555000,19.39755517578125,-0.5626702904701233,-1.3728816509246826,-0.6765177249908447
1772790186107590100,19.417590087890623,-0.43263185024261475,-1.503527045249939,-0.39799851179122925
1772790186127626200,19.437626220703127,-0.2689976394176483,-1.718703269958496,-0.10807613283395767
1772790186147661300,19.457661376953126,-0.14045219123363495,-1.8825757503509521,0.12076157331466675
1772790186167697200,19.477697265625,-0.022854981943964958,-1.9705431461334229,0.26608628034591675
1772790186187732200,19.497732177734374,0.016807742416858673,-2.015507936477661,0.43113675713539124
1772790186207768300,19.517768310546874,0.05331222340464592,-2.055276393890381,0.6279089450836182
1772790186227803100,19.53780322265625,0.1647663116455078,-2.0638113021850586,0.7694708704948425
1772790186247839200,19.557839111328125,0.1841951459646225,-1.8630985021591187,0.8533498048782349
1772790186267874300,19.577874267578125,0.0719040185213089,-1.4530476331710815,0.8192235231399536
1772790186287910100,19.59791015625,-0.07037536054849625,-1.0266320705413818,0.7741023302078247
1772790186307945200,19.6179453125,-0.12205000966787338,-0.5744071006774902,0.8043212294578552
1772790186327981300,19.637981201171876,-0.02791072614490986,-0.10164567083120346,1.0256285667419434
1772790186348016400,19.658016357421875,0.08738257735967636,0.22772769629955292,1.4816811084747314
1772790186368051200,19.67805126953125,0.0021228056866675615,0.37800320982933044,1.7555768489837646
1772790186388087300,19.69808740234375,-0.1634025126695633,0.47563549876213074,1.3947440385818481
1772790186408122400,19.718122314453126,-0.179399311542511,0.597436785697937,0.5251985192298889
1772790186428158200,19.738158203125,-0.07654537260532379,0.6481902599334717,-0.37626975774765015
1772790186448193300,19.758193359375,0.006359096150845289,0.6572838425636292,-0.976844310760498
1772790186468229400,19.7782294921875,0.15820854902267456,0.6769853830337524,-1.3746856451034546
1772790186488264400,19.798264404296877,0.2690242826938629,0.7959967255592346,-1.5082015991210938
1772790186508300300,19.81830029296875,0.329544335603714,0.8956668972969055,-1.3441985845565796
1772790186528335400,19.83833544921875,0.34906238317489624,1.008306622505188,-0.9554460644721985
1772790186548371200,19.85837109375,0.26178234815597534,1.049543023109436,-0.4490020275115967
1772790186568406300,19.87840625,0.22702409327030182,0.9386867880821228,-0.03129853308200836
1772790186588441000,19.898441162109375,0.2890520393848419,0.6683727502822876,0.2152334749698639
1772790186608477700,19.918477783203127,0.4550839066505432,0.3023982048034668,0.34977665543556213
1772790186628512500,19.938512451171874,0.6760075092315674,-0.013982128351926804,0.4370260536670685
1772790186648548600,19.958548583984374,0.8659100532531738,-0.20769540965557098,0.558742105960846
1772790186668583400,19.97858349609375,1.0050444602966309,-0.32514825463294983,0.7103055119514465
1772790186688619500,19.99861962890625,1.091024398803711,-0.30301979184150696,0.8960546255111694
1772790186708654300,20.018654296875,1.2012803554534912,-0.16090579330921173,1.0779144763946533
1772790186728690400,20.0386904296875,1.3568168878555298,0.08216144889593124,1.2131543159484863
1772790186748725500,20.0587255859375,1.5391312837600708,0.4434890151023865,1.2797338962554932
1772790186768761300,20.07876123046875,1.69240403175354,0.8684501647949219,1.3326750993728638
1772790186788796400,20.09879638671875,1.8163166046142578,1.3226478099822998,1.4542042016983032
1772790186808831500,20.11883154296875,1.901564121246338,1.719477653503418,1.7068859338760376
1772790186828867300,20.138867431640627,1.9268369674682617,2.01338791847229,2.0227954387664795
1772790186848902400,20.15890234375,1.919352412223816,2.2179012298583984,2.2929515838623047
1772790186868938500,20.1789384765625,1.897830843925476,2.2825515270233154,2.4719223976135254
1772790186888973600,20.1989736328125,1.8767170906066895,2.1782290935516357,2.514117956161499
1772790186909009400,20.219009521484374,1.8328298330307007,1.9203734397888184,2.3970606327056885
1772790186929044500,20.23904443359375,1.7624083757400513,1.4995604753494263,2.123607635498047
1772790186949080600,20.25908056640625,1.6420705318450928,0.955935001373291,1.7255496978759766
1772790186969115400,20.279115478515624,1.4611824750900269,0.3618498146533966,1.2482951879501343
1772790186989151500,20.2991513671875,1.245917797088623,-0.2154228389263153,0.7425505518913269
1772790187009186600,20.3191865234375,1.0126491785049438,-0.699063241481781,0.253102570772171
1772790187029221600,20.3392216796875,0.8202394843101501,-1.0356510877609253,-0.1588895171880722
1772790187049257500,20.359257568359375,0.676051676273346,-1.2866606712341309,-0.4362606704235077
1772790187069292500,20.37929248046875,0.5737466216087341,-1.4069721698760986,-0.6276687383651733
1772790187089328600,20.39932861328125,0.5182772278785706,-1.3973710536956787,-0.7945051193237305
1772790187109363500,20.419363525390626,0.3863181471824646,-1.229636311531067,-0.9004429578781128
1772790187129399600,20.439399658203126,0.18970894813537598,-0.9882513880729675,-0.8337284326553345
1772790187149434600,20.4594345703125,0.00845526996999979,-0.670295000076294,-0.5974814891815186
1772790187169470500,20.479470458984373,-0.07662872970104218,-0.33275532722473145,-0.27995920181274414
1772790187189505500,20.499505615234376,-0.0251636765897274,0.01125025749206543,-0.11829761415719986
1772790187209540600,20.51954052734375,-0.004780107643455267,0.30183228850364685,-0.110319584608078
1772790187229576700,20.53957666015625,-0.08819697052240372,0.39789384603500366,-0.05651680380105972
1772790187249611500,20.559611572265624,-0.32191306352615356,0.37737739086151123,0.025357021018862724
1772790187269647600,20.579647705078123,-0.63591468334198,0.259456068277359,-0.01423326414078474
1772790187289682400,20.599682373046875,-0.9817447662353516,0.0790623277425766,-0.2390730381011963
1772790187309718500,20.619718505859375,-1.3637707233428955,-0.17919398844242096,-0.6154996752738953
1772790187329753300,20.63975341796875,-1.7374670505523682,-0.4178782105445862,-1.1177977323532104
1772790187349789700,20.659789794921874,-2.034435272216797,-0.6034350395202637,-1.644960880279541
1772790187369824500,20.679824462890625,-2.213338613510132,-0.7257428169250488,-2.0253243446350098
1772790187389860400,20.6998603515625,-2.239644765853882,-0.768312931060791,-2.2098565101623535
1772790187409895400,20.7198955078125,-2.1202950477600098,-0.6370342373847961,-2.2538716793060303
1772790187429930500,20.739930419921876,-1.8925892114639282,-0.27735838294029236,-2.2782413959503174
1772790187449966300,20.75996630859375,-1.6938774585723877,0.2531518340110779,-2.2575008869171143
1772790187470001400,20.78000146484375,-1.6214016675949097,0.813832700252533,-2.078246593475342
1772790187490037500,20.80003759765625,-1.5996249914169312,1.2538130283355713,-1.729096531867981
1772790187510072600,20.820072509765627,-1.568674087524414,1.4564337730407715,-1.2690351009368896
1772790187530108400,20.8401083984375,-1.5234274864196777,1.388790249824524,-0.7871864438056946
1772790187550143500,20.8601435546875,-1.46938955783844,1.0720528364181519,-0.3403426706790924
1772790187570179600,20.8801796875,-1.3378562927246094,0.5212602615356445,0.02497805468738079
1772790187590214400,20.90021435546875,-1.142215609550476,-0.13673335313796997,0.31593453884124756
1772790187610249500,20.92024951171875,-0.9186012148857117,-0.841404139995575,0.5067907571792603
1772790187630285600,20.94028564453125,-0.7210596203804016,-1.4409288167953491,0.6203415393829346
1772790187650320600,20.960320556640625,-0.5761104226112366,-1.9218579530715942,0.7353823781013489
1772790187670356500,20.9803564453125,-0.5205076336860657,-2.275135040283203,0.8330889940261841
1772790187690391600,21.0003916015625,-0.5945110321044922,-2.380086660385132,0.823905885219574
1772790187710427600,21.020427734375,-0.7679802775382996,-2.271486282348633,0.6749832034111023
1772790187730462500,21.04046240234375,-0.9183423519134521,-2.0107011795043945,0.4654848575592041
1772790187750498600,21.06049853515625,-1.0054887533187866,-1.6498048305511475,0.34330275654792786
1772790187770533600,21.08053369140625,-1.1413074731826782,-1.161696195602417,0.4093467593193054
1772790187790568700,21.100568603515626,-1.274828553199768,-0.6656030416488647,0.7163096070289612
1772790187810604500,21.1206044921875,-1.2925809621810913,-0.23765915632247925,1.2394061088562012
1772790187830639600,21.1406396484375,-1.1774392127990723,0.04206462949514389,1.7839365005493164
1772790187850675500,21.160675537109373,-0.9552886486053467,0.2106107622385025,2.0924582481384277
1772790187870710500,21.18071044921875,-0.6591041088104248,0.30721694231033325,1.9806627035140991
1772790187890746600,21.20074658203125,-0.3995212912559509,0.33576443791389465,1.4843394756317139
1772790187910781700,21.22078173828125,-0.27233484387397766,0.3624785840511322,0.7671592235565186
1772790187930817500,21.240817626953124,-0.12667138874530792,0.34941738843917847,-0.06493905186653137
1772790187950852600,21.2608525390625,0.15693555772304535,0.3459973633289337,-0.8414385318756104
1772790187970887700,21.2808876953125,0.48696619272232056,0.3738713264465332,-1.4541021585464478
1772790187990923500,21.300923583984375,0.8373990654945374,0.45103853940963745,-1.875496506690979
1772790188010958300,21.320958251953126,1.0751311779022217,0.46058598160743713,-2.0137312412261963
1772790188030994700,21.34099462890625,1.1593775749206543,0.34136664867401123,-1.89631187915802
1772790188051029500,21.361029541015625,1.1294522285461426,0.18776138126850128,-1.6741770505905151
1772790188071065300,21.3810654296875,1.1821039915084839,0.075809545814991,-1.4899063110351562
1772790188091100400,21.401100341796877,1.2874187231063843,-0.009828396141529083,-1.2233773469924927
1772790188111136500,21.421136474609376,1.4998440742492676,-0.15661278367042542,-0.7440075874328613
1772790188131171600,21.441171630859376,1.8842908143997192,-0.24993953108787537,-0.16588030755519867
1772790188151206400,21.461206298828124,2.2950477600097656,-0.19792506098747253,0.3802141845226288
1772790188171242500,21.481242431640624,2.519399404525757,-0.02484729327261448,0.7699803113937378
1772790188191277600,21.501277587890623,2.442436456680298,0.1038568913936615,1.0243552923202515
1772790188211313400,21.5213134765625,2.2876436710357666,0.0065045044757425785,1.0784220695495605
1772790188231348500,21.541348388671874,2.404719114303589,-0.32557225227355957,1.0080552101135254
1772790188251384600,21.561384521484374,2.6689960956573486,-0.7029719948768616,0.8708915114402771
1772790188271419600,21.581419677734374,2.9022274017333984,-0.8272191286087036,0.574360191822052
1772790188291455500,21.60145556640625,2.978549003601074,-1.175296664237976,0.3491566479206085
1772790188311490600,21.621490478515625,2.9920151233673096,-1.9624933004379272,0.27761775255203247
1772790188331525600,21.641525634765625,3.1102166175842285,-3.024900436401367,0.298236221075058
1772790188351561500,21.6615615234375,3.0813236236572266,-4.220894813537598,0.38130074739456177
1772790188371596500,21.681596435546876,2.8987789154052734,-5.177661895751953,0.3605733811855316
1772790188391632600,21.701632568359376,2.714127779006958,-5.955815315246582,0.3452673852443695
1772790188411667700,21.721667724609375,2.526742935180664,-6.760542869567871,0.5035393238067627
1772790188431703600,21.74170361328125,2.227675676345825,-7.445599555969238,0.693669855594635
1772790188451738600,21.761738525390626,1.7815008163452148,-7.800809860229492,0.7090309262275696
1772790188471773700,21.781773681640626,1.4243730306625366,-7.440262794494629,0.6886505484580994
1772790188491809500,21.8018095703125,1.1789188385009766,-6.7356719970703125,1.0439362525939941
1772790188511844600,21.8218447265625,1.0072698593139648,-6.046929836273193,1.6210615634918213
1772790188531880700,21.841880615234373,1.0214530229568481,-5.72421932220459,1.94124174118042
1772790188551915500,21.86191552734375,1.0152356624603271,-5.307435989379883,1.9800578355789185
1772790188571951600,21.88195166015625,0.8199300169944763,-4.548986434936523,1.7820619344711304
1772790188591986700,21.901986572265624,0.5120877623558044,-3.663156509399414,1.5099636316299438
1772790188612022300,21.922022216796876,0.3707234859466553,-2.9923551082611084,1.3249684572219849
1772790188632057300,21.942057373046875,0.42038530111312866,-2.6203465461730957,1.2087478637695312
1772790188652092400,21.962092529296875,0.5067052841186523,-2.1565239429473877,1.0965453386306763
1772790188672128500,21.98212841796875,0.627170979976654,-1.3560125827789307,0.9315474033355713
1772790188692163600,22.00216357421875,0.8157033324241638,-0.5090017318725586,0.8751405477523804
1772790188712199400,22.022199462890626,0.8491795063018799,0.20574544370174408,0.8803344964981079
1772790188732234500,22.042234375,0.6648427248001099,0.8810408115386963,0.6616434454917908
1772790188752270300,22.062270263671873,0.6945415139198303,1.0546001195907593,0.23809058964252472
1772790188772305400,22.082305419921877,0.7604581713676453,0.6033855080604553,-0.14442428946495056
1772790188792341500,22.102341552734377,0.5612947344779968,0.19718603789806366,-0.36643311381340027
1772790188812376600,22.12237646484375,0.4337194859981537,0.40694406628608704,-0.38865986466407776
1772790188832411600,22.14241162109375,0.561582088470459,1.20219087600708,-0.13250131905078888
1772790188852447500,22.162447509765624,0.8051998019218445,2.040497303009033,0.40595656633377075
1772790188872482600,22.182482666015623,0.9310328364372253,2.2655324935913086,1.0305730104446411
1772790188892518400,22.202518310546875,0.782669723033905,1.934442400932312,1.4642280340194702
1772790188912553200,22.22255322265625,0.4740634560585022,1.2130203247070312,1.500764012336731
1772790188932589600,22.242589599609374,0.197963684797287,0.6942189931869507,1.0714768171310425
1772790188952624400,22.262624267578126,0.20298214256763458,0.6165897250175476,0.46650779247283936
1772790188972660200,22.28266015625,0.4647327959537506,0.8046025037765503,0.35148346424102783
1772790188992695300,22.3026953125,0.7091870307922363,0.925829291343689,0.5391415357589722
1772790189012730400,22.32273046875,0.8998741507530212,0.7502148747444153,0.516893208026886
1772790189032766500,22.342766357421876,1.0145869255065918,0.5555332899093628,0.29711395502090454
1772790189052801300,22.36280126953125,0.9909704923629761,0.3509412407875061,0.12045823782682419
1772790189072837400,22.38283740234375,0.8578393459320068,0.22758175432682037,0.13075853884220123
1772790189092872400,22.40287255859375,0.7696916460990906,0.26300713419914246,0.27350983023643494
1772790189112908300,22.422908203125,0.7933114767074585,0.10996884107589722,0.4343818128108978
1772790189132943400,22.442943359375,0.8278231024742126,-0.04060308635234833,0.29822370409965515
1772790189152978400,22.462978515625,0.8684517741203308,-0.20047664642333984,-0.021210214123129845
1772790189173014500,22.4830146484375,0.8866866827011108,-0.32276687026023865,-0.31478431820869446
1772790189193049300,22.50304931640625,0.8282098174095154,-0.48973748087882996,-0.41319531202316284
1772790189213085400,22.52308544921875,0.7258895635604858,-0.5264318585395813,-0.33746033906936646
1772790189233120500,22.54312060546875,0.6449071168899536,-0.3946610391139984,-0.1305721253156662
1772790189253156400,22.56315625,0.5912430882453918,-0.2549920678138733,-0.013304087333381176
1772790189273191400,22.58319140625,0.5701489448547363,-0.15033437311649323,-0.1395304650068283
1772790189293227500,22.6032275390625,0.4525317847728729,-0.13047651946544647,-0.1733374297618866
1772790189313262300,22.623262451171875,0.3310181498527527,-0.05391383171081543,-0.12746074795722961
1772790189333297400,22.64329736328125,0.23579202592372894,0.06524398177862167,-0.04723089560866356
1772790189353333500,22.66333349609375,0.2317754477262497,0.18680477142333984,0.11801692098379135
1772790189373368600,22.68336865234375,0.23762480914592743,0.22776098549365997,0.2126701921224594
1772790189393404400,22.703404296875,0.22665737569332123,0.13778875768184662,0.05613970011472702
1772790189413439500,22.723439453125,0.18147099018096924,0.015153652988374233,-0.22761957347393036
1772790189433475600,22.7434755859375,0.06402266025543213,0.031194403767585754,-0.31775426864624023
1772790189453510400,22.763510498046877,-0.11045460402965546,0.037204891443252563,-0.2365158647298813
1772790189473545200,22.783545166015625,-0.05696474760770798,-0.2537965774536133,-0.22661583125591278
1772790189493581600,22.80358154296875,0.19646058976650238,-0.43803247809410095,-0.6598050594329834
1772790189513616400,22.823616455078124,0.42042019963264465,-0.23440957069396973,-1.2084969282150269
1772790189533652200,22.84365234375,0.6599286794662476,0.09236002713441849,-1.6951390504837036
1772790189553687300,22.863687255859375,1.4914895296096802,0.32999974489212036,-1.870552897453308
1772790189573723400,22.883723388671875,1.344245433807373,0.028544293716549873,-1.0086512565612793
1772790189593758500,22.903758544921875,0.5618356466293335,0.02274206466972828,-0.26863783597946167
1772790189613794300,22.923794189453126,-0.3597046434879303,0.18369899690151215,0.29161587357521057
1772790189633829400,22.943829345703126,-0.7177363038063049,0.3388307988643646,0.5009704232215881
1772790189653864400,22.963864501953125,-0.6786357760429382,0.14119014143943787,0.4845171570777893
1772790189673900300,22.983900390625,-0.784841001033783,0.14619049429893494,0.44461527466773987
1772790189693935400,23.003935302734376,-0.9404751062393188,0.06525703519582748,0.4134344458580017
1772790189713971500,23.023971435546876,-0.8174229264259338,-0.667144238948822,0.322294682264328
1772790189734006500,23.044006591796876,-0.3463398218154907,-1.1247730255126953,0.1681962013244629
1772790189754042400,23.06404248046875,-0.19748510420322418,-1.19286048412323,-0.23044492304325104
1772790189774077400,23.084077392578124,-0.16627658903598785,-1.0743393898010254,-0.8388347625732422
1772790189794112500,23.104112548828127,-0.0316024012863636,0.18220283091068268,-1.4182398319244385
1772790189814148400,23.1241484375,-0.04164251685142517,0.505765438079834,-1.1896897554397583
1772790189834183400,23.144183349609374,0.015146994963288307,0.6610325574874878,-0.57337886095047
1772790189854219500,23.164219482421874,0.08352818340063095,0.7657216787338257,-0.09973378479480743
1772790189874254600,23.184254638671874,0.0666986033320427,1.1090936660766602,0.1427702009677887
1772790189894290400,23.20429052734375,0.0639832466840744,1.3644202947616577,0.0819862112402916
1772790189914325500,23.224325439453125,0.047934237867593765,1.4527910947799683,0.1809692531824112
1772790189934360300,23.2443603515625,0.09519336372613907,1.0822833776474,0.19649282097816467
1772790189954396400,23.264396484375,0.10540152341127396,0.7943509221076965,0.046490803360939026
1772790189974431200,23.28443115234375,0.187260702252388,0.8829329609870911,-0.15443217754364014
1772790189994467300,23.30446728515625,0.40625643730163574,1.3259204626083374,-0.38944974541664124
1772790190014502400,23.32450244140625,0.6651313900947571,1.7619798183441162,-0.6291942000389099
1772790190034538200,23.344538330078127,0.7371973395347595,2.038774013519287,-0.7743985056877136
1772790190054573300,23.3645732421875,0.6970411539077759,2.1105120182037354,-0.8414430618286133
1772790190074608400,23.3846083984375,0.4905087351799011,1.8310627937316895,-0.771828830242157
1772790190094644200,23.404644287109374,0.2569175362586975,1.6445599794387817,-0.6165526509284973
1772790190114679300,23.42467919921875,0.3755967915058136,1.761530876159668,-0.44089803099632263
1772790190134715400,23.44471533203125,0.6922407746315002,2.305722951889038,-0.20790819823741913
1772790190154750500,23.46475048828125,0.921493411064148,3.0024003982543945,0.18044593930244446
1772790190174786300,23.484786376953124,0.9579116106033325,3.520854949951172,0.6462628841400146
1772790190194821400,23.5048212890625,0.806498646736145,4.070090293884277,0.9252429008483887
1772790190214856400,23.5248564453125,0.6018203496932983,4.5228142738342285,1.0273505449295044
1772790190234892300,23.544892333984375,0.2396536022424698,5.145142555236816,0.9249696135520935
1772790190254927400,23.56492724609375,-0.18354825675487518,5.764046669006348,0.7037981152534485
1772790190274963500,23.58496337890625,-0.5171331763267517,6.342827320098877,0.6986675262451172
1772790190294998500,23.60499853515625,-0.8528125882148743,6.712193012237549,0.9985104203224182
1772790190315034400,23.625034423828126,-1.2291254997253418,6.978453159332275,1.6387311220169067
1772790190335069400,23.6450693359375,-1.7010384798049927,6.919138431549072,2.513845682144165
1772790190355104500,23.6651044921875,-2.2674076557159424,6.586911678314209,3.4452245235443115
1772790190375140400,23.685140380859377,-3.102156639099121,6.0367512702941895,4.112253189086914
1772790190395175400,23.705175537109376,-4.074902534484863,4.971851348876953,4.391635417938232
1772790190415211500,23.72521142578125,-4.943955898284912,3.4082138538360596,3.9944229125976562
1772790190435246600,23.74524658203125,-5.668025970458984,1.7653237581253052,2.9338221549987793
1772790190455281400,23.765281494140623,-6.046981334686279,0.18053436279296875,1.4067506790161133
1772790190475317500,23.7853173828125,-6.087762355804443,-1.0674996376037598,-0.3078068196773529
1772790190495352300,23.805352294921875,-6.293376445770264,-1.5623828172683716,-1.6434409618377686
1772790190515388400,23.825388427734374,-6.459471702575684,-1.9906867742538452,-2.431913375854492
1772790190535423200,23.84542333984375,-6.223809719085693,-2.3838882446289062,-2.763373374938965
1772790190555459300,23.865459228515626,-5.457098484039307,-2.6324572563171387,-2.7576942443847656
1772790190575494400,23.885494384765625,-4.310588359832764,-2.6593923568725586,-2.511091470718384
1772790190595529200,23.905529296875,-3.107405424118042,-2.4683139324188232,-2.0673787593841553
1772790190615565000,23.92556494140625,-1.9219911098480225,-2.158060312271118,-1.4253158569335938
1772790190635600100,23.94560009765625,-1.034546136856079,-2.0272879600524902,-0.7003602385520935
1772790190655636000,23.965635986328124,-0.5892853736877441,-1.7533890008926392,-0.09208624809980392
1772790190675671000,23.985671142578123,-0.3896462917327881,-1.4394854307174683,0.24209119379520416
1772790190695706000,24.0057060546875,-0.3801760971546173,-1.2062335014343262,0.24873365461826324
1772790190715742200,24.0257421875,-0.41285866498947144,-1.0320830345153809,-0.014357900246977806
1772790190735777000,24.045777099609374,-0.3550419807434082,-1.0627399682998657,-0.5018258094787598
1772790190755813000,24.065813232421874,-0.18349605798721313,-1.2497080564498901,-1.0716322660446167
1772790190775848200,24.08584814453125,-0.36013713479042053,-1.1938426494598389,-1.631014347076416
1772790190795884000,24.105884033203125,-1.2148488759994507,-1.3766568899154663,-1.8747868537902832
1772790190815919000,24.125919189453125,-1.9945513010025024,-1.6500272750854492,-1.771101474761963
1772790190835954000,24.145953857421876,-2.4083542823791504,-1.9219250679016113,-1.6551191806793213
1772790190855990000,24.165989990234376,-2.6329243183135986,-1.7705395221710205,-1.5011190176010132
1772790190876025000,24.186025146484376,-2.814906120300293,-1.202964186668396,-1.4383591413497925
1772790190896061000,24.20606103515625,-2.5723180770874023,-0.8144955635070801,-1.1975284814834595
1772790190916096000,24.226095947265627,-1.9650176763534546,-0.808146595954895,-0.7080418467521667
1772790190936131800,24.2461318359375,-1.0029267072677612,-0.5000265836715698,-0.21469739079475403
1772790190956167000,24.2661669921875,0.061154432594776154,-0.06792978197336197,0.16571146249771118
1772790190976202000,24.286201904296874,1.077185034751892,0.6052291989326477,0.34254083037376404
1772790190996238000,24.306238037109374,1.7332481145858765,0.7961639761924744,0.1957431435585022
1772790191016273000,24.32627294921875,2.1041853427886963,0.5445778369903564,0.19156436622142792
1772790191036309000,24.34630908203125,2.3188905715942383,0.3443315327167511,0.5192024111747742
1772790191056344000,24.366343994140625,2.6308934688568115,0.6031479239463806,0.22255398333072662
1772790191076379100,24.386379150390624,2.5662119388580322,0.6868705153465271,-0.6058440804481506
1772790191096415000,24.4064150390625,2.246845006942749,0.8008596897125244,-1.225897192955017
1772790191116450000,24.426449951171875,2.061263084411621,1.0685691833496094,-1.2902933359146118
1772790191136486100,24.446486083984375,2.4768543243408203,1.1255229711532593,-0.9550609588623047
1772790191156521000,24.46652099609375,3.6410679817199707,1.1094324588775635,-0.454282283782959
1772790191176556000,24.48655615234375,4.953372955322266,2.4114630222320557,0.3728739619255066
1772790191196592000,24.506592041015626,4.6203532218933105,4.172296524047852,1.2512348890304565
1772790191216627200,24.526627197265626,3.7914700508117676,4.108865737915039,1.9654501676559448
1772790191236663000,24.5466630859375,2.651350736618042,3.743147134780884,1.9470621347427368
1772790191256698000,24.566697998046877,1.3893266916275024,2.919066905975342,1.3197896480560303
1772790191276734200,24.586734130859377,0.12903495132923126,1.1141672134399414,0.3864459693431854
1772790191296769000,24.60676904296875,-0.8286678791046143,-0.6574404835700989,-0.4935964047908783
1772790191316803800,24.626803955078124,-1.5246740579605103,-2.1113908290863037,-0.8508796691894531
1772790191336840200,24.646840087890624,-1.8840969800949097,-2.726638078689575,-0.7078964710235596
1772790191356875000,24.666875,-1.7813602685928345,-2.7398855686187744,-0.47729039192199707
1772790191376910800,24.686910888671875,-1.4424793720245361,-2.159747838973999,-0.719598650932312
1772790191396946000,24.70694580078125,-0.9013330340385437,-1.3492047786712646,-1.2074756622314453
1772790191416981000,24.72698095703125,-0.40528544783592224,-0.755917489528656,-1.3963207006454468
1772790191437017000,24.74701708984375,0.06967122107744217,-0.3380454182624817,-1.3765807151794434
1772790191457052000,24.767052001953125,0.4441923499107361,-0.12804478406906128,-1.2547475099563599
1772790191477088000,24.787087890625,0.7754136919975281,-0.15397518873214722,-1.038336992263794
1772790191497123000,24.807123046875,1.1139153242111206,-0.32810917496681213,-0.8879770040512085
1772790191517158100,24.827158203125,1.4075738191604614,-0.5270651578903198,-0.892950177192688
1772790191537194000,24.847194091796876,1.7057509422302246,-0.8255069851875305,-0.971258819103241
1772790191557229000,24.86722900390625,1.8487986326217651,-1.1056890487670898,-0.9314427375793457
1772790191577265200,24.88726513671875,1.7658140659332275,-1.3477965593338013,-0.7138960361480713
1772790191597300000,24.907300048828127,1.3631073236465454,-1.462577223777771,-0.3635915219783783
1772790191617335000,24.9273349609375,0.6562742590904236,-1.5169613361358643,-0.08902521431446075
1772790191637371100,24.94737109375,0.1609577238559723,-1.209656000137329,-0.18969030678272247
1772790191657406200,24.96740625,-0.25668424367904663,-1.3454761505126953,-0.21519432961940765
1772790191677442000,24.987442138671874,-0.4666827619075775,-1.0498840808868408,0.03845178335905075
1772790191697477000,25.00747705078125,-1.0983270406723022,-0.6252947449684143,0.47933170199394226
1772790191717513000,25.027512939453125,-1.7432887554168701,-0.2793852984905243,0.9962824583053589
1772790191737548000,25.047548095703124,-2.3181145191192627,-0.30637669563293457,1.4182376861572266
1772790191757583000,25.0675830078125,-2.7895984649658203,-0.7020859718322754,1.8798450231552124
