time,seconds_elapsed,z,y,x
1772790166758289400,0.068289306640625,1.1233627796173096,1.401908040046692,-0.6456266641616821
1772790166778324500,0.088324462890625,1.1054248809814453,1.3482563495635986,-0.7041300535202026
1772790166798360300,0.1083603515625,1.0432876348495483,0.8418903350830078,-0.5203968286514282
1772790166818395100,0.12839501953125,1.048461675643921,0.5206372141838074,-0.4494154751300812
1772790166838431200,0.14843115234375,1.0834901332855225,0.18706165254116058,-0.2545211613178253
1772790166858466000,0.168466064453125,1.1360156536102295,0.26761987805366516,-0.17244580388069153
1772790166878502400,0.18850244140625,0.8104017376899719,0.6539741158485413,-0.3799835741519928
1772790166898538200,0.208538330078125,0.2858491539955139,0.9405407905578613,-0.6653851270675659
1772790166918573000,0.228572998046875,0.1790730208158493,0.5034099221229553,-0.67637038230896
1772790166938609400,0.248609375,0.2265615016222,0.10898547619581223,-0.44765833020210266
1772790166958644200,0.268644287109375,0.33601993322372437,-0.19259510934352875,-0.45053595304489136
1772790166978680000,0.28868017578125,0.3824160397052765,-0.3541114628314972,-0.5961541533470154
1772790166998715100,0.308715087890625,0.34510722756385803,-0.38834667205810547,-0.7038708329200745
1772790167018751200,0.328751220703125,0.25930503010749817,-0.26594603061676025,-0.7305274605751038
1772790167038786000,0.3487861328125,0.2938994765281677,-0.14924372732639313,-0.7786266803741455
1772790167058822100,0.368822265625,0.5626100301742554,-0.28307750821113586,-0.923963189125061
1772790167078858200,0.388858154296875,0.9431406259536743,-0.5005528330802917,-0.6231639385223389
1772790167098893000,0.40889306640625,0.8887897729873657,-0.49107837677001953,0.2011016607284546
1772790167118929200,0.42892919921875,0.45933640003204346,-0.37877127528190613,1.0107256174087524
1772790167138964200,0.448964111328125,0.34818342328071594,0.031404491513967514,1.3931618928909302
1772790167159000000,0.469,0.8627028465270996,0.5738979578018188,1.0477455854415894
1772790167179035100,0.48903515625,1.2361000776290894,0.474323570728302,0.40553855895996094
1772790167199071200,0.5090712890625,1.2311304807662964,0.4440058469772339,-0.017398422583937645
1772790167219107000,0.529107177734375,1.1650580167770386,0.6585484743118286,0.033736467361450195
1772790167239142100,0.54914208984375,1.1702264547348022,1.1244438886642456,0.27519920468330383
1772790167259178200,0.56917822265625,1.3805960416793823,1.6099578142166138,0.4669397473335266
1772790167279213300,0.58921337890625,1.651789903640747,2.051051378250122,0.6045143604278564
1772790167299249200,0.609249267578125,1.7122350931167603,2.782949686050415,0.46256232261657715
1772790167319284200,0.6292841796875,1.3740909099578857,3.068445920944214,0.15791192650794983
1772790167339320000,0.649320068359375,0.8631998896598816,2.9656906127929688,-0.40596136450767517
1772790167359356200,0.669356201171875,0.12293997406959534,3.610499858856201,-0.9938020706176758
1772790167379391200,0.68939111328125,-0.6725447773933411,3.983360767364502,-1.4206898212432861
1772790167399427000,0.709427001953125,-0.6318578124046326,3.8594746589660645,-1.66561758518219
1772790167419462100,0.729462158203125,-0.6344954967498779,4.3008928298950195,-1.7469741106033325
1772790167439498200,0.749498291015625,-1.1063103675842285,4.784276008605957,-1.5580074787139893
1772790167459533300,0.769533203125,-1.7459077835083008,4.782020092010498,-1.2883739471435547
1772790167479569200,0.789569091796875,-2.304332971572876,5.068241119384766,-1.1253913640975952
1772790167499604200,0.809604248046875,-2.8872976303100586,5.470541000366211,-1.0495259761810303
1772790167519640300,0.829640380859375,-3.142564296722412,5.8263773918151855,-1.2461507320404053
1772790167539676200,0.84967626953125,-3.1226885318756104,6.987502574920654,-1.679714322090149
1772790167559711200,0.869711181640625,-3.2972612380981445,8.274670600891113,-1.7053987979888916
1772790167579747300,0.889747314453125,-4.033250331878662,8.699511528015137,-1.1631205081939697
1772790167599782100,0.9097822265625,-5.037952899932861,8.456517219543457,-0.527633786201477
1772790167619818200,0.929818359375,-6.085455417633057,8.338507652282715,-0.34676241874694824
1772790167639853300,0.949853271484375,-6.8168206214904785,8.346959114074707,-0.040232643485069275
1772790167659889200,0.96988916015625,-7.296517848968506,8.267599105834961,1.2159899473190308
1772790167679924200,0.98992431640625,-7.645309925079346,7.483589172363281,3.6639113426208496
1772790167699960300,1.009960205078125,-7.580056190490723,5.5922532081604,6.041898250579834
1772790167719995100,1.0299951171875,-7.15419340133667,2.754082441329956,7.1604695320129395
1772790167740031200,1.05003125,-6.486001491546631,-0.5986278057098389,6.93831729888916
1772790167760067300,1.0700673828125,-5.793713092803955,-3.2748944759368896,5.935959339141846
1772790167780102100,1.09010205078125,-5.341980934143066,-4.315985679626465,4.916285037994385
1772790167800138200,1.11013818359375,-4.286561012268066,-4.062504768371582,4.1642022132873535
1772790167820173300,1.13017333984375,-2.1122384071350098,-4.0503621101379395,3.689060926437378
1772790167840209200,1.150209228515625,-0.05724161118268967,-3.62640118598938,2.9654531478881836
1772790167860244200,1.170244140625,1.5790973901748657,-3.226966619491577,1.587525725364685
1772790167880280300,1.1902802734375,2.9604432582855225,-2.9728970527648926,-0.33896833658218384
1772790167900315400,1.2103154296875,4.063450813293457,-2.659299612045288,-2.3897016048431396
1772790167920351200,1.230351318359375,4.35374641418457,-2.722954034805298,-4.133240222930908
1772790167940386300,1.25038623046875,3.748338460922241,-3.613286256790161,-5.154901027679443
1772790167960422400,1.27042236328125,2.2945351600646973,-4.900423526763916,-5.504241943359375
1772790167980458200,1.290458251953125,0.6756958961486816,-5.961730480194092,-5.422435760498047
1772790168000493300,1.310493408203125,-0.36772555112838745,-6.121182441711426,-5.361111164093018
1772790168020529200,1.330529052734375,-1.2367380857467651,-5.830721855163574,-5.102294445037842
1772790168040564200,1.350564208984375,-1.6990107297897339,-5.27869176864624,-4.598660469055176
1772790168060600300,1.370600341796875,-1.7324328422546387,-4.580460548400879,-4.089929103851318
1772790168080635400,1.390635498046875,-1.3952919244766235,-3.6741535663604736,-3.6804115772247314
1772790168100671200,1.410671142578125,-1.0783476829528809,-2.6002631187438965,-3.233625650405884
1772790168120706300,1.430706298828125,-1.169930338859558,-1.61381995677948,-2.474026918411255
1772790168140742400,1.450742431640625,-1.2962610721588135,-0.9793353080749512,-1.65447998046875
1772790168160777200,1.470777099609375,-1.4912285804748535,-0.10209924727678299,-0.8831067085266113
1772790168180813300,1.490813232421875,-1.685032844543457,0.6053287386894226,0.18692287802696228
1772790168200849400,1.510849365234375,-1.555026888847351,0.9583534002304077,1.4279636144638062
1772790168220884200,1.53088427734375,-1.007882833480835,0.8964127898216248,2.4823286533355713
1772790168240920300,1.55092041015625,-0.275289386510849,0.7182565927505493,3.206153631210327
1772790168260955400,1.570955322265625,0.38975852727890015,0.7600947022438049,3.336864709854126
1772790168280991200,1.5909912109375,0.8968802690505981,0.9831615686416626,2.9257991313934326
1772790168301026300,1.6110263671875,1.10686194896698,1.2725410461425781,2.2258200645446777
1772790168321062400,1.6310625,1.2658288478851318,1.067941427230835,1.5128180980682373
1772790168341097500,1.651097412109375,1.5296748876571655,0.5215287804603577,0.8216386437416077
1772790168361133300,1.67113330078125,1.8017687797546387,0.1314215362071991,0.15217430889606476
1772790168381168400,1.69116845703125,1.9933165311813354,-0.1112229973077774,-0.15718311071395874
1772790168401204200,1.711204345703125,2.021549701690674,-0.2198648750782013,-0.16741974651813507
1772790168421240300,1.731240234375,1.980941653251648,0.06595227867364883,-0.1687261015176773
1772790168441275400,1.751275390625,1.8269715309143066,0.6187053322792053,-0.07626856118440628
1772790168461311200,1.771311279296875,1.7392703294754028,1.332943081855774,0.22021014988422394
1772790168481346300,1.79134619140625,1.806095838546753,2.1141700744628906,0.6655008792877197
1772790168501382400,1.81138232421875,1.84395432472229,3.0182113647460938,1.2126927375793457
1772790168521417200,1.831417236328125,1.7687159776687622,3.8067879676818848,1.74608314037323
1772790168541453300,1.851453369140625,1.6016168594360352,4.407454967498779,2.071906805038452
1772790168561488100,1.871488037109375,1.4513229131698608,4.761236667633057,2.149580478668213
1772790168581524200,1.891524169921875,1.4192097187042236,4.813295841217041,1.985802412033081
1772790168601559300,1.911559326171875,1.5390020608901978,4.506870269775391,1.6179291009902954
1772790168621595600,1.931595703125,1.7457520961761475,4.119539260864258,1.1286619901657104
1772790168641631500,1.951631591796875,2.038172483444214,3.488915205001831,0.5653528571128845
1772790168661666300,1.971666259765625,2.270453691482544,2.6978085041046143,-0.035478588193655014
1772790168681702700,1.99170263671875,2.433243989944458,1.8572044372558594,-0.647136926651001
1772790168701737500,2.011737548828125,2.511120557785034,0.9735051989555359,-1.2061508893966675
1772790168721773300,2.031773193359375,2.5203471183776855,0.07938572764396667,-1.6203649044036865
1772790168741808400,2.051808349609375,2.4595963954925537,-0.7686712741851807,-1.8730641603469849
1772790168761844500,2.071844482421875,2.3639931678771973,-1.5951238870620728,-2.0240461826324463
1772790168781879600,2.091879638671875,2.3264403343200684,-2.395843505859375,-2.115185260772705
1772790168801915400,2.111915283203125,2.3615386486053467,-3.147061586380005,-2.031646490097046
1772790168821950500,2.131950439453125,2.3066112995147705,-3.800950050354004,-1.7040464878082275
1772790168841986300,2.151986328125,2.172283887863159,-4.333115577697754,-1.205137014389038
1772790168862021400,2.172021484375,2.1215012073516846,-4.666878700256348,-0.7295660376548767
1772790168882057500,2.192057373046875,2.208183526992798,-4.643823623657227,-0.4162576496601105
1772790168902093300,2.21209326171875,2.3726468086242676,-4.43330192565918,-0.09419910609722137
1772790168922128400,2.23212841796875,2.317812442779541,-4.131516933441162,0.3332001268863678
1772790168942164500,2.25216455078125,1.7968573570251465,-3.53939151763916,0.7465915679931641
1772790168962199600,2.272199462890625,0.7895248532295227,-2.6405811309814453,0.8164765238761902
1772790168982235400,2.2922353515625,-0.43359220027923584,-1.8604882955551147,0.48183295130729675
1772790169002270500,2.3122705078125,-1.7033814191818237,-1.0823557376861572,0.1976742297410965
1772790169022306600,2.332306640625,-2.846433639526367,-0.33287733793258667,0.30039116740226746
1772790169042341400,2.35234130859375,-3.7954490184783936,0.3742407560348511,0.6952293515205383
1772790169062377500,2.37237744140625,-4.598372459411621,1.067884922027588,1.1257752180099487
1772790169082412500,2.39241259765625,-5.275789260864258,1.3766072988510132,1.2650439739227295
1772790169102448400,2.412448486328125,-5.74311637878418,1.4782874584197998,0.975970447063446
1772790169122483500,2.4324833984375,-6.01392936706543,1.4760150909423828,0.3486021161079407
1772790169142519600,2.45251953125,-6.093584060668945,1.6136304140090942,-0.5578160285949707
1772790169162555400,2.472555419921875,-5.985811233520508,2.021588087081909,-1.5626375675201416
1772790169182590500,2.492590576171875,-5.531643390655518,2.497739315032959,-2.123756170272827
1772790169202626600,2.51262646484375,-5.071632385253906,2.925567388534546,-1.8949620723724365
1772790169222661400,2.532661376953125,-4.483304023742676,3.186427354812622,-1.144072413444519
1772790169242697500,2.552697509765625,-3.445068120956421,2.961843729019165,-0.41211065649986267
1772790169262732500,2.572732666015625,-1.9699496030807495,2.1262803077697754,-0.09160128235816956
1772790169282768400,2.592768310546875,-0.5516715049743652,1.2477612495422363,-0.2958914637565613
1772790169302803500,2.612803466796875,0.7401988506317139,0.34967222809791565,-0.906385600566864
1772790169322839600,2.632839599609375,1.7582470178604126,-0.5145696997642517,-1.6921215057373047
1772790169342874600,2.65287451171875,2.3158514499664307,-1.5408636331558228,-2.3775081634521484
1772790169362910500,2.672910400390625,2.4868288040161133,-2.622277021408081,-2.821126937866211
1772790169382945500,2.692945556640625,2.201018810272217,-3.6291916370391846,-3.0284578800201416
1772790169402981600,2.712981689453125,1.5719587802886963,-4.471794128417969,-3.0380542278289795
1772790169423017500,2.733017578125,0.7647963762283325,-5.078500747680664,-2.942997932434082
1772790169443052500,2.753052490234375,-0.08052359521389008,-5.327556610107422,-2.834249496459961
1772790169463088600,2.773088623046875,-0.7837518453598022,-5.130029678344727,-2.721996784210205
1772790169483123500,2.79312353515625,-1.2664990425109863,-4.5170416831970215,-2.5781617164611816
1772790169503159600,2.81315966796875,-1.559699535369873,-3.70670485496521,-2.338901996612549
1772790169523194600,2.833194580078125,-1.6806092262268066,-2.7655985355377197,-2.0083141326904297
1772790169543230500,2.85323046875,-1.6961963176727295,-1.6289982795715332,-1.5771682262420654
1772790169563265500,2.873265625,-1.7956749200820923,-0.4979301393032074,-1.0499125719070435
1772790169583301600,2.893301513671875,-2.1666815280914307,0.5416436195373535,-0.3810325860977173
1772790169603336000,2.9133359375,-2.5151684284210205,1.897966980934143,0.11301179975271225
1772790169623371800,2.933371826171875,-2.8193628787994385,3.3607378005981445,-0.15174810588359833
1772790169643406800,2.95340673828125,-2.858055591583252,4.255377292633057,-0.8991823792457581
1772790169663443000,2.97344287109375,-2.1483049392700195,3.9802918434143066,-1.5989880561828613
1772790169683478800,2.993478759765625,-0.863899290561676,2.2276172637939453,-1.9249632358551025
1772790169703513900,3.013513916015625,0.4667891263961792,-1.4011528491973877,-1.685630202293396
1772790169723550000,3.033550048828125,1.271409511566162,-3.7698962688446045,-1.5724250078201294
1772790169743584800,3.053584716796875,1.370905876159668,-2.652628183364868,-1.7661316394805908
1772790169763620900,3.073620849609375,1.6659170389175415,-0.6113733649253845,-1.707769513130188
1772790169783656000,3.093656005859375,2.804033041000366,0.8696938157081604,-0.9836639761924744
1772790169803691800,3.11369189453125,3.907749652862549,2.1347815990448,-0.10841158777475357
1772790169823726800,3.133726806640625,4.714711666107178,2.9589316844940186,0.840103805065155
1772790169843763000,3.153762939453125,5.017147541046143,3.3211376667022705,1.9598662853240967
1772790169863798000,3.173798095703125,4.793052673339844,3.3149609565734863,2.993333578109741
1772790169883833900,3.193833740234375,4.209287643432617,3.1803479194641113,3.8339951038360596
1772790169903869000,3.213868896484375,3.214820384979248,2.892829656600952,4.605729579925537
1772790169923904800,3.23390478515625,2.0088329315185547,2.2091848850250244,5.174392223358154
1772790169943940900,3.25394091796875,1.0315698385238647,1.2330065965652466,5.274177074432373
1772790169963976000,3.273975830078125,0.454397976398468,0.4670701324939728,4.808948516845703
1772790169984011800,3.29401171875,0.20437312126159668,0.09234775602817535,3.9710636138916016
1772790170004046800,3.314046875,0.2711266279220581,0.2963143587112427,3.0014140605926514
1772790170024083000,3.3340830078125,0.4590027332305908,0.8491675853729248,2.098951578140259
1772790170044118000,3.354117919921875,0.5348032712936401,1.4575161933898926,1.3616766929626465
1772790170064153900,3.37415380859375,0.5767265558242798,2.007611036300659,0.8101698756217957
1772790170084189000,3.39418896484375,0.6259675025939941,2.468463897705078,0.26364174485206604
1772790170104225000,3.41422509765625,0.6963147521018982,2.7460527420043945,-0.29819241166114807
1772790170124259800,3.434259765625,0.7954801321029663,2.9062137603759766,-0.8492727875709534
1772790170144296000,3.4542958984375,0.8821839690208435,2.801285982131958,-1.389068365097046
1772790170164331000,3.4743310546875,0.996963620185852,2.3559017181396484,-1.858212947845459
1772790170184366800,3.494366943359375,1.1309562921524048,1.5113197565078735,-2.2406537532806396
1772790170204403000,3.51440283203125,1.2545746564865112,0.4694894850254059,-2.4955883026123047
1772790170224438000,3.53443798828125,1.3635631799697876,-0.7801238894462585,-2.596163511276245
1772790170244473900,3.554473876953125,1.509880542755127,-2.1732983589172363,-2.5226070880889893
1772790170264509000,3.574509033203125,1.6869841814041138,-3.31724214553833,-2.4182095527648926
1772790170284545000,3.594544921875,1.862903118133545,-3.9554085731506348,-2.3084118366241455
1772790170304580000,3.614580078125,1.9554706811904907,-3.8265366554260254,-1.763087511062622
1772790170324616000,3.634615966796875,1.5256398916244507,-2.873030424118042,-0.5334466695785522
1772790170344651000,3.654651123046875,0.7331752777099609,-1.467551827430725,0.928260862827301
1772790170364686800,3.674686767578125,0.15755368769168854,-0.3659633696079254,2.052119493484497
1772790170384722000,3.694721923828125,0.025655319914221764,0.26105907559394836,2.564922571182251
1772790170404758000,3.714758056640625,0.16499599814414978,0.2212696373462677,2.638695001602173
1772790170424792800,3.734792724609375,0.2512737512588501,-0.1562415212392807,2.3961050510406494
1772790170444829000,3.754828857421875,0.22050276398658752,-0.6665950417518616,1.9351075887680054
1772790170464863700,3.77486376953125,-0.10545025765895844,-1.2766300439834595,1.3541505336761475
1772790170484899800,3.79489990234375,-0.7441316246986389,-1.5906591415405273,0.7542327046394348
1772790170504936000,3.81493603515625,-1.3053163290023804,-1.7435247898101807,0.0919133797287941
1772790170524970800,3.834970703125,-1.6519500017166138,-1.6832094192504883,-0.4917009770870209
1772790170545007000,3.855007080078125,-1.906600832939148,-1.3485803604125977,-0.8821466565132141
1772790170565041700,3.875041748046875,-2.037520408630371,-0.9122036695480347,-1.072838306427002
1772790170585077800,3.895077880859375,-2.0052528381347656,-0.4747345745563507,-1.0714412927627563
1772790170605113600,3.915113525390625,-1.9197899103164673,-0.13472720980644226,-0.8609967827796936
1772790170625149400,3.9351494140625,-1.8412725925445557,0.023438481613993645,-0.492659330368042
1772790170645184500,3.9551845703125,-1.7621876001358032,0.11013163626194,-0.06883770227432251
1772790170665220600,3.975220703125,-1.616287350654602,0.2347240149974823,0.27600473165512085
1772790170685255400,3.99525537109375,-1.4403736591339111,0.2815888822078705,0.46339818835258484
1772790170705291500,4.01529150390625,-1.289231300354004,0.34799274802207947,0.5073962211608887
1772790170725326600,4.03532666015625,-1.1493406295776367,0.3132742941379547,0.4099667966365814
1772790170745362400,4.055362548828125,-0.9979914426803589,0.18498776853084564,0.23425239324569702
1772790170765398500,4.0753984375,-0.8452775478363037,-0.044594548642635345,-0.007861900143325329
1772790170785433600,4.09543359375,-0.7483218908309937,-0.40589869022369385,-0.3276008665561676
1772790170805469400,4.115469482421875,-0.6686723828315735,-0.7615534067153931,-0.6857900023460388
1772790170825504500,4.13550439453125,-0.664047360420227,-1.0835061073303223,-1.018902063369751
1772790170845540600,4.15554052734375,-0.7774759531021118,-1.3091840744018555,-1.232180118560791
1772790170865575400,4.175575439453125,-0.9563708901405334,-1.5141313076019287,-1.2941770553588867
1772790170885611500,4.195611572265625,-1.1912853717803955,-1.689945936203003,-1.276199221611023
1772790170905646600,4.215646484375,-1.3631001710891724,-1.591230869293213,-1.216843605041504
1772790170925682400,4.235682373046875,-1.330954909324646,-1.2481926679611206,-1.374967336654663
1772790170945717500,4.255717529296875,-1.267828345298767,-0.5338481068611145,-1.5929443836212158
1772790170965753600,4.275753662109375,-1.3540546894073486,0.30183714628219604,-1.388756275177002
1772790170985788700,4.29578857421875,-1.4398984909057617,0.8831368684768677,-0.6856945157051086
1772790171005824500,4.315824462890625,-1.290751338005066,1.3643414974212646,0.11806586384773254
1772790171025860600,4.335860595703125,-0.782766580581665,1.7339848279953003,0.6941353678703308
1772790171045895700,4.355895751953125,0.0347728505730629,1.8782250881195068,1.0913084745407104
1772790171065931500,4.375931640625,0.9725680351257324,1.7788722515106201,1.4031623601913452
1772790171085966600,4.395966552734375,1.8176987171173096,1.7036864757537842,1.5618691444396973
1772790171106002700,4.416002685546875,2.3977253437042236,1.7415517568588257,1.5394999980926514
1772790171126037500,4.43603759765625,2.7036075592041016,1.7684767246246338,1.4428316354751587
1772790171146073600,4.456073486328125,2.797010660171509,1.9150164127349854,1.355717420578003
1772790171166108700,4.476108642578125,2.7475147247314453,2.0791893005371094,1.3184977769851685
1772790171186144500,4.49614453125,2.621159315109253,2.2842652797698975,1.3241446018218994
1772790171206179600,4.5161796875,2.4969358444213867,2.426326036453247,1.3239878416061401
1772790171226215700,4.536215576171875,2.4343318939208984,2.480351448059082,1.3254117965698242
1772790171246250800,4.556250732421875,2.4847307205200195,2.399667739868164,1.2514193058013916
1772790171266286600,4.57628662109375,2.586533308029175,2.1805944442749023,1.1258270740509033
1772790171286321700,4.59632177734375,2.66113018989563,1.9495413303375244,0.9807259440422058
1772790171306357500,4.616357421875,2.631211757659912,1.6086971759796143,0.7755224108695984
1772790171326393600,4.6363935546875,2.4546163082122803,1.2709447145462036,0.531464695930481
1772790171346428700,4.6564287109375,2.1738147735595703,0.8586843013763428,0.2134568840265274
1772790171366464500,4.676464599609375,1.899256706237793,0.3358990252017975,-0.16511651873588562
1772790171386499600,4.69649951171875,1.621756672859192,-0.08482097834348679,-0.5428478717803955
1772790171406535700,4.71653564453125,1.3569844961166382,-0.416166216135025,-0.8039209246635437
1772790171426570800,4.73657080078125,1.1442114114761353,-0.6095338463783264,-0.9157450795173645
1772790171446606600,4.756606689453125,1.0132304430007935,-0.6804158687591553,-0.9288333654403687
1772790171466641400,4.776641357421875,0.9638301730155945,-0.6808968186378479,-0.8895484209060669
1772790171486677800,4.796677734375,0.927100419998169,-0.6330780982971191,-0.7999871373176575
1772790171506712300,4.81671240234375,0.9341172575950623,-0.5054850578308105,-0.6892498731613159
1772790171526748700,4.836748779296875,1.0631219148635864,-0.365791380405426,-0.6222646236419678
1772790171546783500,4.856783447265625,1.2947369813919067,-0.28414809703826904,-0.7505877017974854
1772790171566819300,4.8768193359375,1.3850154876708984,-0.28051334619522095,-1.0559885501861572
1772790171586855700,4.896855712890625,1.0964558124542236,-0.3349969983100891,-1.2346628904342651
1772790171606891300,4.916891357421875,0.5458677411079407,-0.43479278683662415,-1.1016216278076172
1772790171626927000,4.936927001953125,-0.08900023251771927,-0.6709251999855042,-0.6330980062484741
1772790171646962000,4.9569619140625,-0.7421277761459351,-0.9316487312316895,0.11882207542657852
1772790171666998300,4.976998291015625,-1.1699330806732178,-1.1777825355529785,0.9014943242073059
1772790171687032800,4.99703271484375,-1.233535885810852,-1.3760218620300293,1.4867998361587524
1772790171707069200,5.017069091796875,-1.038198709487915,-1.4528143405914307,1.8728715181350708
1772790171727104000,5.03710400390625,-0.8689275979995728,-1.465152621269226,1.9711663722991943
1772790171747139800,5.057139892578125,-0.8763514757156372,-1.4148128032684326,1.8086005449295044
1772790171767175000,5.0771748046875,-1.028579592704773,-1.2607115507125854,1.4065847396850586
1772790171787211000,5.0972109375,-1.4084564447402954,-0.914379894733429,0.7628107070922852
1772790171807246000,5.11724609375,-2.130086898803711,-0.21433737874031067,-0.0613715685904026
1772790171827282000,5.137281982421875,-2.871290445327759,0.4688488841056824,-1.0197432041168213
1772790171847318000,5.157318115234375,-3.257984161376953,1.1295483112335205,-2.043522357940674
1772790171867353000,5.17735302734375,-3.182709217071533,1.5189985036849976,-2.772186279296875
1772790171887389000,5.197388916015625,-2.8854563236236572,1.486235499382019,-2.935515880584717
1772790171907424000,5.217424072265625,-2.516444206237793,1.0137598514556885,-2.6229493618011475
1772790171927459800,5.2374599609375,-2.118678331375122,0.3720625042915344,-2.0330796241760254
1772790171947495000,5.257494873046875,-1.8441842794418335,-0.11519429832696915,-1.3273788690567017
1772790171967531000,5.277531005859375,-1.8318541049957275,-0.42770373821258545,-0.5576868653297424
1772790171987566000,5.297566162109375,-1.9158402681350708,-0.605941116809845,0.20027683675289154
1772790172007602000,5.317601806640625,-1.9778047800064087,-0.6582100987434387,0.7417841553688049
1772790172027637000,5.337636962890625,-2.015317916870117,-0.6038111448287964,1.0170162916183472
1772790172047673000,5.357673095703125,-1.9730916023254395,-0.48060888051986694,1.0889171361923218
1772790172067708000,5.3777080078125,-1.8904738426208496,-0.3778262734413147,1.0474320650100708
1772790172087744000,5.397743896484375,-1.8108117580413818,-0.4057929217815399,0.9204666614532471
1772790172107779000,5.417779052734375,-1.775067687034607,-0.46180298924446106,0.6771923899650574
1772790172127815000,5.43781494140625,-1.7402461767196655,-0.47912731766700745,0.2918674051761627
1772790172147851000,5.45785107421875,-1.6302156448364258,-0.42519739270210266,-0.2018699049949646
1772790172167886000,5.477885986328125,-1.4316473007202148,-0.3176672160625458,-0.7336892485618591
1772790172187922000,5.497921875,-1.2894688844680786,-0.18597517907619476,-1.0759179592132568
1772790172207957000,5.51795703125,-1.1429990530014038,-0.20152312517166138,-1.1026716232299805
1772790172227993000,5.5379931640625,-0.9352613687515259,-0.30750608444213867,-0.8492478132247925
1772790172248028200,5.558028076171875,-0.6297159194946289,-0.4977564513683319,-0.4625101089477539
1772790172268064000,5.57806396484375,-0.20362810790538788,-0.7501057982444763,-0.07778488099575043
1772790172288099000,5.59809912109375,0.29826414585113525,-0.9282847046852112,0.2661956250667572
1772790172308135000,5.618135009765625,0.8413017988204956,-1.0369088649749756,0.5307318568229675
1772790172328170000,5.638169921875,1.3669949769973755,-1.0111359357833862,0.7893642783164978
1772790172348206000,5.6582060546875,1.8303024768829346,-0.8198745846748352,1.0417020320892334
1772790172368241200,5.6782412109375,2.144500970840454,-0.41405490040779114,1.2053987979888916
1772790172388277000,5.698277099609375,2.2889788150787354,0.31790465116500854,1.269877552986145
1772790172408313000,5.71831298828125,2.294870615005493,1.1485918760299683,1.2893491983413696
1772790172428348200,5.73834814453125,2.203965663909912,2.08134388923645,1.3308312892913818
1772790172448384000,5.758384033203125,2.1306116580963135,2.976853847503662,1.4159728288650513
1772790172468419000,5.778419189453125,2.1577365398406982,3.8131489753723145,1.5492925643920898
1772790172488455200,5.798455078125,2.3019402027130127,4.494910717010498,1.6692419052124023
1772790172508490000,5.818489990234375,2.566530227661133,4.997263431549072,1.7632637023925781
1772790172528526000,5.838526123046875,2.87736439704895,5.2248358726501465,1.8310227394104004
1772790172548561200,5.85856103515625,3.09733510017395,5.160745620727539,1.8865090608596802
1772790172568597000,5.878596923828125,3.1364784240722656,4.765115737915039,1.8167035579681396
1772790172588632000,5.898632080078125,2.926931858062744,4.095719337463379,1.5647469758987427
1772790172608668000,5.91866796875,2.5678327083587646,3.2107319831848145,1.0649356842041016
1772790172628703000,5.938702880859375,2.16166353225708,2.172698736190796,0.38623538613319397
1772790172648740900,5.958740966796875,1.7707480192184448,1.1138927936553955,-0.3352397382259369
1772790172668776700,5.978776611328125,1.453116536140442,0.17784324288368225,-1.0212798118591309
1772790172688812800,5.998812744140625,1.263017177581787,-0.618476927280426,-1.6089178323745728
1772790172708847900,6.018847900390625,1.2010338306427002,-1.29872465133667,-2.041919469833374
1772790172728883700,6.0388837890625,1.2335493564605713,-1.7741109132766724,-2.286433458328247
1772790172748918800,6.058918701171875,1.292626142501831,-2.1601295471191406,-2.323216199874878
1772790172768955000,6.078954833984375,1.2696011066436768,-2.377870798110962,-2.154872179031372
1772790172788989700,6.09898974609375,1.10670006275177,-2.4107251167297363,-1.7685410976409912
1772790172809025800,6.11902587890625,0.9157782196998596,-2.2823314666748047,-1.2355653047561646
1772790172829060900,6.139060791015625,0.847405731678009,-1.8986830711364746,-0.7935271263122559
1772790172849096700,6.1590966796875,0.8956983089447021,-1.390952467918396,-0.6614184975624084
1772790172869131800,6.1791318359375,0.8756560683250427,-0.9513875246047974,-0.7314243316650391
1772790172889168000,6.19916796875,0.6285676956176758,-0.7025707960128784,-0.6555481553077698
1772790172909202700,6.21920263671875,0.21681898832321167,-0.6006311178207397,-0.3381299674510956
1772790172929238800,6.23923876953125,-0.24444274604320526,-0.5087910294532776,0.13076835870742798
1772790172949275000,6.25927490234375,-0.7452869415283203,-0.40571123361587524,0.7045034766197205
1772790172969309700,6.279309814453125,-1.2332046031951904,-0.45594432950019836,1.2639449834823608
1772790172989345800,6.299345703125,-1.659873127937317,-0.6230781078338623,1.7001292705535889
1772790173009380900,6.319380859375,-2.00632381439209,-0.7589442133903503,1.9438197612762451
1772790173029416700,6.339416748046875,-2.2548272609710693,-0.8224625587463379,1.9733715057373047
1772790173049451800,6.35945166015625,-2.3298513889312744,-0.7308476567268372,1.7412657737731934
1772790173069487900,6.37948779296875,-2.2849714756011963,-0.5061608552932739,1.2965316772460938
1772790173089523000,6.39952294921875,-2.2242465019226074,-0.3163035809993744,0.7449160218238831
1772790173109558800,6.419558837890625,-2.3057639598846436,0.1976754516363144,0.024395674467086792
1772790173129593900,6.43959375,-2.4793622493743896,0.8507217168807983,-0.6853541731834412
1772790173149630000,6.4596298828125,-2.6395559310913086,1.2984517812728882,-1.2079893350601196
1772790173169664800,6.479664794921875,-2.7832117080688477,1.3604693412780762,-1.3719093799591064
1772790173189700900,6.499700927734375,-2.8599705696105957,1.0136334896087646,-1.2095038890838623
1772790173209736700,6.51973681640625,-2.762634754180908,0.5155625939369202,-0.9111535549163818
1772790173229771800,6.539771728515625,-2.4558472633361816,0.14104801416397095,-0.6407986283302307
1772790173249808000,6.559807861328125,-2.004852056503296,-0.06468525528907776,-0.4483753740787506
1772790173269843000,6.579843017578125,-1.4765695333480835,-0.30687230825424194,-0.3010891079902649
1772790173289878800,6.599878662109375,-0.9918136596679688,-0.6299840807914734,-0.15953628718852997
1772790173309913900,6.619913818359375,-0.6595880389213562,-0.8962824940681458,-0.03520805388689041
1772790173329950000,6.639949951171875,-0.48184922337532043,-1.1474584341049194,-0.011994227766990662
1772790173349984800,6.65998486328125,-0.4564274251461029,-1.41254723072052,-0.1094684824347496
1772790173370020900,6.680020751953125,-0.47326868772506714,-1.6000149250030518,-0.27031293511390686
1772790173390056000,6.700055908203125,-0.5341796278953552,-1.7786668539047241,-0.41080501675605774
1772790173410091800,6.720091796875,-0.5737259984016418,-1.9535866975784302,-0.5200997591018677
1772790173430126800,6.740126953125,-0.5873481631278992,-2.0933644771575928,-0.6012076735496521
1772790173450163000,6.760162841796875,-0.6506945490837097,-2.1298513412475586,-0.6755869388580322
1772790173470197800,6.78019775390625,-0.8009061217308044,-2.0222907066345215,-0.7390419244766235
1772790173490233900,6.80023388671875,-0.9932611584663391,-1.7083512544631958,-0.7584102749824524
1772790173510268700,6.8202685546875,-1.1422991752624512,-1.2498447895050049,-0.6153878569602966
1772790173530305000,6.840304931640625,-1.1566004753112793,-0.7212228178977966,-0.31521865725517273
1772790173550340900,6.8603408203125,-0.9930228590965271,-0.12547309696674347,0.0665527880191803
1772790173570375700,6.880375732421875,-0.6262785792350769,0.5280635952949524,0.3564522862434387
1772790173590411500,6.90041162109375,-0.08927267044782639,1.4450675249099731,0.2861190736293793
1772790173610446300,6.9204462890625,0.23280999064445496,2.493004560470581,0.30154410004615784
1772790173630482400,6.940482421875,0.29661646485328674,3.1743595600128174,0.7518417239189148
1772790173650517500,6.960517578125,0.5446813106536865,3.4715964794158936,1.3448222875595093
1772790173670553300,6.98055322265625,0.9070519804954529,3.522911310195923,1.6810840368270874
1772790173690588400,7.00058837890625,1.4614648818969727,3.1903152465820312,1.689935564994812
1772790173710624500,7.02062451171875,2.058692693710327,2.6174683570861816,1.4224132299423218
1772790173730659600,7.04065966796875,2.5526652336120605,2.0799689292907715,0.9698976874351501
1772790173750695400,7.0606953125,2.8604912757873535,1.6933854818344116,0.5105757713317871
1772790173770730500,7.08073046875,2.9452500343322754,1.3614604473114014,0.16847027838230133
1772790173790766600,7.1007666015625,2.863988161087036,1.1346720457077026,-0.05307617783546448
1772790173810802400,7.120802490234375,2.776721954345703,1.0799455642700195,-0.17435576021671295
1772790173830837500,7.14083740234375,2.665253162384033,1.2090911865234375,-0.19257907569408417
1772790173850873300,7.160873291015625,2.470118284225464,1.452162265777588,-0.08415502309799194
1772790173870908200,7.180908203125,2.168344497680664,1.7558194398880005,0.1458290070295334
1772790173890944500,7.200944580078125,1.8582111597061157,2.041316270828247,0.4129134714603424
1772790173910979300,7.220979248046875,1.6245701313018799,2.248300552368164,0.5788518786430359
1772790173931015400,7.241015380859375,1.562248945236206,2.329937219619751,0.5678144693374634
1772790173951050200,7.26105029296875,1.6806997060775757,2.303274631500244,0.4149186909198761
1772790173971086300,7.28108642578125,1.9257171154022217,2.1278233528137207,0.1685231775045395
1772790173991121400,7.301121337890625,2.1619932651519775,1.7819361686706543,-0.13138386607170105
1772790174011157200,7.3211572265625,2.2908060550689697,1.2578630447387695,-0.5072756409645081
1772790174031192300,7.3411923828125,2.3148186206817627,0.6228590607643127,-0.9489384293556213
1772790174051228200,7.361228271484375,2.221518039703369,-0.026741143316030502,-1.3897489309310913
1772790174071263200,7.38126318359375,1.9857447147369385,-0.6661283373832703,-1.7463785409927368
1772790174091299300,7.40129931640625,1.7036887407302856,-1.2644498348236084,-1.9243279695510864
1772790174111334400,7.42133447265625,1.4624078273773193,-1.7076448202133179,-1.9200918674468994
1772790174131370200,7.441370361328125,1.2762563228607178,-1.9729498624801636,-1.8305658102035522
1772790174151406300,7.46140625,1.1982810497283936,-2.0862948894500732,-1.68271005153656
1772790174171441400,7.48144140625,1.196392297744751,-2.10589599609375,-1.4562764167785645
1772790174191477200,7.501477294921875,1.1620540618896484,-2.0297744274139404,-1.158348798751831
1772790174211512300,7.52151220703125,1.0136324167251587,-1.7773350477218628,-0.9726063013076782
1772790174231548400,7.54154833984375,0.6512444019317627,-1.5188225507736206,-0.960992693901062
1772790174251583200,7.561583251953125,0.0748000293970108,-1.403023600578308,-0.9099533557891846
1772790174271619300,7.581619384765625,-0.6151464581489563,-1.3695435523986816,-0.7087269425392151
1772790174291654400,7.601654296875,-1.409747838973999,-1.2332943677902222,-0.29927900433540344
1772790174311690200,7.621690185546875,-2.234173059463501,-1.0012351274490356,0.2331884801387787
1772790174331725300,7.641725341796875,-2.9188473224639893,-0.7760084867477417,0.6933591961860657
1772790174351761400,7.661761474609375,-3.2841310501098633,-0.5746927261352539,1.0362974405288696
1772790174371796500,7.68179638671875,-3.4160404205322266,-0.3899422585964203,1.3553156852722168
1772790174391832300,7.701832275390625,-3.5971319675445557,-0.13990531861782074,1.5108493566513062
1772790174411867400,7.721867431640625,-3.7836568355560303,0.1422375738620758,1.4187926054000854
1772790174431903500,7.741903564453125,-3.9912097454071045,0.566994309425354,1.2375171184539795
1772790174451939300,7.761939208984375,-4.2982683181762695,1.067841649055481,1.0823527574539185
1772790174471974400,7.781974365234375,-4.5387678146362305,1.6736230850219727,0.9914971590042114
1772790174492010200,7.80201025390625,-4.579401969909668,2.217113494873047,0.9111846089363098
1772790174512045300,7.82204541015625,-4.401819229125977,2.545689344406128,0.8769568800926208
1772790174532081400,7.842081298828125,-3.9991211891174316,2.485599994659424,0.901822566986084
1772790174552116500,7.862116455078125,-3.208815097808838,1.8549035787582397,0.9776937961578369
1772790174572152300,7.88215234375,-2.1863210201263428,0.7658748030662537,1.0207246541976929
1772790174592188000,7.90218798828125,-1.2382951974868774,-0.30522674322128296,0.837708055973053
1772790174612223700,7.9222236328125,-0.37115246057510376,-1.2867248058319092,0.3829609453678131
1772790174632258800,7.9422587890625,0.3058967888355255,-2.106471300125122,-0.244731605052948
1772790174652295000,7.962294921875,0.7231131196022034,-2.745131492614746,-0.883628249168396
1772790174672330000,7.982330078125,0.8738584518432617,-3.2584071159362793,-1.3611018657684326
1772790174692365800,8.00236572265625,0.7135281562805176,-3.6160049438476562,-1.6208542585372925
1772790174712401000,8.02240087890625,0.3651925325393677,-3.697359800338745,-1.7547919750213623
1772790174732437000,8.04243701171875,0.02657857909798622,-3.496598720550537,-1.8565760850906372
1772790174752472800,8.062472900390626,-0.1984645426273346,-2.9387872219085693,-1.9478545188903809
1772790174772508000,8.0825078125,-0.32162198424339294,-2.0815367698669434,-1.967594861984253
1772790174792544000,8.1025439453125,-0.3682268559932709,-0.9988072514533997,-1.8859894275665283
1772790174812578800,8.122578857421875,-0.4216254949569702,0.21070875227451324,-1.663195013999939
1772790174832615000,8.142614990234375,-0.5326980352401733,1.4093563556671143,-1.2327699661254883
1772790174852650000,8.16264990234375,-0.7087712287902832,2.3962011337280273,-0.5621439218521118
1772790174872685800,8.182685791015626,-0.7765632271766663,3.0779993534088135,0.2664039134979248
1772790174892721000,8.202720947265625,-0.6223915815353394,3.4149107933044434,1.053836703300476
1772790174912757000,8.222757080078125,-0.12353198230266571,3.5735390186309814,1.4552369117736816
1772790174932792000,8.2427919921875,0.5681776404380798,3.6940078735351562,1.571606993675232
1772790174952828000,8.262827880859374,1.1756542921066284,3.795245885848999,1.7078205347061157
1772790174972863000,8.282863037109376,1.6245530843734741,3.8620307445526123,1.9045473337173462
1772790174992898800,8.30289892578125,2.0114338397979736,3.7326865196228027,2.072936534881592
1772790175012934000,8.322933837890625,2.4129433631896973,3.391688346862793,2.0374948978424072
1772790175032970000,8.342969970703125,2.7946996688842773,2.9068989753723145,1.6892287731170654
1772790175053005000,8.363005126953125,3.1710636615753174,2.402942180633545,1.0447213649749756
1772790175073041000,8.383041015625,3.541386604309082,2.0302882194519043,0.23385165631771088
1772790175093077000,8.403076904296874,3.810739040374756,1.648659348487854,-0.47550350427627563
1772790175113112000,8.423112060546876,3.8931074142456055,1.2882378101348877,-0.8427097201347351
1772790175133148000,8.44314794921875,3.8106260299682617,0.9950321316719055,-0.8927029967308044
1772790175153183000,8.463182861328125,3.615368366241455,0.8698289394378662,-0.7058010101318359
1772790175173219000,8.483218994140625,3.348141670227051,0.9501999616622925,-0.38705146312713623
1772790175193254000,8.50325390625,3.0517985820770264,1.1487709283828735,-0.03172926977276802
1772790175213290000,8.5232900390625,2.7844667434692383,1.4634336233139038,0.28850695490837097
1772790175233324800,8.54332470703125,2.6075174808502197,1.7624170780181885,0.5135432481765747
1772790175253361000,8.56336083984375,2.5242817401885986,1.9427729845046997,0.6522570848464966
1772790175273395700,8.583395751953125,2.4927287101745605,1.948577880859375,0.708993136882782
1772790175293431800,8.603431884765625,2.463155508041382,1.810431957244873,0.6732311844825745
1772790175313467000,8.623466796875,2.408745288848877,1.5808230638504028,0.547795832157135
1772790175333502700,8.643502685546874,2.290776014328003,1.2352705001831055,0.31616324186325073
1772790175353537800,8.663537841796876,2.070491313934326,0.7974944114685059,0.03680521994829178
1772790175373574000,8.683573974609375,1.7793898582458496,0.33164507150650024,-0.24561360478401184
1772790175393609700,8.703609619140625,1.4477958679199219,-0.10848896205425262,-0.5013841390609741
1772790175413644800,8.723644775390625,1.0941524505615234,-0.5093614459037781,-0.6799348592758179
1772790175433681000,8.743680908203125,0.7837597727775574,-0.837340772151947,-0.7589219808578491
1772790175453715700,8.7637158203125,0.5654172897338867,-1.0998761653900146,-0.7975069880485535
1772790175473751800,8.783751708984376,0.4428512454032898,-1.3403879404067993,-0.773322582244873
1772790175493787000,8.803786865234375,0.37077704071998596,-1.5214680433273315,-0.6524960398674011
1772790175513822700,8.82382275390625,0.32065942883491516,-1.6592252254486084,-0.5726538300514221
1772790175533857800,8.84385791015625,0.27165013551712036,-1.7187639474868774,-0.65337735414505
1772790175553894000,8.863893798828125,0.16056635975837708,-1.751627802848816,-0.6591764092445374
1772790175573929000,8.883928955078124,-0.10842276364564896,-1.6731088161468506,-0.3710542321205139
1772790175593964300,8.90396435546875,-0.5948240756988525,-1.3696341514587402,0.15620246529579163
1772790175613999400,8.923999267578125,-1.2703815698623657,-0.8469375371932983,0.84406578540802
1772790175634035500,8.944035400390625,-2.022231101989746,-0.4282957911491394,1.5062446594238281
1772790175654070300,8.9640703125,-2.557412624359131,-0.1367146372795105,1.828847050666809
1772790175674106400,8.9841064453125,-2.7339987754821777,0.1014614999294281,1.8108882904052734
1772790175694141400,9.004141357421876,-2.711411952972412,0.1570538431406021,1.6102474927902222
1772790175714177300,9.02417724609375,-2.7484354972839355,0.052115414291620255,1.3089184761047363
1772790175734213400,9.04421337890625,-3.002474069595337,-0.06891477108001709,0.9571273326873779
1772790175754248400,9.06424853515625,-3.546004295349121,-0.056665435433387756,0.6038065552711487
1772790175774284300,9.0842841796875,-3.993652820587158,0.0767698660492897,0.14192582666873932
1772790175794319400,9.1043193359375,-4.1039910316467285,0.29154205322265625,-0.4241198003292084
1772790175814355500,9.12435546875,-3.940577268600464,0.39116171002388,-0.9324163198471069
1772790175834390500,9.144390625,-3.6321983337402344,0.22288241982460022,-1.1851987838745117
1772790175854426400,9.16442626953125,-3.3212692737579346,-0.1382017731666565,-1.1448988914489746
1772790175874461400,9.18446142578125,-2.984592914581299,-0.6003294587135315,-0.927920937538147
1772790175894497300,9.204497314453125,-2.5431251525878906,-1.0090577602386475,-0.6503397226333618
1772790175914532400,9.224532470703124,-1.956470251083374,-1.2888697385787964,-0.4341666102409363
1772790175934568400,9.244568359375,-1.3618810176849365,-1.4869643449783325,-0.3630252480506897
1772790175954603500,9.264603515625,-0.8701514601707458,-1.5919710397720337,-0.4527961015701294
1772790175974639400,9.284639404296875,-0.5083022117614746,-1.6765503883361816,-0.6328021287918091
1772790175994674400,9.30467431640625,-0.4209645092487335,-1.70278799533844,-0.8311058878898621
1772790176014710500,9.32471044921875,-0.5659396052360535,-1.7465804815292358,-1.0708650350570679
1772790176034745300,9.344745361328124,-0.9094293117523193,-1.7063566446304321,-1.278843641281128
1772790176054781400,9.364781494140624,-1.2294795513153076,-1.69282066822052,-1.3628802299499512
1772790176074817500,9.384817626953126,-1.4385634660720825,-1.5868266820907593,-1.3407280445098877
1772790176094852400,9.404852294921875,-1.5090117454528809,-1.330938696861267,-1.2042573690414429
1772790176114888400,9.424888427734375,-1.4673796892166138,-0.955595076084137,-0.9307001233100891
1772790176134923500,9.444923583984375,-1.396397352218628,-0.4091391861438751,-0.5334494113922119
1772790176154959400,9.46495947265625,-1.2189658880233765,0.3149266242980957,-0.07527685165405273
1772790176174994400,9.484994384765624,-0.7815731167793274,1.218578815460205,0.24596135318279266
1772790176195030500,9.505030517578126,-0.2842597961425781,2.3600118160247803,0.4980084002017975
1772790176215065600,9.525065673828125,0.331226110458374,3.344834327697754,0.895300030708313
1772790176235098400,9.545098388671875,1.2481313943862915,3.686136245727539,1.437239646911621
1772790176255134500,9.565134521484374,2.2372655868530273,3.393294095993042,1.8162803649902344
1772790176275169300,9.585169189453126,2.9994454383850098,2.9227519035339355,1.8170090913772583
1772790176295205400,9.605205322265626,3.5331573486328125,2.2211756706237793,1.4905450344085693
1772790176315240400,9.625240478515625,3.790043354034424,1.437317967414856,0.9982883334159851
1772790176335276300,9.6452763671875,3.8264973163604736,0.707770586013794,0.578701913356781
1772790176355312400,9.6653125,3.746511936187744,0.16110381484031677,0.4173305332660675
1772790176375347500,9.685347412109374,3.6566646099090576,-0.14848937094211578,0.4299003481864929
1772790176395383300,9.70538330078125,3.6437628269195557,-0.10369604825973511,0.48952624201774597
1772790176415418400,9.72541845703125,3.7627193927764893,0.24446870386600494,0.5464853048324585
1772790176435454500,9.745454345703125,4.043365955352783,0.875623345375061,0.6238805055618286
1772790176455489300,9.7654892578125,4.231064796447754,1.8221867084503174,0.8714791536331177
1772790176475525400,9.785525390625,4.10891056060791,2.642625570297241,1.2990442514419556
1772790176495560400,9.805560546875,3.736112356185913,2.8737215995788574,1.6335368156433105
1772790176515596300,9.82559619140625,3.2748875617980957,2.8036417961120605,1.6497337818145752
1772790176535631400,9.84563134765625,2.82228684425354,2.5315334796905518,1.3609180450439453
1772790176555667500,9.86566748046875,2.4026453495025635,2.1213295459747314,0.9426890015602112
1772790176575702500,9.88570263671875,2.0163068771362305,1.609146237373352,0.5429462790489197
1772790176595738000,9.905738037109375,1.6536006927490234,1.1219595670700073,0.19943097233772278
1772790176615773200,9.925773193359374,1.3415656089782715,0.6766576170921326,-0.10154543817043304
1772790176635809300,9.945809326171876,1.0492984056472778,0.23696550726890564,-0.3773433566093445
1772790176655844000,9.965843994140625,0.7903377413749695,-0.15837731957435608,-0.6829106211662292
1772790176675880200,9.985880126953125,0.5883532166481018,-0.5253674387931824,-1.036740779876709
1772790176695915300,10.005915283203125,0.45006972551345825,-0.8578347563743591,-1.3724370002746582
1772790176715951000,10.025951171875,0.37808430194854736,-1.1215320825576782,-1.5989595651626587
1772790176735987200,10.0459873046875,0.31428050994873047,-1.3595046997070312,-1.6852319240570068
1772790176756022300,10.066022216796876,0.2504064440727234,-1.5883674621582031,-1.6345330476760864
1772790176776058000,10.08605810546875,0.12524186074733734,-1.708803415298462,-1.496634602546692
1772790176796093200,10.10609326171875,-0.08197947591543198,-1.7513506412506104,-1.2886605262756348
1772790176816129300,10.12612939453125,-0.29966604709625244,-1.670800805091858,-1.0333350896835327
1772790176836164400,10.146164306640625,-0.46065032482147217,-1.4189273118972778,-0.9204736948013306
1772790176856200200,10.1662001953125,-0.6448389291763306,-1.1457858085632324,-1.1375303268432617
1772790176876235000,10.186235107421876,-1.080190658569336,-0.8556493520736694,-1.2853989601135254
1772790176896271000,10.20627099609375,-1.706921935081482,-0.5476143956184387,-1.0317679643630981
1772790176916306000,10.226305908203125,-2.365891218185425,-0.2515708804130554,-0.6143536567687988
1772790176936342300,10.24634228515625,-2.967872142791748,0.1880650371313095,-0.15231649577617645
1772790176956377000,10.266377197265625,-3.492192268371582,0.591911256313324,0.26374390721321106
1772790176976413000,10.286412841796874,-3.865809202194214,0.8286643028259277,0.6208896040916443
1772790176996448000,10.306447998046876,-4.112897872924805,0.869976282119751,1.0852584838867188
1772790177016484000,10.326484130859376,-4.362043857574463,0.7874635457992554,1.587484359741211
1772790177036519200,10.346519287109375,-4.566420555114746,0.631997287273407,1.874287724494934
1772790177056555000,10.366554931640625,-4.601975917816162,0.5227453708648682,1.7136844396591187
1772790177076590000,10.386590087890625,-4.399595737457275,0.7146769165992737,1.191421389579773
1772790177096626000,10.4066259765625,-3.8817498683929443,1.2832801342010498,0.64935702085495
1772790177116662000,10.426662109375,-3.0629289150238037,1.770499348640442,0.35532018542289734
1772790177136697000,10.446697021484376,-2.0859594345092773,1.3800538778305054,0.32763826847076416
1772790177156733000,10.46673291015625,-1.1863682270050049,0.16930630803108215,0.2192472517490387
1772790177176768000,10.48676806640625,-0.51636803150177,-1.1993868350982666,-0.2284127026796341
1772790177196804000,10.50680419921875,0.011906163766980171,-2.206254720687866,-1.0069891214370728
1772790177216839200,10.526839111328124,0.33211198449134827,-2.9563090801239014,-1.8327484130859375
1772790177236875000,10.546875,0.3546628952026367,-3.5168840885162354,-2.367467164993286
1772790177256910000,10.56691015625,0.14284533262252808,-3.951533794403076,-2.5601017475128174
1772790177276946200,10.5869462890625,-0.17040689289569855,-4.136155605316162,-2.5042495727539062
1772790177296981000,10.60698095703125,-0.4786042273044586,-3.990548610687256,-2.356560468673706
1772790177317017000,10.62701708984375,-0.6552688479423523,-3.5286459922790527,-2.1878254413604736
1772790177337052200,10.64705224609375,-0.6678133606910706,-2.7947561740875244,-1.9220638275146484
1772790177357088000,10.667087890625,-0.5553383231163025,-1.9674999713897705,-1.4985475540161133
1772790177377123000,10.687123046875,-0.42347806692123413,-1.1148035526275635,-0.9427991509437561
1772790177397159200,10.7071591796875,-0.31106245517730713,-0.2825579047203064,-0.31638577580451965
1772790177417194200,10.7271943359375,-0.2725682258605957,0.365095317363739,0.3152106702327728
1772790177437230000,10.74722998046875,-0.30487629771232605,0.9500875473022461,0.8246135115623474
1772790177457266200,10.76726611328125,-0.288976788520813,1.4348185062408447,1.2355867624282837
1772790177477301200,10.78730126953125,-0.2109314352273941,1.7249484062194824,1.61983323097229
1772790177497337000,10.807337158203126,-0.10069016367197037,1.8451292514801025,1.9445056915283203
1772790177517372200,10.8273720703125,0.0022159817162901163,1.8436226844787598,2.1484310626983643
1772790177537408000,10.847407958984375,0.16947045922279358,1.682578206062317,2.1164278984069824
1772790177557443000,10.867443115234375,0.38408634066581726,1.393954873085022,1.7877086400985718
1772790177577479200,10.887479248046875,0.5704828500747681,1.0382442474365234,1.208681344985962
1772790177597514800,10.9075146484375,0.7108540534973145,0.6020508408546448,0.5012254118919373
1772790177617550800,10.92755078125,0.8017423152923584,0.16289739310741425,-0.23874592781066895
1772790177637586000,10.9475859375,0.9681130647659302,-0.03574322164058685,-0.9632578492164612
1772790177657621800,10.967621826171875,1.0876859426498413,-0.08634687215089798,-1.4285645484924316
1772790177677656800,10.98765673828125,1.0724533796310425,-0.17350098490715027,-1.5047553777694702
1772790177697693000,11.00769287109375,1.0750882625579834,-0.28183305263519287,-1.2389909029006958
1772790177717728000,11.02772802734375,1.1562787294387817,-0.3280618488788605,-0.7807449698448181
1772790177737763800,11.047763916015626,1.4053454399108887,-0.24296090006828308,-0.39824697375297546
1772790177757799000,11.067798828125,1.8497192859649658,-0.06910471618175507,-0.13279199600219727
1772790177777835000,11.0878349609375,2.4255340099334717,0.10113411396741867,0.12706641852855682
1772790177797869800,11.107869873046875,2.8908047676086426,0.3195994198322296,0.5163506865501404
1772790177817906000,11.127906005859375,3.1390254497528076,0.5264493227005005,0.8972806930541992
1772790177837941000,11.14794091796875,3.1852688789367676,0.6446747779846191,1.0484601259231567
1772790177857976800,11.167976806640626,3.0647480487823486,0.7512449026107788,0.9358602166175842
1772790177878012000,11.188011962890625,2.796717405319214,0.7218573093414307,0.6637384295463562
1772790177898048000,11.208048095703125,2.3561229705810547,0.5947312712669373,0.35246413946151733
1772790177918083000,11.2280830078125,1.7745760679244995,0.3756285011768341,0.10524069517850876
1772790177938119000,11.248118896484375,1.2267096042633057,0.10306534916162491,-0.12176962196826935
1772790177958155000,11.268155029296874,0.7557777762413025,-0.07581698894500732,-0.32969966530799866
1772790177978189800,11.28818994140625,0.3804931044578552,-0.13645176589488983,-0.4947729706764221
1772790177998226000,11.308225830078126,0.1774245649576187,-0.16818521916866302,-0.561147153377533
1772790178018261000,11.328260986328125,0.11923930794000626,-0.26836809515953064,-0.5232511758804321
1772790178038296800,11.348296875,0.15902212262153625,-0.3742900490760803,-0.407000869512558
1772790178058332000,11.368331787109375,0.23475311696529388,-0.46033695340156555,-0.2573433220386505
1772790178078368000,11.388367919921874,0.28629809617996216,-0.5208932161331177,-0.11987408250570297
1772790178098403000,11.408403076171876,0.29414042830467224,-0.5446531772613525,-0.010352625511586666
1772790178118439000,11.42843896484375,0.2943546772003174,-0.5793675780296326,0.11611384153366089
1772790178138474000,11.448473876953125,0.29562750458717346,-0.5851478576660156,0.2694018483161926
1772790178158510000,11.468510009765625,0.30397161841392517,-0.49637338519096375,0.44468554854393005
1772790178178544600,11.488544677734374,0.28112849593162537,-0.33095794916152954,0.5990691781044006
1772790178198581000,11.5085810546875,0.17019341886043549,-0.17557594180107117,0.6247904300689697
1772790178218615800,11.52861572265625,0.006690112873911858,-0.11209553480148315,0.3962332308292389
1772790178238652000,11.54865185546875,-0.1699962317943573,-0.149034321308136,-0.09853113442659378
1772790178258686700,11.568686767578125,-0.38491496443748474,-0.3127138912677765,-0.8241448998451233
1772790178278722800,11.588722900390625,-0.6635748744010925,-0.6549784541130066,-1.7007081508636475
1772790178298758000,11.6087578125,-0.9439458250999451,-1.036008358001709,-2.614572525024414
1772790178318793700,11.628793701171874,-1.1266534328460693,-1.3079555034637451,-3.541358232498169
1772790178338828800,11.648828857421876,-1.2340010404586792,-1.4477190971374512,-4.428346633911133
1772790178358865000,11.668864990234376,-1.4361494779586792,-1.5927525758743286,-5.052718639373779
1772790178378899700,11.688899658203125,-1.7762700319290161,-1.7365866899490356,-5.322060585021973
1772790178398935800,11.708935791015625,-2.1607069969177246,-1.8060872554779053,-5.35575008392334
1772790178418971000,11.728970947265625,-2.4785377979278564,-1.7252922058105469,-5.381289005279541
1772790178439006700,11.7490068359375,-2.702103853225708,-1.5404609441757202,-5.4934797286987305
1772790178459042800,11.769042724609376,-2.809448719024658,-1.3207131624221802,-5.64964485168457
1772790178479078000,11.789077880859375,-2.878436803817749,-1.0974342823028564,-5.774405002593994
1772790178499113700,11.80911376953125,-2.926858425140381,-0.8279846906661987,-5.833528995513916
1772790178519148800,11.829148681640625,-3.0388004779815674,-0.45524677634239197,-5.790874004364014
1772790178539185000,11.849184814453125,-3.1911404132843018,-0.045521821826696396,-5.654534816741943
1772790178559219700,11.8692197265625,-3.393916130065918,0.4510366916656494,-5.416467189788818
1772790178579255800,11.889255859375,-3.611947536468506,0.9517710208892822,-5.029365539550781
1772790178599290000,11.9092900390625,-3.822174072265625,1.351323127746582,-4.467717170715332
1772790178619326200,11.929326171875,-3.9346044063568115,1.5592714548110962,-3.782240390777588
1772790178639361000,11.949361083984375,-3.905296802520752,1.48310124874115,-3.048487424850464
1772790178659397000,11.969397216796875,-3.7289164066314697,1.1409372091293335,-2.2871673107147217
1772790178679432200,11.98943212890625,-3.400848388671875,0.6174324750900269,-1.474785327911377
1772790178699468000,12.009468017578126,-2.9474456310272217,0.0037133852019906044,-0.6024621725082397
1772790178719503000,12.029503173828125,-2.4198434352874756,-0.6034544110298157,0.2583581805229187
1772790178739539200,12.049539306640625,-1.8559925556182861,-1.1182860136032104,1.0116409063339233
1772790178759574300,12.06957421875,-1.310473084449768,-1.5389083623886108,1.6741281747817993
1772790178779610000,12.089610107421874,-0.8161283135414124,-1.8262250423431396,2.1865508556365967
1772790178799645200,12.109645263671876,-0.4739745855331421,-1.890571117401123,2.4604713916778564
1772790178819681300,12.129681396484376,-0.3088303804397583,-1.7850630283355713,2.43788743019104
1772790178839716000,12.149716064453125,-0.42031630873680115,-1.658569097518921,2.136813163757324
1772790178859752200,12.169752197265625,-0.8022217154502869,-1.575670838356018,1.6117515563964844
1772790178879787300,12.189787353515625,-1.2341656684875488,-1.6473512649536133,0.9624155163764954
1772790178899823000,12.209822998046874,-1.528076410293579,-1.8201427459716797,0.35480523109436035
1772790178919858200,12.229858154296876,-1.7116717100143433,-2.0413427352905273,-0.1342352330684662
1772790178939894300,12.249894287109376,-1.8441485166549683,-2.234210252761841,-0.4973500370979309
1772790178959929300,12.269929443359375,-1.989963173866272,-2.362856864929199,-0.7356312274932861
1772790178979965200,12.289965087890625,-2.1885263919830322,-2.413388967514038,-0.8920320272445679
1772790179000000300,12.310000244140625,-2.4044644832611084,-2.337763547897339,-0.9152872562408447
1772790179020036000,12.3300361328125,-2.509751796722412,-2.213961124420166,-0.8010633587837219
1772790179040071200,12.3500712890625,-2.4399445056915283,-2.092292070388794,-0.5765736103057861
1772790179060107300,12.370107177734376,-2.236433744430542,-1.8559043407440186,-0.2924540638923645
1772790179080143000,12.39014306640625,-2.001168727874756,-1.6366991996765137,-0.021027594804763794
1772790179100178200,12.41017822265625,-1.8016165494918823,-1.4036513566970825,0.06846782565116882
1772790179120214300,12.43021435546875,-1.4981263875961304,-1.2130206823349,-0.09688170999288559
1772790179140249300,12.450249267578124,-1.0953943729400635,-1.0190284252166748,-0.3470412492752075
1772790179160285200,12.47028515625,-0.6262185573577881,-0.9158618450164795,-0.5313279032707214
1772790179180320300,12.4903203125,-0.13542522490024567,-0.9626580476760864,-0.6401995420455933
1772790179200356400,12.5103564453125,0.22737133502960205,-1.1235603094100952,-0.6623359322547913
1772790179220391200,12.53039111328125,0.4487984776496887,-1.3968623876571655,-0.6518617272377014
1772790179240427300,12.55042724609375,0.5900963544845581,-1.671919584274292,-0.6950691938400269
1772790179260462300,12.57046240234375,0.759813129901886,-1.822470784187317,-0.8514929413795471
1772790179280498200,12.590498291015624,1.0329782962799072,-1.8571304082870483,-1.0862903594970703
1772790179300533000,12.610532958984376,1.3532795906066895,-1.8188575506210327,-1.3213657140731812
1772790179320569300,12.6305693359375,1.5988998413085938,-1.8070106506347656,-1.4499624967575073
1772790179340604200,12.650604248046875,1.729907751083374,-1.8213509321212769,-1.3912440538406372
1772790179360640300,12.67064013671875,1.8079032897949219,-1.8664181232452393,-1.1907926797866821
1772790179380675000,12.690675048828124,1.8945432901382446,-1.9240237474441528,-0.9588829874992371
1772790179400711200,12.710711181640624,1.9377820491790771,-1.9213906526565552,-0.7552391290664673
1772790179420746000,12.73074609375,1.8437670469284058,-1.8603018522262573,-0.5353272557258606
1772790179440782000,12.750781982421875,1.6448094844818115,-1.7296457290649414,-0.29536259174346924
1772790179460817200,12.770817138671875,1.4502018690109253,-1.451408863067627,-0.041560497134923935
1772790179480853000,12.79085302734375,1.2591763734817505,-1.0789605379104614,0.2390056699514389
1772790179500888000,12.81088818359375,1.0287413597106934,-0.6090826392173767,0.5432275533676147
1772790179520924200,12.830924072265624,0.7333874106407166,-0.025551998987793922,0.8650898337364197
1772790179540959200,12.850959228515626,0.4135172665119171,0.62495356798172,1.1934292316436768
1772790179560995000,12.8709951171875,0.16874954104423523,1.1967848539352417,1.5025912523269653
1772790179581030100,12.891030029296875,0.08411359786987305,1.5724139213562012,1.7859560251235962
1772790179601066200,12.911066162109375,0.12157648056745529,1.7246328592300415,2.101652145385742
1772790179621100800,12.931100830078124,0.1529250293970108,1.6603178977966309,2.3783392906188965
1772790179641137000,12.951136962890626,0.1729080229997635,1.4448950290679932,2.4424986839294434
1772790179661172000,12.971171875,0.19835223257541656,1.2224129438400269,2.2068030834198
1772790179681207800,12.991207763671875,0.1485588401556015,1.0655120611190796,1.6676775217056274
1772790179701243000,13.011242919921875,-0.05968805402517319,0.9054539799690247,0.9031274318695068
1772790179721279000,13.031279052734375,-0.3346943259239197,0.5692428350448608,0.08480922132730484
1772790179741314800,13.051314697265624,-0.28711628913879395,0.5547508597373962,-0.6580709218978882
1772790179761350000,13.071349853515626,-0.11792842298746109,0.4938506484031677,-0.9265361428260803
1772790179781385000,13.091385009765625,-0.13545715808868408,0.16265645623207092,-0.7100867033004761
1772790179801420800,13.1114208984375,-0.3317030966281891,-0.2658610939979553,-0.2649283707141876
1772790179821457000,13.131456787109375,-0.6535265445709229,-0.4853667914867401,0.06529893726110458
1772790179841492000,13.151491943359375,-0.8145568370819092,-0.6006518602371216,0.23788443207740784
1772790179861527800,13.17152783203125,-0.9559062719345093,-0.5862284302711487,0.22072754800319672
1772790179881563000,13.19156298828125,-1.0744668245315552,-0.5407592058181763,0.08146248012781143
1772790179901599000,13.211598876953126,-1.1151007413864136,-0.5145037174224854,-0.10563397407531738
1772790179921634000,13.231634033203125,-1.121705174446106,-0.39953723549842834,-0.42723333835601807
1772790179941670000,13.251669921875,-1.0937955379486084,-0.3425307273864746,-0.8237538933753967
1772790179961705000,13.271705078125,-1.0875612497329712,-0.4208042323589325,-1.2015511989593506
1772790179981741000,13.291740966796874,-1.0707448720932007,-0.3565613627433777,-1.5645889043807983
1772790180001775900,13.31177587890625,-1.1822136640548706,-0.4426571726799011,-1.7416659593582153
1772790180021812000,13.33181201171875,-1.3431316614151,-0.539802074432373,-1.7415424585342407
1772790180041847000,13.351846923828125,-1.4290857315063477,-0.6514274477958679,-1.5978566408157349
1772790180061883000,13.3718828125,-1.3690447807312012,-0.7455108761787415,-1.3821555376052856
1772790180081918000,13.39191796875,-1.2483810186386108,-0.84320467710495,-1.0914517641067505
1772790180101954000,13.4119541015625,-1.1041247844696045,-1.0096476078033447,-0.8091045022010803
1772790180121989000,13.431989013671876,-0.9288411140441895,-1.1237764358520508,-0.6332014203071594
1772790180142025000,13.45202490234375,-0.6226927042007446,-1.131128191947937,-0.6814306378364563
1772790180162060000,13.47206005859375,-0.2538068890571594,-1.012876033782959,-0.8926933407783508
1772790180182096100,13.49209619140625,0.15930619835853577,-0.9213448762893677,-1.0756011009216309
1772790180202131000,13.512130859375,0.5751384496688843,-0.851003885269165,-1.2068051099777222
1772790180222167000,13.5321669921875,0.9179202914237976,-0.7927221059799194,-1.3102818727493286
1772790180242202000,13.5522021484375,1.1670162677764893,-0.9315410256385803,-1.326063871383667
1772790180262238000,13.572238037109376,1.3053739070892334,-1.1818633079528809,-1.256654143333435
1772790180282273000,13.59227294921875,1.3129998445510864,-1.3810337781906128,-1.054593563079834
1772790180302309000,13.61230908203125,1.2354182004928589,-1.647237777709961,-0.7714318037033081
1772790180322344200,13.63234423828125,1.1071196794509888,-1.779765009880066,-0.501505434513092
1772790180342380000,13.652380126953124,0.9078689813613892,-1.7762196063995361,-0.2927207946777344
1772790180362415000,13.6724150390625,0.6403210163116455,-1.6962907314300537,-0.20735527575016022
1772790180382451000,13.692450927734376,0.3922061026096344,-1.5899797677993774,-0.2069387286901474
1772790180402486000,13.712486083984375,0.22041529417037964,-1.4095314741134644,-0.2172146588563919
1772790180422522000,13.732522216796875,0.15278886258602142,-1.2134023904800415,-0.19963262975215912
1772790180442557200,13.75255712890625,0.05379398167133331,-0.9121145009994507,-0.17042891681194305
1772790180462593000,13.772593017578124,-0.12173015624284744,-0.5318003296852112,-0.14323735237121582
1772790180482628000,13.792628173828126,-0.3430865705013275,-0.21253207325935364,-0.19575002789497375
1772790180502664200,13.812664306640626,-0.577574610710144,0.049366630613803864,-0.2935377061367035
1772790180522699000,13.832698974609375,-0.8604759573936462,0.25732699036598206,-0.2798667550086975
1772790180542735000,13.852735107421875,-1.2333077192306519,0.2950997054576874,-0.13907963037490845
1772790180562770000,13.87277001953125,-1.6427501440048218,0.42894992232322693,0.05751078575849533
1772790180582806000,13.892805908203124,-2.0036706924438477,0.6019178628921509,0.2750195264816284
1772790180602841300,13.91284130859375,-2.2630927562713623,0.8085455894470215,0.43407052755355835
1772790180622877400,13.93287744140625,-2.3665215969085693,1.0378907918930054,0.5529369115829468
1772790180642912500,13.95291259765625,-2.133702039718628,1.2262474298477173,0.4144291877746582
1772790180662948400,13.9729482421875,-1.7992799282073975,1.54768967628479,0.10428853332996368
1772790180682983400,13.9929833984375,-1.6028900146484375,1.9409531354904175,-0.06595966964960098
1772790180703019300,14.013019287109374,-1.4641592502593994,2.0142109394073486,0.06723330914974213
1772790180723054300,14.033054443359376,-1.302707552909851,1.760055422782898,0.29904964566230774
1772790180743090400,14.05309033203125,-1.059219479560852,1.2463111877441406,0.43698132038116455
1772790180763125500,14.07312548828125,-0.5887990593910217,0.4363137483596802,0.3630337715148926
1772790180783161300,14.093161376953125,0.0945042073726654,-0.5510971546173096,0.06551946699619293
1772790180803197400,14.113197509765625,0.6182723641395569,-1.5439479351043701,-0.2338835895061493
1772790180823232500,14.133232421875,0.7115721106529236,-2.3494160175323486,-0.3614692986011505
1772790180843268400,14.153268310546874,0.5560606122016907,-2.751722812652588,-0.4116194546222687
1772790180863303400,14.173303466796876,0.418498694896698,-2.5917582511901855,-0.5086192488670349
1772790180883339500,14.193339599609375,0.4386036694049835,-1.996993899345398,-0.5333449244499207
1772790180903374300,14.213374267578125,0.5928748250007629,-1.0586892366409302,-0.33059319853782654
1772790180923410400,14.233410400390625,0.8310479521751404,0.10428402572870255,0.08467602729797363
1772790180943445500,14.253445556640624,1.099583625793457,1.2446407079696655,0.5770668983459473
1772790180963481300,14.2734814453125,1.3065903186798096,2.1824512481689453,1.02078115940094
1772790180983516400,14.293516357421876,1.511480689048767,2.9338600635528564,1.373647689819336
1772790181003552500,14.313552490234375,1.6751558780670166,3.30959153175354,1.7175605297088623
1772790181023587600,14.333587646484375,1.8198144435882568,3.277345657348633,1.9934744834899902
1772790181043623400,14.35362353515625,1.9329169988632202,2.8665454387664795,2.1229004859924316
1772790181063658500,14.373658447265624,1.932773232460022,2.3032009601593018,2.0331063270568848
1772790181083694300,14.3936943359375,1.8430625200271606,1.6304290294647217,1.6480281352996826
1772790181103729400,14.4137294921875,1.7560263872146606,0.9221854209899902,1.0310416221618652
1772790181123765500,14.433765625,1.6500293016433716,0.27155232429504395,0.2925550043582916
1772790181143800300,14.45380029296875,1.5938664674758911,-0.2966204285621643,-0.4773695468902588
1772790181163836400,14.47383642578125,1.5888400077819824,-0.7725375890731812,-1.086469054222107
1772790181183871200,14.493871337890624,1.5722508430480957,-1.2070236206054688,-1.4155590534210205
1772790181203907600,14.513907470703124,1.5331400632858276,-1.5242748260498047,-1.5554368495941162
1772790181223942400,14.5339423828125,1.419830560684204,-1.7364872694015503,-1.5484468936920166
1772790181243978200,14.553978271484375,1.2206003665924072,-1.79109787940979,-1.368665099143982
1772790181264013300,14.574013427734375,0.9186190962791443,-1.6514980792999268,-1.0702630281448364
1772790181284049200,14.594049072265625,0.6630374193191528,-1.3050731420516968,-0.7812756299972534
1772790181304084200,14.614084228515624,0.5796202421188354,-0.8042178750038147,-0.5914457440376282
1772790181324120300,14.634120361328126,0.6902590990066528,-0.31418120861053467,-0.56126868724823
1772790181344155400,14.6541552734375,0.753136932849884,0.09388381987810135,-0.5432232618331909
1772790181364191200,14.674191162109375,0.6657548546791077,0.29482415318489075,-0.38665127754211426
1772790181384226300,14.694226318359375,0.4415886104106903,0.313209593296051,-0.1555631011724472
1772790181404262400,14.714262451171875,0.04435284435749054,0.22461707890033722,0.1769935041666031
1772790181424297200,14.734297119140624,-0.445672869682312,0.1488516926765442,0.5769127607345581
1772790181444333300,14.754333251953126,-0.9449906349182129,0.06645604223012924,0.9249289631843567
1772790181464368400,14.774368408203125,-1.2975046634674072,0.004852690733969212,1.107964038848877
1772790181484404200,14.794404296875,-1.353751301765442,0.02386239543557167,1.1810846328735352
1772790181504439300,14.814439208984375,-1.111494779586792,0.13906989991664886,1.2205238342285156
1772790181524475400,14.834475341796875,-0.7642910480499268,0.4426678419113159,1.1502269506454468
1772790181544510500,14.854510498046874,-0.5513523817062378,1.0012459754943848,0.9303422570228577
1772790181564546300,14.87454638671875,-0.583672821521759,1.5140372514724731,0.5141589045524597
1772790181584581400,14.894581298828125,-0.7139575481414795,1.8678878545761108,-0.13193711638450623
1772790181604617500,14.914617431640625,-0.7976568341255188,1.8925179243087769,-0.7777009010314941
1772790181624652300,14.93465234375,-0.8649417757987976,1.474151372909546,-1.26926851272583
1772790181644688400,14.9546884765625,-0.8587154746055603,0.8054113984107971,-1.6509021520614624
1772790181664723500,14.974723388671874,-0.7727089524269104,0.08393684029579163,-1.9212054014205933
1772790181684759300,14.99475927734375,-0.7029616236686707,-0.5458174347877502,-2.0084917545318604
1772790181704794400,15.01479443359375,-0.7221408486366272,-1.0841628313064575,-1.8974504470825195
1772790181724830500,15.03483056640625,-0.8390466570854187,-1.4977041482925415,-1.621994972229004
1772790181744865300,15.054865234375,-1.0119514465332031,-1.756487488746643,-1.2606472969055176
1772790181764901400,15.0749013671875,-1.1833652257919312,-1.8101481199264526,-0.8793173432350159
1772790181784936200,15.094936279296874,-1.2259087562561035,-1.6212180852890015,-0.5414039492607117
1772790181804972300,15.11497216796875,-0.9920921921730042,-1.2741351127624512,-0.2873573303222656
1772790181825007000,15.135007080078125,-0.6919782161712646,-0.7099871635437012,-0.028497332707047462
1772790181845043200,15.155043212890625,-0.41979750990867615,-0.07103322446346283,0.1972641497850418
1772790181865078300,15.175078369140625,-0.32645413279533386,0.5939514636993408,0.40030187368392944
1772790181885114000,15.195114013671875,-0.4572320282459259,1.1555464267730713,0.5197147727012634
1772790181905149200,15.215149169921874,-0.6578823328018188,1.5647971630096436,0.6895521879196167
1772790181925185300,15.235185302734376,-0.7622157335281372,1.732269048690796,0.9406896233558655
1772790181945220400,15.255220458984375,-0.8429616689682007,1.686751127243042,1.1497633457183838
1772790181965255200,15.275255126953125,-1.046460509300232,1.5037446022033691,1.27411949634552
1772790181985291300,15.295291259765625,-1.2820186614990234,1.114990234375,1.3323363065719604
1772790182005326300,15.315326416015624,-1.2859150171279907,0.5636328458786011,1.2990680932998657
1772790182025362200,15.335362060546874,-1.0179935693740845,0.01949193701148033,1.087970495223999
1772790182045397200,15.355397216796876,-0.608051598072052,-0.30243873596191406,0.6006099581718445
1772790182065433300,15.375433349609375,-0.24590052664279938,-0.35357195138931274,-0.14385950565338135
1772790182085468400,15.395468505859375,-0.1114995926618576,-0.17211011052131653,-0.8187140226364136
1772790182105504300,15.415504150390625,-0.15163050591945648,0.043741293251514435,-1.2538882493972778
1772790182125539300,15.435539306640624,-0.014977993443608284,0.22677351534366608,-1.4722182750701904
1772790182145575200,15.4555751953125,0.4243079721927643,0.3922102451324463,-1.4481182098388672
1772790182165610200,15.4756103515625,1.0509936809539795,0.32855838537216187,-1.1686288118362427
1772790182185646300,15.495646240234375,1.7477370500564575,0.10957356542348862,-0.7420503497123718
1772790182205681400,15.515681396484375,2.303162097930908,0.23886534571647644,-0.19859687983989716
1772790182225717200,15.53571728515625,2.5905921459198,0.6802269816398621,0.36020728945732117
1772790182245752300,15.55575244140625,2.6348960399627686,0.9115326404571533,0.7933956384658813
1772790182265788400,15.575788330078124,2.424980401992798,0.8287957310676575,1.0358456373214722
1772790182285823200,15.5958232421875,2.085862636566162,0.5998649001121521,1.0373071432113647
1772790182305859300,15.615859375,1.7393978834152222,0.3055911660194397,0.8983153104782104
1772790182325894400,15.635894287109375,1.4501549005508423,-0.07901982218027115,0.7737568616867065
1772790182345930200,15.65593017578125,1.1623913049697876,-0.44687768816947937,0.6296868920326233
1772790182365965300,15.67596533203125,0.8892135620117188,-0.7062808275222778,0.3659508526325226
1772790182386001400,15.69600146484375,0.7160193920135498,-0.9390683770179749,-0.07306251674890518
1772790182406036500,15.716036376953125,0.6552485227584839,-1.1244322061538696,-0.5783038139343262
1772790182426072300,15.736072265625,0.6808749437332153,-1.2786202430725098,-0.9287325143814087
1772790182446107400,15.756107421875,0.7134465575218201,-1.210703730583191,-0.9761902093887329
1772790182466143500,15.7761435546875,0.7874404191970825,-1.032348394393921,-0.82365483045578
1772790182486178300,15.79617822265625,0.9168838858604431,-0.7540672421455383,-0.5634447932243347
1772790182506214400,15.81621435546875,1.0132709741592407,-0.33643531799316406,-0.3044372498989105
1772790182526249500,15.83624951171875,1.036670207977295,0.14696121215820312,-0.12179241329431534
1772790182546285300,15.856285400390625,0.9350310564041138,0.557732105255127,-0.014444631524384022
1772790182566320000,15.876320068359375,0.8289255499839783,0.7818770408630371,0.006730770226567984
1772790182586356500,15.8963564453125,0.7749637365341187,0.829014778137207,-0.03168216347694397
1772790182606391800,15.916391845703124,0.7667251825332642,0.7381508350372314,-0.08994355797767639
1772790182626428000,15.936427978515624,0.7204759120941162,0.5152699947357178,-0.10523169487714767
1772790182646463000,15.956462890625,0.5275763273239136,0.24388234317302704,-0.03672812134027481
1772790182666498800,15.976498779296875,0.24301201105117798,-0.012480421923100948,0.05684256926178932
1772790182686534000,15.996533935546875,-0.059918202459812164,-0.17442180216312408,0.12307509779930115
1772790182706570000,16.016570068359375,-0.2990400791168213,-0.2742021679878235,0.15784385800361633
1772790182726605000,16.03660498046875,-0.4478551745414734,-0.3477694094181061,0.217855304479599
1772790182746641000,16.056640869140626,-0.4419154226779938,-0.34713518619537354,0.23170554637908936
1772790182766676000,16.076676025390626,-0.4032258689403534,-0.2617824971675873,0.04804891347885132
1772790182786711800,16.0967119140625,-0.5398448705673218,-0.0803246721625328,-0.21508915722370148
1772790182806747000,16.116746826171877,-0.8629889488220215,-0.014533701352775097,-0.35719922184944153
1772790182826783000,16.136782958984377,-1.340626835823059,0.004937541671097279,-0.19448648393154144
1772790182846818000,16.156818115234376,-1.7603703737258911,-0.06578447669744492,0.10313421487808228
1772790182866854000,16.17685400390625,-2.034874677658081,-0.1271357238292694,0.3802594840526581
1772790182886889000,16.196888916015624,-2.1676037311553955,-0.2687625586986542,0.6568951606750488
1772790182906925000,16.216925048828124,-2.2258460521698,-0.4064544439315796,0.8793321847915649
1772790182926959900,16.2369599609375,-2.218285322189331,-0.4785759449005127,0.9496797919273376
1772790182946996000,16.256995849609375,-2.11490535736084,-0.3863714635372162,0.8835394382476807
1772790182967031000,16.277031005859374,-1.9523310661315918,-0.2693175673484802,0.7306545972824097
1772790182987066000,16.297066162109374,-1.80681312084198,-0.09890475124120712,0.46444275975227356
1772790183007102000,16.31710205078125,-1.643680453300476,0.1483735293149948,-0.0011841338127851486
1772790183027136800,16.33713671875,-1.4680269956588745,0.41898873448371887,-0.5357003808021545
1772790183047173000,16.357173095703125,-1.324796438217163,0.4110071659088135,-0.9127492904663086
1772790183067208000,16.3772080078125,-1.2178682088851929,0.18567076325416565,-1.048168659210205
1772790183087244000,16.397244140625,-1.1230652332305908,-0.21896609663963318,-0.9711650609970093
1772790183107278800,16.41727880859375,-0.9759347438812256,-0.6455709934234619,-0.7427000403404236
1772790183127314700,16.437314697265624,-0.8313389420509338,-1.004096508026123,-0.45999473333358765
1772790183147349800,16.457349853515623,-0.7020084857940674,-1.2048962116241455,-0.2176174521446228
1772790183167385900,16.4773857421875,-0.5976476669311523,-1.263144612312317,-0.10902925580739975
1772790183187421000,16.4974208984375,-0.5388135313987732,-1.2152401208877563,-0.12166213989257812
1772790183207456800,16.517456787109374,-0.4800296723842621,-1.0595711469650269,-0.1645783632993698
1772790183227491800,16.537491943359374,-0.393577516078949,-0.8712906837463379,-0.21970988810062408
1772790183247528000,16.55752783203125,-0.3500768542289734,-0.5997567176818848,-0.18847282230854034
1772790183267562800,16.577562744140625,-0.29145678877830505,-0.3697041869163513,-0.07545898854732513
1772790183287598800,16.597598876953125,-0.21163097023963928,-0.16704918444156647,0.07485072314739227
1772790183307634000,16.617634033203124,-0.14334619045257568,-0.039136502891778946,0.1866273283958435
1772790183327669800,16.637669677734376,-0.09135282784700394,-0.011584606021642685,0.22284995019435883
1772790183347704800,16.657704833984376,-0.04960184171795845,0.04186905547976494,0.15957753360271454
1772790183367741000,16.677740966796875,-0.04082171246409416,0.11197421699762344,0.04935383051633835
1772790183387776000,16.69777587890625,-0.06261758506298065,0.1934242844581604,-0.04055025428533554
1772790183407811800,16.717811767578127,-0.09370533376932144,0.29925450682640076,-0.06303881853818893
1772790183427847000,16.737846923828126,-0.1411823332309723,0.2855679392814636,-0.016726288944482803
1772790183447883000,16.757883056640626,-0.19947074353694916,0.30388304591178894,0.1053987368941307
1772790183467917800,16.777917724609374,-0.14465713500976562,0.2743624746799469,0.15252085030078888
1772790183487954000,16.797953857421874,0.007701210677623749,0.4292505085468292,-0.012277808040380478
1772790183507989000,16.817989013671873,0.08761309832334518,0.6449820399284363,-0.12044240534305573
1772790183528024800,16.83802490234375,0.07557611912488937,0.8163071870803833,-0.06377683579921722
1772790183548060000,16.858059814453124,0.04697581008076668,0.9431591033935547,0.13807529211044312
1772790183568095000,16.878094970703124,0.08597542345523834,1.0712205171585083,0.3662521541118622
1772790183588131000,16.898131103515624,0.2372550070285797,1.1603399515151978,0.5520323514938354
1772790183608165400,16.918165283203123,0.5178175568580627,1.1075743436813354,0.6911858320236206
1772790183628201500,16.938201416015627,0.8498085737228394,1.0034804344177246,0.7916509509086609
1772790183648236300,16.958236328125,1.1445931196212769,0.870734453201294,0.9100945591926575
1772790183668272400,16.9782724609375,1.3522558212280273,0.8316590785980225,1.040014624595642
1772790183688307200,16.99830712890625,1.5247104167938232,0.9296326637268066,1.1321231126785278
1772790183708343300,17.01834326171875,1.7226457595825195,1.124800205230713,1.1854602098464966
1772790183728378400,17.03837841796875,1.9468811750411987,1.35236656665802,1.217176079750061
1772790183748414200,17.058414306640625,2.1513187885284424,1.5816558599472046,1.2366976737976074
1772790183768449300,17.07844921875,2.329411268234253,1.7190771102905273,1.1914596557617188
1772790183788485400,17.0984853515625,2.3903205394744873,1.7373499870300293,1.0906566381454468
1772790183808520200,17.118520263671876,2.330813407897949,1.6732805967330933,0.9613664150238037
1772790183828556300,17.138556396484375,2.25370454788208,1.519964575767517,0.7448552250862122
1772790183848591400,17.15859130859375,2.1998226642608643,1.2299312353134155,0.5514017343521118
1772790183868627200,17.178627197265627,2.1853644847869873,0.8294585347175598,0.4641713798046112
1772790183888662300,17.198662353515626,2.211639404296875,0.4213974177837372,0.41842231154441833
1772790183908698400,17.218698486328126,2.2263567447662354,0.03323151171207428,0.36017730832099915
1772790183928733400,17.2387333984375,2.174415111541748,-0.37793096899986267,0.2553282380104065
1772790183948769300,17.258769287109374,2.0339157581329346,-0.7093198895454407,0.0846954733133316
1772790183968804400,17.278804443359373,1.7812904119491577,-0.9543662071228027,-0.11892533302307129
1772790183988840400,17.29884033203125,1.4766227006912231,-1.1388391256332397,-0.3686257302761078
1772790184008875300,17.318875244140624,1.1564466953277588,-1.2108012437820435,-0.6013035178184509
1772790184028911400,17.338911376953124,0.9069981575012207,-1.221994161605835,-0.7518807649612427
1772790184048946400,17.358946533203124,0.7140889167785645,-1.1503087282180786,-0.8047134876251221
1772790184068981500,17.3789814453125,0.5277248024940491,-1.0320905447006226,-0.8254523873329163
1772790184089017300,17.399017333984375,0.2980634272098541,-0.7867081165313721,-0.7832516431808472
1772790184109052400,17.419052490234375,0.027805130928754807,-0.5176483988761902,-0.6465254426002502
1772790184129088500,17.439088623046874,-0.1854722499847412,-0.24877972900867462,-0.4648742377758026
1772790184149123300,17.459123291015626,-0.20398913323879242,0.08510524034500122,-0.4311324954032898
1772790184169159400,17.479159423828126,-0.21573252975940704,0.3566114008426666,-0.41760674118995667
1772790184189194500,17.499194580078125,-0.3699679970741272,0.5173177123069763,-0.16161201894283295
1772790184209230300,17.519230224609377,-0.5833831429481506,0.5589705109596252,0.32215702533721924
1772790184229265400,17.539265380859376,-0.9537824988365173,0.6456230878829956,0.800575315952301
1772790184249301500,17.559301513671876,-1.4032725095748901,0.7020569443702698,1.0327774286270142
1772790184269336600,17.579336669921876,-1.8121788501739502,0.6406449675559998,1.016461968421936
1772790184289372400,17.599372314453124,-2.193488359451294,0.35576552152633667,0.867888331413269
1772790184309407500,17.619407470703123,-2.512751579284668,-0.03292268514633179,0.5571348071098328
1772790184329443300,17.639443359375,-2.718696355819702,-0.43277040123939514,0.09227114915847778
1772790184349478400,17.659478515625,-2.778305768966675,-0.680252194404602,-0.467793345451355
1772790184369514500,17.679514404296874,-2.6608259677886963,-0.605402946472168,-1.0593940019607544
1772790184389549600,17.699549560546874,-2.4515914916992188,-0.32012149691581726,-1.5339722633361816
1772790184409585400,17.71958544921875,-2.230081081390381,0.0966394767165184,-1.7521377801895142
1772790184429620200,17.7396201171875,-2.004378080368042,0.45456212759017944,-1.7372380495071411
1772790184449656600,17.759656494140625,-1.7911932468414307,0.6443297863006592,-1.5998272895812988
1772790184469691400,17.77969140625,-1.6291053295135498,0.5725582242012024,-1.4227770566940308
1772790184489727200,17.799727294921876,-1.4768809080123901,0.26905640959739685,-1.2068427801132202
1772790184509762300,17.81976220703125,-1.2701185941696167,-0.14097221195697784,-0.9996232390403748
1772790184529797400,17.83979736328125,-1.039516568183899,-0.5150303840637207,-0.8025315999984741
1772790184549833200,17.859833251953123,-0.871816873550415,-0.8803555369377136,-0.630337655544281
1772790184569868300,17.879868408203127,-0.8123300671577454,-1.189406394958496,-0.54182368516922
1772790184589904400,17.899904296875,-0.8897193670272827,-1.3951940536499023,-0.5074765682220459
1772790184609939500,17.919939453125,-0.989493191242218,-1.5361194610595703,-0.5255968570709229
1772790184629975300,17.939975341796874,-1.0895553827285767,-1.558386206626892,-0.5484689474105835
1772790184650010400,17.96001025390625,-1.1138955354690552,-1.5216751098632812,-0.606036901473999
1772790184670046200,17.980046142578125,-1.1188582181930542,-1.3259539604187012,-0.6566683053970337
1772790184690081300,18.000081298828125,-1.139141321182251,-1.069949746131897,-0.5975321531295776
1772790184710117400,18.020117431640625,-1.2142744064331055,-0.7667451500892639,-0.37321776151657104
1772790184730152400,18.04015234375,-1.3382130861282349,-0.46780693531036377,-0.045743975788354874
1772790184750188300,18.060188232421876,-1.4240078926086426,-0.12781357765197754,0.3150915205478668
1772790184770223000,18.08022314453125,-1.3522889614105225,0.16658473014831543,0.6525684595108032
1772790184790259500,18.100259521484375,-1.1121690273284912,0.5138696432113647,0.9027450084686279
1772790184810294300,18.120294189453126,-0.7930170297622681,0.8280053734779358,1.073784351348877
1772790184830330000,18.140330078125,-0.451646625995636,1.0287303924560547,1.1244757175445557
1772790184850365200,18.160365234375,-0.08642468601465225,1.1728538274765015,1.00688898563385
1772790184870401000,18.180401123046874,0.3873608112335205,1.2338906526565552,0.6467982530593872
1772790184890436000,18.20043603515625,0.7391155958175659,1.2285412549972534,0.22536878287792206
1772790184910471200,18.22047119140625,0.9494521021842957,1.0467787981033325,-0.13632547855377197
1772790184930507300,18.24050732421875,1.0484027862548828,0.767436146736145,-0.3715741038322449
1772790184950542300,18.260542236328124,1.1034899950027466,0.3928004801273346,-0.5118798613548279
1772790184970578200,18.280578125,1.2104653120040894,-0.024140000343322754,-0.6156865954399109
1772790184990613200,18.30061328125,1.362485647201538,-0.41363000869750977,-0.650894284248352
1772790185010649000,18.320649169921875,1.481155276298523,-0.7385108470916748,-0.6178788542747498
1772790185030684200,18.34068408203125,1.5290026664733887,-0.9505278468132019,-0.5577437281608582
1772790185050720300,18.36072021484375,1.5265836715698242,-1.0213712453842163,-0.4708389341831207
1772790185070755300,18.38075537109375,1.5221970081329346,-0.9588803648948669,-0.3601314127445221
1772790185090791200,18.400791259765626,1.5323573350906372,-0.7783111333847046,-0.20363906025886536
1772790185110826200,18.420826171875,1.5666428804397583,-0.5148479342460632,0.024539737030863762
1772790185130862300,18.4408623046875,1.6370184421539307,-0.13927260041236877,0.3079144358634949
1772790185150897200,18.460897216796877,1.7301630973815918,0.29197588562965393,0.595848560333252
1772790185170933200,18.480933349609376,1.8645468950271606,0.7021948099136353,0.8282859325408936
1772790185190968300,18.50096826171875,1.9492346048355103,1.0654195547103882,1.0319247245788574
1772790185211004200,18.521004150390624,2.0057754516601562,1.3278895616531372,1.1718405485153198
1772790185231039200,18.541039306640624,2.041626453399658,1.5383975505828857,1.2574180364608765
1772790185251075300,18.561075439453123,2.1060750484466553,1.6318962574005127,1.3012880086898804
1772790185271110400,18.5811103515625,2.1604270935058594,1.5795762538909912,1.298208236694336
1772790185291145200,18.601145263671874,2.172086000442505,1.375165343284607,1.242834210395813
1772790185311181300,18.621181396484374,2.163496732711792,1.0334476232528687,1.1552915573120117
1772790185331216400,18.64121630859375,2.1634366512298584,0.5612874031066895,1.0347102880477905
1772790185351252200,18.661252197265625,2.1711223125457764,0.005057360976934433,0.8984903693199158
1772790185371287300,18.681287353515625,2.138831615447998,-0.5879204273223877,0.7495590448379517
1772790185391323400,18.701323486328125,2.091987371444702,-1.1788558959960938,0.5968008041381836
1772790185411358500,18.7213583984375,1.9769690036773682,-1.6320499181747437,0.48661163449287415
1772790185431394300,18.741394287109376,1.7057808637619019,-1.9230455160140991,0.4343220591545105
1772790185451429400,18.761429443359376,1.2935410737991333,-2.024684190750122,0.40445032715797424
1772790185471465500,18.781465576171875,0.8032834529876709,-1.9372074604034424,0.38024088740348816
1772790185491500000,18.8015,0.30113542079925537,-1.5202308893203735,0.37447136640548706
1772790185511536400,18.821536376953127,-0.08663410693407059,-0.7968610525131226,0.4330289959907532
1772790185531571200,18.8415712890625,-0.32803481817245483,-0.13070239126682281,0.61977618932724
1772790185551606300,18.861606201171874,-0.5024721026420593,0.28183770179748535,0.8136484622955322
1772790185571642000,18.88164208984375,-0.6843059659004211,0.506482720375061,0.871039092540741
1772790185591677200,18.90167724609375,-0.9217833876609802,0.5325480103492737,0.7648993134498596
1772790185611713300,18.92171337890625,-1.2615424394607544,0.42426207661628723,0.5370522141456604
1772790185631748000,18.941748046875,-1.6912275552749634,0.3011508285999298,0.24583972990512848
1772790185651784200,18.9617841796875,-2.1853184700012207,0.1889084130525589,-0.021986497566103935
1772790185671819300,18.9818193359375,-2.634401321411133,0.06053200364112854,-0.2002640664577484
1772790185691855000,19.001855224609375,-2.9079830646514893,-0.015802569687366486,-0.3938921093940735
1772790185711890200,19.02189013671875,-3.1176939010620117,0.06725439429283142,-0.7752388715744019
1772790185731926300,19.04192626953125,-3.351059913635254,0.24546360969543457,-1.2954518795013428
1772790185751961300,19.06196142578125,-3.5641138553619385,0.35018160939216614,-1.7526764869689941
1772790185771997200,19.0819970703125,-3.702906370162964,0.29730936884880066,-2.0650789737701416
1772790185792032300,19.1020322265625,-3.6748311519622803,0.18878577649593353,-2.2833175659179688
1772790185812067300,19.1220673828125,-3.4887328147888184,0.029311902821063995,-2.3963351249694824
1772790185832103200,19.142103271484373,-3.224782705307007,-0.17961882054805756,-2.3687994480133057
1772790185852138200,19.16213818359375,-2.988600969314575,-0.3644081652164459,-2.244966745376587
1772790185872174300,19.18217431640625,-2.7189135551452637,-0.5181668996810913,-2.138943672180176
1772790185892209400,19.20220947265625,-2.359877586364746,-0.7442194819450378,-2.009342908859253
1772790185912245200,19.222245361328124,-2.022555351257324,-1.0497287511825562,-1.8204933404922485
1772790185932280300,19.2422802734375,-1.636960506439209,-1.271987795829773,-1.7144709825515747
1772790185952316200,19.262316162109375,-1.2412182092666626,-1.3666894435882568,-1.7208129167556763
1772790185972351200,19.282351318359375,-0.9517343044281006,-1.3527886867523193,-1.7173218727111816
1772790185992387300,19.30238720703125,-0.7769976854324341,-1.2838462591171265,-1.6448622941970825
1772790186012422400,19.32242236328125,-0.7416866421699524,-1.2132503986358643,-1.5035977363586426
1772790186032458200,19.342458251953126,-0.7494324445724487,-1.1584433317184448,-1.3330497741699219
1772790186052493300,19.362493408203125,-0.7070845365524292,-1.171906590461731,-1.1183594465255737
1772790186072528400,19.3825283203125,-0.6342268586158752,-1.2654129266738892,-0.8809438943862915
1772790186092564200,19.402564208984376,-0.5386112928390503,-1.4213005304336548,-0.6127408742904663
1772790186112599000,19.42259912109375,-0.3927822411060333,-1.5689483880996704,-0.3316117227077484
1772790186132635400,19.442635498046876,-0.23813863098621368,-1.7843674421310425,-0.04586382210254669
1772790186152670200,19.462670166015624,-0.11074850708246231,-1.924933671951294,0.15867266058921814
1772790186172706300,19.482706298828123,-0.017470505088567734,-1.9958670139312744,0.2973421812057495
1772790186192741000,19.5027412109375,0.019256871193647385,-2.040501594543457,0.4754840135574341
1772790186212777200,19.522777099609375,0.07310762256383896,-2.0756030082702637,0.662636935710907
1772790186232812300,19.542812255859374,0.18060775101184845,-2.0584981441497803,0.7920905947685242
1772790186252848000,19.56284814453125,0.16114023327827454,-1.789621114730835,0.8508760929107666
1772790186272883200,19.58288330078125,0.02972843125462532,-1.3536747694015503,0.7989267110824585
1772790186292919000,19.6029189453125,-0.09712228924036026,-0.9401279091835022,0.7677491903305054
1772790186312954000,19.6229541015625,-0.11548388749361038,-0.46184784173965454,0.8259357213973999
1772790186332989200,19.6429892578125,0.0013801539316773415,-0.015707489103078842,1.1258697509765625
1772790186353025300,19.663025390625,0.09238621592521667,0.2604093849658966,1.585849404335022
1772790186373060400,19.683060302734376,-0.04925982654094696,0.3890334665775299,1.729467749595642
1772790186393096200,19.70309619140625,-0.187356099486351,0.49118590354919434,1.2002029418945312
1772790186413131300,19.72313134765625,-0.16051910817623138,0.5969093441963196,0.2797205150127411
1772790186433167000,19.7431669921875,-0.05780277028679848,0.6414050459861755,-0.5642514824867249
1772790186453202200,19.7632021484375,0.03490448743104935,0.6393625736236572,-1.0975795984268188
1772790186473238300,19.78323828125,0.19046273827552795,0.6885180473327637,-1.4439606666564941
1772790186493273300,19.8032734375,0.2828079164028168,0.8041222095489502,-1.4999593496322632
1772790186513309200,19.82330908203125,0.33768346905708313,0.9115406274795532,-1.2702265977859497
1772790186533344300,19.84334423828125,0.3293755352497101,1.017735242843628,-0.8409937024116516
1772790186553379300,19.86337939453125,0.23905378580093384,1.0191466808319092,-0.3384754955768585
1772790186573415200,19.883415283203124,0.2312515676021576,0.8792964220046997,0.040179118514060974
1772790186593450200,19.9034501953125,0.31791946291923523,0.5632622838020325,0.25078150629997253
1772790186613486600,19.923486572265624,0.5050985813140869,0.20209234952926636,0.36542680859565735
1772790186633521700,19.943521728515623,0.7254360318183899,-0.0938338041305542,0.45799148082733154
1772790186653557500,19.9635576171875,0.9017738699913025,-0.2553964853286743,0.586329996585846
1772790186673592600,19.983592529296875,1.0259226560592651,-0.3526725471019745,0.7458321452140808
1772790186693628700,20.003628662109374,1.110617756843567,-0.28743937611579895,0.9376853108406067
1772790186713663500,20.02366357421875,1.2358381748199463,-0.12584728002548218,1.1093931198120117
1772790186733699600,20.043699462890626,1.3954567909240723,0.1536523848772049,1.229522943496704
1772790186753734700,20.063734619140625,1.577850580215454,0.5305715203285217,1.2847580909729004
1772790186773769700,20.083769775390625,1.7183895111083984,0.9688459634780884,1.3470202684402466
1772790186793805600,20.1038056640625,1.837735652923584,1.4165868759155273,1.5020874738693237
1772790186813840400,20.12384033203125,1.911808729171753,1.7847130298614502,1.782309889793396
1772790186833876700,20.143876708984376,1.9209741353988647,2.0597217082977295,2.089033842086792
1772790186853911300,20.163911376953124,1.9115917682647705,2.2375855445861816,2.3443915843963623
1772790186873947600,20.18394775390625,1.8937898874282837,2.2513747215270996,2.4905834197998047
1772790186893982500,20.203982421875,1.860234260559082,2.1170907020568848,2.4990029335021973
1772790186914018300,20.224018310546874,1.8147504329681396,1.8097783327102661,2.3391945362091064
1772790186934053400,20.244053466796874,1.7326297760009766,1.3564783334732056,2.031219720840454
1772790186954088400,20.26408837890625,1.596265196800232,0.7974523901939392,1.6097087860107422
1772790186974124500,20.28412451171875,1.408371925354004,0.1936030238866806,1.1157245635986328
1772790186994159400,20.304159423828125,1.1831640005111694,-0.3601696789264679,0.6125574111938477
1772790187014195500,20.324195556640625,0.953251838684082,-0.810592532157898,0.13198257982730865
1772790187034230500,20.34423046875,0.7785712480545044,-1.1206274032592773,-0.24392808973789215
1772790187054266400,20.364266357421876,0.6432734727859497,-1.3442424535751343,-0.49508893489837646
1772790187074301400,20.384301513671875,0.5513466596603394,-1.4306951761245728,-0.6737544536590576
1772790187094337500,20.404337646484375,0.49077242612838745,-1.3832590579986572,-0.8387712240219116
1772790187114372600,20.42437255859375,0.33910125494003296,-1.1920957565307617,-0.9058881998062134
1772790187134408400,20.444408447265626,0.13479278981685638,-0.9269191026687622,-0.7938032150268555
1772790187154443500,20.464443603515626,-0.028485234826803207,-0.5943729281425476,-0.5238150358200073
1772790187174478600,20.484478515625,-0.07180017977952957,-0.26459845900535583,-0.2189522385597229
1772790187194514400,20.504514404296874,-0.016814254224300385,0.07656018435955048,-0.11555665731430054
1772790187214549500,20.524549560546873,-0.019377771764993668,0.3343486189842224,-0.11022090911865234
1772790187234585600,20.544585693359377,-0.13905632495880127,0.3843938708305359,-0.037295930087566376
1772790187254620700,20.56462060546875,-0.3979599177837372,0.345563679933548,0.029041409492492676
1772790187274656500,20.584656494140624,-0.7252761125564575,0.2051696926355362,-0.059635378420352936
1772790187294691600,20.604691650390624,-1.0797233581542969,0.008134601637721062,-0.3240237832069397
1772790187314727400,20.6247275390625,-1.464480996131897,-0.25832080841064453,-0.7344527244567871
1772790187334762500,20.644762451171875,-1.8257850408554077,-0.4863564074039459,-1.2620435953140259
1772790187354798600,20.664798583984375,-2.0964713096618652,-0.6581646203994751,-1.763542890548706
1772790187374833700,20.684833740234374,-2.2374866008758545,-0.7555828094482422,-2.0930702686309814
1772790187394868700,20.70486865234375,-2.22752046585083,-0.7804575562477112,-2.2366836071014404
1772790187414904600,20.724904541015626,-2.0785133838653564,-0.5799242854118347,-2.2626168727874756
1772790187434939400,20.744939453125,-1.8360869884490967,-0.16876107454299927,-2.287658214569092
1772790187454975500,20.7649755859375,-1.6722211837768555,0.3734223246574402,-2.235133171081543
1772790187475010300,20.78501025390625,-1.6189382076263428,0.9354337453842163,-2.007500171661377
1772790187495046700,20.805046630859376,-1.5965996980667114,1.3108229637145996,-1.6275538206100464
1772790187515081500,20.82508154296875,-1.562662124633789,1.4478704929351807,-1.1529908180236816
1772790187535116500,20.845116455078124,-1.5203009843826294,1.317294716835022,-0.6755880117416382
1772790187555152400,20.86515234375,-1.4463658332824707,0.9436565637588501,-0.2461729496717453
1772790187575187500,20.8851875,-1.294895887374878,0.34889963269233704,0.10043294727802277
1772790187595223600,20.9052236328125,-1.0921293497085571,-0.325023889541626,0.36969730257987976
1772790187615258400,20.92525830078125,-0.8669676780700684,-1.0232903957366943,0.5346829295158386
1772790187635294500,20.94529443359375,-0.6817063689231873,-1.583528995513916,0.64444899559021
1772790187655329500,20.96532958984375,-0.5553475022315979,-2.041224241256714,0.7604407072067261
1772790187675365400,20.985365478515625,-0.526870846748352,-2.3414783477783203,0.8358038663864136
1772790187695400400,21.005400390625,-0.6386746168136597,-2.3852083683013916,0.7967129945755005
1772790187715436500,21.0254365234375,-0.8151059150695801,-2.230269432067871,0.6181775331497192
1772790187735471400,21.045471435546876,-0.9443073868751526,-1.9443820714950562,0.4154280126094818
1772790187755506400,21.06550634765625,-1.0373932123184204,-1.5507324934005737,0.3359753489494324
1772790187775542500,21.08554248046875,-1.179544448852539,-1.0487844944000244,0.4610159993171692
1772790187795577600,21.10557763671875,-1.3006644248962402,-0.5657888650894165,0.8287131786346436
1772790187815613400,21.125613525390627,-1.2795023918151855,-0.16594548523426056,1.3762626647949219
1772790187835648500,21.1456484375,-1.1380207538604736,0.07339796423912048,1.888009786605835
1772790187855684600,21.1656845703125,-0.8909529447555542,0.23313146829605103,2.1012182235717773
1772790187875719400,21.185719482421874,-0.5879043340682983,0.2975703775882721,1.8776912689208984
1772790187895755500,21.205755615234374,-0.3619329035282135,0.33031022548675537,1.3165515661239624
1772790187915790600,21.22579052734375,-0.24778124690055847,0.34320855140686035,0.5612007975578308
1772790187935825700,21.24582568359375,-0.06781816482543945,0.33561229705810547,-0.276867151260376
1772790187955861500,21.265861572265624,0.22792384028434753,0.3325129449367523,-1.0130261182785034
1772790187975896600,21.285896484375,0.5785845518112183,0.3742921054363251,-1.5860525369644165
1772790187995932700,21.3059326171875,0.9061427712440491,0.45184606313705444,-1.944023847579956
1772790188015967500,21.325967529296875,1.1107038259506226,0.42340320348739624,-2.010875701904297
1772790188036003600,21.346003662109375,1.15084707736969,0.28593307733535767,-1.8491004705429077
1772790188056038700,21.36603857421875,1.1226632595062256,0.14073580503463745,-1.6262798309326172
1772790188076074500,21.386074462890626,1.2042670249938965,0.04880072921514511,-1.4472973346710205
1772790188096109600,21.406109619140626,1.3231784105300903,-0.06084321066737175,-1.1247445344924927
1772790188116144600,21.42614453125,1.5778779983520508,-0.2003687620162964,-0.6042243838310242
1772790188136180700,21.4461806640625,1.990668773651123,-0.27094876766204834,-0.027419812977313995
1772790188156215600,21.466215576171876,2.368147134780884,-0.17738433182239532,0.4894315302371979
1772790188176251600,21.486251708984376,2.5262656211853027,0.006362504325807095,0.8415409922599792
1772790188196286500,21.506286376953124,2.388465166091919,0.08501212298870087,1.0574368238449097
1772790188216322600,21.526322509765624,2.2875051498413086,-0.060466982424259186,1.055659532546997
1772790188236357400,21.546357421875,2.457939624786377,-0.4589536488056183,0.9826703667640686
1772790188256392400,21.566392333984375,2.7285056114196777,-0.764347493648529,0.8024531006813049
1772790188276428500,21.586428466796875,2.9338362216949463,-0.8849709630012512,0.4942660927772522
1772790188296463600,21.606463623046874,2.966205358505249,-1.3569214344024658,0.3215678334236145
1772790188316499500,21.62649951171875,3.012645721435547,-2.217674732208252,0.26377633213996887
1772790188336534500,21.646534423828125,3.119774580001831,-3.340329885482788,0.3143565356731415
1772790188356570400,21.6665703125,3.044105291366577,-4.50932502746582,0.3853205144405365
1772790188376605400,21.68660546875,2.850486993789673,-5.38532829284668,0.3415146470069885
1772790188396641500,21.7066416015625,2.6724257469177246,-6.169066905975342,0.3586035668849945
1772790188416676600,21.726676513671876,2.459606409072876,-6.975841045379639,0.5527421236038208
1772790188436711400,21.74671142578125,2.119940757751465,-7.606046199798584,0.720874011516571
1772790188456747500,21.76674755859375,1.6642383337020874,-7.776224613189697,0.6795747876167297
1772790188476782600,21.786782470703123,1.354163408279419,-7.3079423904418945,0.7359176874160767
1772790188496818400,21.806818359375,1.1210894584655762,-6.548613548278809,1.1796531677246094
1772790188516853500,21.826853515625,0.9877321720123291,-5.965907096862793,1.7319254875183105
1772790188536889600,21.8468896484375,1.0287340879440308,-5.665012836456299,1.9701286554336548
1772790188556924700,21.866924560546874,0.9790956377983093,-5.158662796020508,1.9412639141082764
1772790188576959500,21.88695947265625,0.7387299537658691,-4.350436210632324,1.7047333717346191
1772790188596995600,21.90699560546875,0.449926495552063,-3.4566235542297363,1.4492658376693726
1772790188617030400,21.927030517578125,0.36868909001350403,-2.9071545600891113,1.2801223993301392
1772790188637066200,21.947066162109376,0.43610870838165283,-2.5372214317321777,1.182580828666687
1772790188657101300,21.967101318359376,0.5250334739685059,-2.012712240219116,1.0466196537017822
1772790188677137400,21.987137451171876,0.6640955805778503,-1.1354711055755615,0.9025643467903137
1772790188697172500,22.00717236328125,0.8526492714881897,-0.3444916009902954,0.8658673763275146
1772790188717208300,22.027208251953127,0.8011909127235413,0.37783992290496826,0.8516911268234253
1772790188737243400,22.047243408203126,0.6468654870986938,0.9766059517860413,0.5575239062309265
1772790188757279500,22.067279541015626,0.719497799873352,0.9693405032157898,0.13088417053222656
1772790188777314300,22.087314208984374,0.7296582460403442,0.4434054493904114,-0.2227773666381836
1772790188797349400,22.107349365234374,0.4976603388786316,0.1720607429742813,-0.3974250853061676
1772790188817385500,22.127385498046873,0.44384515285491943,0.5402970910072327,-0.35220566391944885
1772790188837420500,22.147420654296877,0.6091215014457703,1.4332011938095093,-0.021155450493097305
1772790188857456400,22.167456298828125,0.8566280603408813,2.128591537475586,0.5570732951164246
1772790188877491500,22.187491455078124,0.9106674790382385,2.2164201736450195,1.1583514213562012
1772790188897527600,22.207527587890624,0.7147012948989868,1.767687439918518,1.517112135887146
1772790188917562400,22.227562255859375,0.38809898495674133,1.0249404907226562,1.432737946510315
1772790188937597400,22.247597412109375,0.15547552704811096,0.6204043030738831,0.9019632339477539
1772790188957633500,22.267633544921875,0.2574809789657593,0.6350787281990051,0.3745771646499634
1772790188977668600,22.287668701171874,0.52679443359375,0.8429381251335144,0.38907498121261597
1772790188997704400,22.307704345703126,0.7626398801803589,0.8901516795158386,0.5575860738754272
1772790189017739500,22.327739501953126,0.936248779296875,0.683527410030365,0.4707522690296173
1772790189037775600,22.347775634765625,1.0173451900482178,0.49915456771850586,0.23343424499034882
1772790189057810400,22.367810546875,0.9587709903717041,0.2846367359161377,0.10564564913511276
1772790189077846500,22.387846435546876,0.8229109048843384,0.22006797790527344,0.15194755792617798
1772790189097881300,22.40788134765625,0.769612729549408,0.22322773933410645,0.3230912685394287
1772790189117916400,22.42791650390625,0.7958040833473206,0.06121474876999855,0.4270481467247009
1772790189137952300,22.4479521484375,0.8418631553649902,-0.10000753402709961,0.21898452937602997
1772790189157987300,22.4679873046875,0.86842280626297,-0.24835629761219025,-0.10800469666719437
1772790189178023400,22.4880234375,0.8807891607284546,-0.3742574155330658,-0.3651135563850403
1772790189198058200,22.508058349609374,0.7959322333335876,-0.5348207950592041,-0.41533946990966797
1772790189218094300,22.52809423828125,0.7064429521560669,-0.5176790952682495,-0.29995301365852356
1772790189238129400,22.54812939453125,0.6173142194747925,-0.3685931861400604,-0.08138195425271988
1772790189258164500,22.56816455078125,0.5868333578109741,-0.24383074045181274,-0.032328344881534576
1772790189278200300,22.588200439453125,0.5523560643196106,-0.15383832156658173,-0.17069925367832184
1772790189298235400,22.6082353515625,0.4095028340816498,-0.1333998441696167,-0.16806893050670624
1772790189318271500,22.628271484375,0.2998214066028595,-0.044959258288145065,-0.1156776025891304
1772790189338306300,22.648306396484376,0.2239549607038498,0.08224568516016006,-0.019507411867380142
1772790189358342400,22.66834228515625,0.23136280477046967,0.18940912187099457,0.15069852769374847
1772790189378377500,22.68837744140625,0.23137663304805756,0.20447799563407898,0.19606930017471313
1772790189398413300,22.708413330078123,0.21510693430900574,0.09343305230140686,-0.026319190859794617
1772790189418448400,22.728448486328126,0.1576622873544693,-0.00451641995459795,-0.2772342264652252
1772790189438483500,22.7484833984375,0.012859710492193699,0.03097742423415184,-0.31529173254966736
1772790189458519600,22.76851953125,-0.1245947778224945,-0.019507789984345436,-0.21444769203662872
1772790189478554400,22.788554443359374,-0.016007568687200546,-0.3448191285133362,-0.2966344952583313
1772790189498590500,22.808590576171873,0.2680257558822632,-0.4166426658630371,-0.8113517761230469
1772790189518625500,22.82862548828125,0.4060204029083252,-0.1935972273349762,-1.3294885158538818
1772790189538661400,22.848661376953125,0.8750064969062805,0.18842482566833496,-1.8176130056381226
1772790189558696400,22.868696533203124,1.547156572341919,0.28745925426483154,-1.7362381219863892
1772790189578732500,22.888732666015624,1.1681166887283325,-0.020337972790002823,-0.7872140407562256
1772790189598767600,22.908767578125,0.3184709846973419,0.04787462204694748,-0.11838731169700623
1772790189618802400,22.928802490234375,-0.5145896673202515,0.2258683294057846,0.3779018521308899
1772790189638838300,22.94883837890625,-0.7258918285369873,0.3155311346054077,0.5050390958786011
1772790189658873300,22.968873291015626,-0.6854988932609558,0.09642042964696884,0.4674862027168274
1772790189678909200,22.9889091796875,-0.8413161039352417,0.17317070066928864,0.4327935576438904
1772790189698944300,23.0089443359375,-0.9455530047416687,-0.10983553528785706,0.3862432837486267
1772790189718980400,23.02898046875,-0.7418164014816284,-0.8468290567398071,0.30380386114120483
1772790189739015400,23.049015380859377,-0.2589580714702606,-1.1300710439682007,0.07636323571205139
1772790189759050500,23.069050537109376,-0.20338936150074005,-1.2442253828048706,-0.36618590354919434
1772790189779086300,23.08908642578125,-0.13369296491146088,-0.8123679757118225,-1.0129363536834717
1772790189799121400,23.109121337890624,-0.04155223071575165,0.31116217374801636,-1.4494882822036743
1772790189819157200,23.1291572265625,-0.030772609636187553,0.5711240172386169,-1.054355263710022
1772790189839192300,23.1491923828125,0.028764497488737106,0.6493822336196899,-0.43267324566841125
1772790189859228400,23.169228515625,0.09148010611534119,0.8167359232902527,-0.02570108138024807
1772790189879263500,23.189263427734375,0.03411953151226044,1.1919273138046265,0.15826797485351562
1772790189899298300,23.20929833984375,0.06767699122428894,1.4503657817840576,0.06832226365804672
1772790189919334400,23.22933447265625,0.0525490902364254,1.3573007583618164,0.20024460554122925
1772790189939369500,23.249369384765625,0.1000467985868454,0.9657991528511047,0.1636020541191101
1772790189959405300,23.2694052734375,0.1107754111289978,0.7679592967033386,-0.0068913670256733894
1772790189979440400,23.2894404296875,0.21685148775577545,0.9465560913085938,-0.21642333269119263
1772790189999476500,23.3094765625,0.4863113462924957,1.4635089635849,-0.4646412432193756
1772790190019511600,23.329511474609376,0.6889708042144775,1.807220697402954,-0.6729862689971924
1772790190039546400,23.34954638671875,0.7381515502929688,2.082282304763794,-0.8118143081665039
1772790190059582500,23.36958251953125,0.660599946975708,2.0359294414520264,-0.8389069437980652
1772790190079617300,23.3896171875,0.41710934042930603,1.7613459825515747,-0.7385529279708862
1772790190099653400,23.4096533203125,0.24133913218975067,1.6142191886901855,-0.5776976943016052
1772790190119688200,23.429688232421874,0.4524421691894531,1.8497138023376465,-0.39792779088020325
1772790190139724500,23.449724609375,0.7627542018890381,2.465104818344116,-0.1323014199733734
1772790190159759400,23.46975927734375,0.9490981698036194,3.14955735206604,0.29387354850769043
1772790190179794400,23.48979443359375,0.9211003184318542,3.6217715740203857,0.7278199791908264
1772790190199830300,23.509830322265625,0.7609490752220154,4.16626501083374,0.9585767984390259
1772790190219865300,23.529865234375,0.5183128118515015,4.62891960144043,1.0179717540740967
1772790190239901200,23.549901123046876,0.12709686160087585,5.30342960357666,0.8611319065093994
1772790190259936300,23.569936279296876,-0.27716243267059326,5.893517017364502,0.6683628559112549
1772790190279972400,23.589972412109375,-0.6018489003181458,6.4413604736328125,0.7413902282714844
1772790190300007400,23.61000732421875,-0.9475471377372742,6.777383804321289,1.124335527420044
1772790190320042500,23.63004248046875,-1.3437522649765015,6.986139297485352,1.8357837200164795
1772790190340078300,23.650078369140626,-1.828812599182129,6.8419318199157715,2.749431848526001
1772790190360113400,23.670113525390626,-2.448556661605835,6.4742021560668945,3.6373684406280518
1772790190380149200,23.690149169921874,-3.344437837600708,5.794055461883545,4.215268135070801
1772790190400184300,23.710184326171873,-4.313096523284912,4.60653829574585,4.358944416046143
1772790190420220400,23.730220458984373,-5.143346309661865,2.9712390899658203,3.7807469367980957
1772790190440255500,23.75025537109375,-5.815161228179932,1.342429518699646,2.577615261077881
1772790190460290300,23.770290283203124,-6.079286098480225,-0.20796158909797668,0.9711199402809143
1772790190480326400,23.790326416015624,-6.120375633239746,-1.2574152946472168,-0.6949938535690308
1772790190500361500,23.810361572265624,-6.359335422515869,-1.667873501777649,-1.8936594724655151
1772790190520397300,23.830397216796875,-6.453577041625977,-2.115487575531006,-2.5564517974853516
1772790190540432400,23.850432373046875,-6.08127498626709,-2.4766509532928467,-2.7924885749816895
1772790190560467500,23.870467529296874,-5.197699069976807,-2.676912307739258,-2.7225089073181152
1772790190580503600,23.890503662109374,-3.9968371391296387,-2.6490578651428223,-2.4164772033691406
1772790190600538400,23.910538330078126,-2.8231022357940674,-2.370410680770874,-1.9309693574905396
1772790190620574000,23.930573974609374,-1.6505746841430664,-2.1422061920166016,-1.2500332593917847
1772790190640609000,23.950609130859377,-0.8999587297439575,-1.980861783027649,-0.5280781388282776
1772790190660645000,23.97064501953125,-0.5204118490219116,-1.6931781768798828,0.015355455689132214
1772790190680680000,23.990679931640624,-0.3786088526248932,-1.3825031518936157,0.26393043994903564
1772790190700715000,24.010715087890624,-0.39305391907691956,-1.1790894269943237,0.2003726363182068
1772790190720751000,24.030751220703124,-0.42207396030426025,-1.0137466192245483,-0.11553722620010376
1772790190740786200,24.0507861328125,-0.31119751930236816,-1.1364582777023315,-0.6478578448295593
1772790190760822000,24.070822021484375,-0.17526429891586304,-1.264409065246582,-1.2220234870910645
1772790190780857000,24.090857177734375,-0.5345275402069092,-1.2305784225463867,-1.7443597316741943
1772790190800892200,24.11089208984375,-1.440462350845337,-1.4465253353118896,-1.869787335395813
1772790190820928000,24.130927978515626,-2.1377179622650146,-1.7577180862426758,-1.7417182922363281
1772790190840963000,24.150963134765625,-2.47283935546875,-1.9426575899124146,-1.6266244649887085
1772790190860999200,24.170999267578125,-2.722344398498535,-1.6987643241882324,-1.4885939359664917
1772790190881034200,24.1910341796875,-2.784254312515259,-1.0710724592208862,-1.4102609157562256
1772790190901070000,24.211070068359376,-2.464151382446289,-0.805878221988678,-1.0882987976074219
1772790190921105200,24.231105224609376,-1.7523669004440308,-0.7879793047904968,-0.5853409171104431
1772790190941140000,24.251139892578124,-0.7365202307701111,-0.4029800593852997,-0.10888505727052689
1772790190961176000,24.271176025390623,0.3108256757259369,0.05263081565499306,0.23758059740066528
1772790190981211000,24.2912109375,1.2861652374267578,0.7317889332771301,0.3209990859031677
1772790191001247000,24.3112470703125,1.8319813013076782,0.647401750087738,0.1461336463689804
1772790191021282000,24.331281982421874,2.1748671531677246,0.5563088655471802,0.27650317549705505
1772790191041316900,24.35131689453125,2.374356508255005,0.32186421751976013,0.5265300869941711
1772790191061353000,24.37135302734375,2.664350748062134,0.6634545922279358,0.025131281465291977
1772790191081388000,24.391387939453125,2.4856154918670654,0.6706942319869995,-0.8006811738014221
1772790191101423900,24.411423828125,2.16636061668396,0.8664745688438416,-1.3046449422836304
1772790191121459000,24.431458984375,2.089341878890991,1.0605590343475342,-1.2279382944107056
1772790191141494000,24.451493896484376,2.6941335201263428,1.1847624778747559,-0.8622739315032959
1772790191161530000,24.471530029296876,4.076353549957275,1.11985182762146,-0.26843076944351196
1772790191181565000,24.49156494140625,4.974107265472412,2.984882354736328,0.5789055228233337
1772790191201601000,24.51160107421875,4.4400482177734375,4.264744281768799,1.463444471359253
1772790191221636000,24.531635986328126,3.514474868774414,3.9850995540618896,2.0420730113983154
1772790191241672000,24.551671875,2.3414037227630615,3.6345136165618896,1.8191484212875366
1772790191261707000,24.57170703125,1.05501389503479,2.5040457248687744,1.107067346572876
1772790191281742000,24.5917421875,-0.1416001170873642,0.6347501277923584,0.128337562084198
1772790191301778200,24.611778076171873,-1.0279425382614136,-1.1510895490646362,-0.6164140105247498
1772790191321813000,24.63181298828125,-1.668815016746521,-2.3206675052642822,-0.8791698217391968
1772790191341849000,24.65184912109375,-1.9015305042266846,-2.8117382526397705,-0.6353461742401123
1772790191361884200,24.67188427734375,-1.724740982055664,-2.640949249267578,-0.49113091826438904
1772790191381919200,24.691919189453124,-1.3105705976486206,-1.9694998264312744,-0.8504577875137329
1772790191401955000,24.711955078125,-0.7772917747497559,-1.2128517627716064,-1.2978492975234985
1772790191421990100,24.731990234375,-0.2911754846572876,-0.6439200639724731,-1.4095097780227661
1772790191442026200,24.752026123046875,0.1780862808227539,-0.2850697934627533,-1.3566502332687378
1772790191462061000,24.77206103515625,0.5244466662406921,-0.1357073038816452,-1.2112102508544922
1772790191482095900,24.792095947265626,0.8569536209106445,-0.21578288078308105,-0.9923530220985413
1772790191502132000,24.812132080078126,1.1833688020706177,-0.3845441937446594,-0.8812839984893799
1772790191522167000,24.8321669921875,1.4843108654022217,-0.6104674339294434,-0.9205581545829773
1772790191542203000,24.852202880859377,1.754884958267212,-0.9128808975219727,-0.982357919216156
1772790191562238000,24.872238037109376,1.8417041301727295,-1.1820255517959595,-0.8973293900489807
1772790191582274000,24.892274169921876,1.7089718580245972,-1.4017796516418457,-0.6404346227645874
1772790191602308900,24.912308837890624,1.175896406173706,-1.5033732652664185,-0.27791789174079895
1772790191622344000,24.932343994140624,0.5360435843467712,-1.4820854663848877,-0.08620309829711914
1772790191642380300,24.95238037109375,0.009676547721028328,-1.2274258136749268,-0.22060981392860413
1772790191662415000,24.9724150390625,-0.2870100140571594,-1.344024896621704,-0.17904463410377502
1772790191682451000,24.992450927734374,-0.6113608479499817,-0.9395657777786255,0.12682278454303741
1772790191702486000,25.012486083984374,-1.277432918548584,-0.5454381108283997,0.6052327156066895
1772790191722521000,25.03252099609375,-1.8978216648101807,-0.2544771134853363,1.1031503677368164
1772790191742557000,25.052556884765625,-2.4420363903045654,-0.4918433725833893,1.5966639518737793
1772790191762592000,25.072592041015625,-2.840628147125244,-0.7437629699707031,1.8320213556289673
