time,seconds_elapsed,z,y,x
1772789748670626800,0.270626708984375,-0.013813018798828125,-0.011183083057403564,-0.006224982440471649
1772789748690727000,0.290726806640625,-0.023461341857910156,-0.04375755786895752,-0.0017405003309249878
1772789748710827300,0.3108271484375,-0.02352142333984375,-0.07170027494430542,-0.007065020501613617
1772789748730927400,0.33092724609375,-0.056481361389160156,-0.03783470392227173,0.007231555879116058
1772789748751027700,0.35102783203125,-0.018777847290039062,-0.0039691925048828125,-0.002580106258392334
1772789748771127800,0.3711279296875,0.009357452392578125,0.0099259614944458,0.011471636593341827
1772789748791228200,0.391228271484375,-0.018833160400390625,0.0393146276473999,0.0018275901675224304
1772789748811328300,0.411328369140625,-0.05660438537597656,0.04050302505493164,0.0056918710470199585
1772789748831428600,0.4314287109375,-0.02851104736328125,0.0029785633087158203,0.005639776587486267
1772789748851528700,0.45152880859375,-0.0052165985107421875,-0.053548336029052734,-0.01805105060338974
1772789748871628800,0.47162890625,-0.05673503875732422,-0.06289929151535034,-0.02295113354921341
1772789748891729200,0.491729248046875,-0.05675792694091797,-0.02903050184249878,0.0009379833936691284
1772789748911829200,0.511829345703125,-0.005282402038574219,-0.023856043815612793,0.010393880307674408
1772789748931929600,0.5319296875,0.004267692565917969,0.01495736837387085,0.024750851094722748
1772789748952029700,0.55202978515625,-0.019124984741210938,0.03944754600524902,0.005471818149089813
1772789748972130000,0.572130126953125,-0.047919273376464844,0.016241252422332764,0.0008351132273674011
1772789748992230100,0.592230224609375,-0.038367271423339844,0.0023033618927001953,-0.0136471688747406
1772789749012330200,0.612330322265625,-0.047982215881347656,0.007529139518737793,0.005041494965553284
1772789749032430600,0.6324306640625,-0.02405548095703125,-0.015988171100616455,0.019506491720676422
1772789749052531000,0.652531005859375,0.004073143005371094,-0.006127774715423584,-0.004408515989780426
1772789749072631000,0.672631103515625,0.008826255798339844,0.013574004173278809,0.00016298890113830566
1772789749092731100,0.692731201171875,-0.01937103271484375,0.009584248065948486,0.00036957859992980957
1772789749112831500,0.71283154296875,-0.033797264099121094,0.005595505237579346,-0.009262539446353912
1772789749132931600,0.732931640625,-0.015286445617675781,0.0063973069190979,-0.00468318909406662
1772789749153032000,0.753031982421875,-0.05306529998779297,-0.0072765350341796875,0.038163088262081146
1772789749173131800,0.7731318359375,-0.029143333435058594,0.01726585626602173,0.028326667845249176
1772789749193231400,0.7932314453125,-0.029176712036132812,0.02253878116607666,0.00011416524648666382
1772789749213330700,0.81333056640625,-0.029229164123535156,-0.014439821243286133,0.008765369653701782
1772789749233430300,0.83343017578125,-0.034046173095703125,-0.018793463706970215,0.004178829491138458
1772789749253529600,0.853529541015625,-0.02986907958984375,-0.01862114667892456,-0.02495259791612625
1772789749273629200,0.873629150390625,-0.034073829650878906,-0.02323538064956665,-0.02016090601682663
1772789749293728800,0.893728759765625,-0.02510833740234375,-0.04695582389831543,-0.011500455439090729
1772789749313828000,0.913828125,-0.01074981689453125,-0.0179826021194458,-0.021035708487033844
1772789749333927700,0.933927734375,-0.02515411376953125,0.001610875129699707,-0.0022103488445281982
1772789749354027000,0.954027099609375,-0.020392417907714844,0.01162177324295044,0.007306218147277832
1772789749374126600,0.974126708984375,-0.06258773803710938,-0.0022902488708496094,0.0016801506280899048
1772789749394226000,0.994225830078125,-0.11449241638183594,0.08564251661300659,-0.05163869261741638
1772789749414325500,1.014325439453125,-0.3491392135620117,-0.07035630941390991,0.22748401761054993
1772789749434424800,1.0344248046875,0.4655027389526367,-0.06567925214767456,-0.034628719091415405
1772789749454524400,1.0545244140625,-0.3210287094116211,-0.022660136222839355,0.016440346837043762
1772789749474624000,1.0746240234375,0.06984519958496094,0.11887264251708984,-0.08243921399116516
1772789749494723300,1.094723388671875,0.08542442321777344,0.5355608463287354,0.2763495445251465
1772789749514823000,1.114822998046875,-1.1961536407470703,1.243939757347107,0.48654210567474365
1772789749534922200,1.134922119140625,-0.029715538024902344,0.8073416352272034,-0.8184555172920227
1772789749555021800,1.155021728515625,1.9228601455688477,0.6011321544647217,-1.1964857578277588
1772789749575121400,1.175121337890625,0.7122201919555664,3.4287943840026855,-1.6850303411483765
1772789749595220700,1.195220703125,-0.0007352828979492188,2.5664710998535156,-3.5219876766204834
1772789749615320300,1.2153203125,0.2473297119140625,0.5051813125610352,-4.449153423309326
1772789749635419600,1.235419677734375,-0.34723758697509766,0.09543943405151367,-3.1139585971832275
1772789749655519200,1.255519287109375,0.10974693298339844,0.8585383892059326,-1.060685157775879
1772789749675618300,1.275618408203125,0.1935272216796875,1.3125743865966797,-0.6734644174575806
1772789749695717400,1.29571728515625,0.2685251235961914,1.0228235721588135,-2.222551107406616
1772789749715816400,1.31581640625,0.23284149169921875,-0.030480265617370605,-2.486090898513794
1772789749735915300,1.335915283203125,-1.731257438659668,0.16634881496429443,-0.4631684422492981
1772789749756014300,1.356014404296875,-1.373025894165039,0.3466637134552002,0.536872923374176
1772789749776113200,1.376113037109375,0.3610725402832031,0.3926050662994385,0.2451343685388565
1772789749796212200,1.396212158203125,0.4036111831665039,0.22330796718597412,0.6713350415229797
1772789749816311300,1.416311279296875,-0.09309101104736328,-0.37966448068618774,2.3586955070495605
1772789749836410000,1.43641015625,-0.058030128479003906,-0.6509614586830139,2.1101760864257812
1772789749856509200,1.45650927734375,-0.2884550094604492,-0.43459826707839966,1.3180009126663208
1772789749876608000,1.47660791015625,-0.5464611053466797,-0.14213848114013672,1.4009923934936523
1772789749896707000,1.49670703125,-0.17010116577148438,-0.4346092939376831,1.3020410537719727
1772789749916806100,1.51680615234375,0.1169281005859375,-0.9718462228775024,1.378772497177124
1772789749936905000,1.536905029296875,-0.2814607620239258,-1.3622325658798218,2.155038833618164
1772789749957004000,1.557004150390625,-0.6524066925048828,-1.112178921699524,2.004181146621704
1772789749977102800,1.577102783203125,-0.13435745239257812,-1.304599404335022,0.8964743614196777
1772789749997202000,1.597201904296875,0.11029624938964844,-1.3073854446411133,0.681122899055481
1772789750017301000,1.617301025390625,0.7622709274291992,-1.0407243967056274,0.2687661051750183
1772789750037399800,1.63739990234375,0.25368690490722656,-1.71950364112854,0.08694469928741455
1772789750057499000,1.657498779296875,-0.5971240997314453,-2.140186071395874,0.7783331871032715
1772789750077598000,1.677597900390625,0.19966602325439453,-1.8448047637939453,0.32238104939460754
1772789750097696800,1.69769677734375,0.15198040008544922,-1.5565857887268066,-0.12705785036087036
1772789750117795800,1.7177958984375,-0.04210472106933594,-1.05459463596344,0.014300942420959473
1772789750137895000,1.73789501953125,0.6719026565551758,-0.08266794681549072,0.027428358793258667
1772789750157993700,1.75799365234375,0.2681922912597656,-0.058167338371276855,-0.10238716006278992
1772789750178092300,1.77809228515625,-0.10400867462158203,-0.054534733295440674,-0.0004692375659942627
1772789750198190300,1.7981904296875,0.1985321044921875,0.09740042686462402,0.15694358944892883
1772789750218288400,1.818288330078125,-0.024720191955566406,0.05135685205459595,0.032306522130966187
1772789750238386400,1.838386474609375,-0.21151447296142578,-0.04634898900985718,-0.060832709074020386
1772789750258484500,1.858484375,0.41594886779785156,-0.18353968858718872,-0.07098445296287537
1772789750278582800,1.878582763671875,0.7646713256835938,-0.21596366167068481,-0.030809730291366577
1772789750298680800,1.898680908203125,0.28572750091552734,0.6425538659095764,0.06779152154922485
1772789750318779000,1.91877880859375,-2.1860976219177246,-0.10839670896530151,0.08701062202453613
1772789750338877000,1.938876953125,-0.34955406188964844,0.03622716665267944,-0.021506547927856445
1772789750358975000,1.95897509765625,1.2007036209106445,-0.008593976497650146,-0.15160608291625977
1772789750379073300,1.9790732421875,-0.3445558547973633,-0.04500246047973633,0.10190421342849731
1772789750399171300,1.99917138671875,-0.3450746536254883,0.07225143909454346,-0.04280668497085571
1772789750419269400,2.019269287109375,0.28376293182373047,-0.05881655216217041,0.03240269422531128
1772789750439367400,2.039367431640625,-0.1606273651123047,0.01837867498397827,-0.012239277362823486
1772789750459465700,2.0594658203125,-0.04761981964111328,0.009848296642303467,0.018668264150619507
1772789750479563800,2.079563720703125,0.023660659790039062,-0.01388007402420044,-0.001280754804611206
1772789750499661800,2.099661865234375,-0.08544921875,-0.04594463109970093,-0.009819179773330688
1772789750519760000,2.119759765625,0.05643272399902344,-0.04995584487915039,0.009019553661346436
1772789750539858000,2.13985791015625,-0.028635025024414062,-0.04966014623641968,-0.019650131464004517
1772789750559956200,2.159956298828125,-0.038277626037597656,-0.06324803829193115,-0.010173320770263672
1772789750580054300,2.18005419921875,-0.000518798828125,-0.04006516933441162,0.0038281679153442383
1772789750600152300,2.20015234375,-0.05207347869873047,-0.020407557487487793,0.004126131534576416
1772789750620250400,2.22025048828125,-0.010210990905761719,-0.014319241046905518,-0.0012698471546173096
1772789750640348400,2.240348388671875,-0.038384437561035156,-0.023569703102111816,-0.0012638866901397705
1772789750660446700,2.26044677734375,-0.052819252014160156,-0.008664250373840332,-0.01042357087135315
1772789750680545800,2.2805458984375,-0.010361671447753906,-0.022320687770843506,0.004022538661956787
1772789750700645400,2.300645263671875,-0.015192031860351562,-0.02667766809463501,0.023275822401046753
1772789750720745000,2.320744873046875,-0.04340839385986328,-0.026156187057495117,-0.00003930926322937012
1772789750740844500,2.340844482421875,-0.05781745910644531,-0.0017699599266052246,-0.000008225440979003906
1772789750760944400,2.3609443359375,-0.033916473388671875,0.003667294979095459,0.023941844701766968
1772789750781044000,2.3810439453125,-0.010610580444335938,0.00898432731628418,0.01873481273651123
1772789750801143600,2.4011435546875,-0.05317497253417969,0.028761446475982666,0.009023845195770264
1772789750821243100,2.4212431640625,-0.043659210205078125,0.0054288506507873535,0.014173775911331177
1772789750841342700,2.4413427734375,-0.020391464233398438,0.0013216733932495117,0.005368679761886597
1772789750861442300,2.4614423828125,-0.039061546325683594,-0.01133185625076294,0.010496288537979126
1772789750881542000,2.4815419921875,-0.02058887481689453,-0.02005058526992798,0.001424252986907959
1772789750901641500,2.501641357421875,-0.03503894805908203,-0.04312741756439209,-0.0032108426094055176
1772789750921741000,2.521740966796875,-0.02074432373046875,-0.032934486865997314,-0.007323116064071655
1772789750941840600,2.541840576171875,-0.03038787841796875,-0.03716111183166504,-0.006962984800338745
1772789750961940200,2.561940185546875,-0.035246849060058594,-0.022030353546142578,0.002219289541244507
1772789751002139400,2.602139404296875,-0.025787353515625,-0.01624995470046997,-0.015949547290802002
1772789751022239000,2.622239013671875,-0.03543567657470703,0.008433401584625244,0.013588368892669678
1772789751042338600,2.642338623046875,-0.025913238525390625,-0.0005700588226318359,0.009103775024414062
1772789751062438100,2.662438232421875,-0.02118206024169922,0.0048577189445495605,0.009284406900405884
1772789751082537700,2.682537841796875,-0.02124786376953125,0.0006421208381652832,0.00975126028060913
1772789751102637300,2.70263720703125,-0.030875205993652344,-0.0037183165550231934,0.0004183650016784668
1772789751122737200,2.722737060546875,-0.0309295654296875,-0.017597436904907227,-0.0040104687213897705
1772789751142836700,2.742836669921875,-0.026182174682617188,0.011606395244598389,0.010518491268157959
1772789751162936300,2.762936279296875,-0.035819053649902344,-0.0070195794105529785,0.020382314920425415
1772789751183036200,2.7830361328125,-0.021513938903808594,-0.025471985340118408,-0.0128878653049469
1772789751203136000,2.803135986328125,-0.016760826110839844,0.003907501697540283,-0.0036276280879974365
1772789751223235800,2.82323583984375,-0.021605491638183594,-0.009973585605621338,0.0015119612216949463
1772789751243335700,2.843335693359375,-0.02644062042236328,-0.02868211269378662,0.011279672384262085
1772789751263435800,2.863435791015625,-0.03547477722167969,-0.0042986273765563965,-0.002732396125793457
1772789751283535600,2.88353564453125,-0.026549339294433594,-0.022962212562561035,-0.002267301082611084
1772789751303635500,2.903635498046875,-0.01700592041015625,-0.041767120361328125,-0.0068413615226745605
1772789751323735300,2.9237353515625,-0.04037189483642578,-0.017738819122314453,-0.011520087718963623
1772789751343835100,2.943835205078125,-0.04039478302001953,-0.022294461727142334,0.0077362060546875
1772789751363935200,2.963935302734375,-0.021829605102539062,-0.01757889986038208,0.003082752227783203
1772789751384035000,2.98403515625,-0.021844863891601562,-0.012502312660217285,-0.02102312445640564
1772789751404135000,3.004135009765625,-0.04524707794189453,-0.011959612369537354,0.012539982795715332
1772789751424235000,3.024235107421875,-0.03147697448730469,-0.01188439130783081,0.016698002815246582
1772789751444334800,3.0443349609375,-0.03629112243652344,-0.026012897491455078,-0.002371281385421753
1772789751464434700,3.0644345703125,-0.03153705596923828,-0.0256614089012146,-0.006962031126022339
1772789751484534500,3.084534423828125,-0.045943260192871094,-0.020477473735809326,0.002660691738128662
1772789751504634600,3.104634521484375,0.0013637542724609375,-0.03485649824142456,-0.016387641429901123
1772789751524734500,3.124734375,0.0013608932495117188,-0.02997434139251709,-0.002119690179824829
1772789751544834300,3.144834228515625,-0.03163337707519531,-0.019837379455566406,0.012536853551864624
1772789751564934100,3.16493408203125,-0.017271995544433594,-0.01017850637435913,-0.0016973018646240234
1772789751605134000,3.205134033203125,-0.0083160400390625,0.004629969596862793,0.011884868144989014
1772789751625234000,3.22523388671875,-0.0173187255859375,0.009518206119537354,0.012183576822280884
1772789751645333800,3.245333740234375,-0.03170204162597656,-0.00435560941696167,-0.006552249193191528
1772789751665433900,3.265433837890625,-0.0035696029663085938,-0.01865065097808838,-0.00633692741394043
1772789751685534000,3.285533935546875,-0.02693939208984375,-0.013850033283233643,-0.0012309253215789795
1772789751705634300,3.30563427734375,-0.013174057006835938,-0.013702869415283203,-0.006099402904510498
1772789751725734700,3.325734619140625,-0.02275371551513672,-0.013575434684753418,0.0032072067260742188
1772789751745835000,3.3458349609375,-0.03175163269042969,-0.023022115230560303,-0.011107116937637329
1772789751765935400,3.365935302734375,-0.02696990966796875,-0.018107295036315918,-0.0015169382095336914
1772789751786035700,3.38603564453125,-0.013239860534667969,-0.022450029850006104,0.0028797686100006104
1772789751806136000,3.406135986328125,-0.02223491668701172,-0.032479047775268555,0.004058390855789185
1772789751826236400,3.426236328125,-0.0174713134765625,-0.0035164952278137207,0.009098708629608154
1772789751846336800,3.446336669921875,-0.01271820068359375,-0.0030714869499206543,-0.009987503290176392
1772789751866437000,3.46643701171875,-0.012737274169921875,0.0019344091415405273,-0.005147606134414673
1772789751886537500,3.486537353515625,-0.04147911071777344,-0.012470781803131104,-0.009990006685256958
1772789751906637800,3.506637939453125,-0.03192901611328125,-0.02160632610321045,-0.010084539651870728
1772789751926738200,3.52673828125,-0.04632854461669922,-0.0021651387214660645,0.004411965608596802
1772789751946838500,3.546838623046875,-0.03674507141113281,-0.035752832889556885,0.004491746425628662
1772789751966939000,3.56693896484375,-0.03195762634277344,-0.030959486961364746,0.01412913203239441
1772789751987039200,3.587039306640625,-0.022373199462890625,-0.026277601718902588,0.009508699178695679
1772789752007139600,3.6071396484375,-0.03194236755371094,-0.02111905813217163,-0.00535815954208374
1772789752027240000,3.627239990234375,-0.01815319061279297,-0.011611521244049072,-0.005587100982666016
1772789752047340300,3.64734033203125,-0.0037670135498046875,-0.006907820701599121,0.008661031723022461
1772789752067440600,3.667440673828125,-0.02712249755859375,-0.006951391696929932,-0.0008654892444610596
1772789752087541000,3.687541015625,-0.018149375915527344,0.0027324557304382324,0.003975331783294678
1772789752127741700,3.72774169921875,-0.03674793243408203,-0.02091085910797119,0.0042143166065216064
1772789752147842000,3.747842041015625,-0.013410568237304688,-0.006365180015563965,0.004303783178329468
1772789752167942100,3.767942138671875,-0.018215179443359375,-0.006140649318695068,-0.010170310735702515
1772789752188040700,3.788040771484375,-0.036820411682128906,-0.005766093730926514,-0.005113691091537476
1772789752208139500,3.808139404296875,-0.003911018371582031,-0.0006539821624755859,-0.000275343656539917
1772789752228238000,3.828238037109375,-0.023062705993652344,-0.015161395072937012,0.00929233431816101
1772789752248337000,3.8483369140625,-0.05121612548828125,-0.0007315278053283691,0.004535883665084839
1772789752268435500,3.868435546875,-0.013501167297363281,-0.02464604377746582,-0.01435735821723938
1772789752288534300,3.8885341796875,-0.027894973754882812,-0.03412848711013794,-0.009242773056030273
1772789752308632800,3.9086328125,-0.018304824829101562,-0.024510979652404785,0.00426211953163147
1772789752328731600,3.928731689453125,-0.01830291748046875,-0.010274112224578857,-0.005113840103149414
1772789752348830200,3.948830322265625,0.000865936279296875,0.008937180042266846,-0.005320549011230469
1772789752368929000,3.968928955078125,-0.013505935668945312,0.004204750061035156,-0.0006513595581054688
1772789752389027600,3.989027587890625,0.0008459091186523438,-0.005252063274383545,-0.009975552558898926
1772789752409126100,4.009126220703125,-0.018329620361328125,-0.00503307580947876,-0.004737973213195801
1772789752429225000,4.029224853515625,-0.0135498046875,-0.014376401901245117,0.014235377311706543
1772789752449323500,4.049323486328125,0.0008172988891601562,0.00005370378494262695,0.009482860565185547
1772789752469422300,4.06942236328125,-0.0039653778076171875,0.004803180694580078,0.004555374383926392
1772789752489521000,4.08952099609375,-0.008746147155761719,-0.009704947471618652,0.0045916736125946045
1772789752509619700,4.10961962890625,-0.03211498260498047,-0.023942649364471436,0.00942721962928772
1772789752529718300,4.12971826171875,-0.02732563018798828,-0.004661500453948975,0.009246766567230225
1772789752549817000,4.149817138671875,-0.027322769165039062,0.00007051229476928711,0.018868625164031982
1772789752569915600,4.16991552734375,-0.023123741149902344,0.004854798316955566,-0.00044924020767211914
1772789752590014500,4.190014404296875,-0.013554573059082031,-0.009501338005065918,-0.00018918514251708984
1772789752610113000,4.210113037109375,-0.018349647521972656,-0.009434759616851807,0.003999531269073486
1772789752630211800,4.2302119140625,-0.01834392547607422,-0.019089043140411377,-0.0007962584495544434
1772789752650310400,4.250310302734375,-0.013561248779296875,-0.023892581462860107,-0.014944255352020264
1772789752670409500,4.270409423828125,-0.02794170379638672,-0.0047661662101745605,-0.009892284870147705
1772789752690510000,4.290510009765625,0.0007944107055664062,0.00029534101486206055,0.013772189617156982
1772789752710610700,4.310610595703125,-0.023160934448242188,-0.004478394985198975,-0.0006184577941894531
1772789752730711000,4.3307109375,-0.0279541015625,0.009881854057312012,0.013836413621902466
1772789752750811600,4.350811767578125,-0.04173564910888672,-0.009113788604736328,-0.0006916224956512451
1772789752770912300,4.370912353515625,-0.008792877197265625,-0.013978302478790283,0.013101518154144287
1772789752791012900,4.391012939453125,-0.0088043212890625,-0.009109199047088623,-0.005914449691772461
1772789752811113200,4.41111328125,-0.004044532775878906,-0.003992140293121338,-0.004610538482666016
1772789752831213800,4.4312138671875,-0.022613525390625,-0.008660972118377686,0.009637236595153809
1772789752851314400,4.451314453125,-0.022627830505371094,-0.022896945476531982,0.014517158269882202
1772789752871414800,4.471414794921875,-0.02743053436279297,-0.02749013900756836,0.004825025796890259
1772789752891515400,4.491515380859375,-0.027460098266601562,-0.02300029993057251,0.00018796324729919434
1772789752911616000,4.511615966796875,-0.013092041015625,-0.008510887622833252,0.000688016414642334
1772789752931716400,4.53171630859375,0.0006895065307617188,0.015488505363464355,0.00040462613105773926
1772789752951817000,4.55181689453125,-0.00890350341796875,0.00594937801361084,0.010187238454818726
1772789752971917600,4.57191748046875,-0.013108253479003906,-0.017869949340820312,0.015005707740783691
1772789752992018000,4.592017822265625,-0.022675514221191406,-0.02771461009979248,0.0008260905742645264
1772789753012118500,4.612118408203125,-0.008925437927246094,-0.0028931498527526855,0.01403459906578064
1772789753032219100,4.63221923828125,-0.004143714904785156,-0.0027820467948913574,0.009232580661773682
1772789753052319700,4.65231982421875,-0.03289031982421875,-0.007497549057006836,-0.005245476961135864
1772789753092520700,4.692520751953125,-0.03289794921875,-0.00732266902923584,0.008387267589569092
1772789753112621300,4.712621337890625,-0.018545150756835938,0.002360701560974121,-0.015279412269592285
1772789753132721700,4.7327216796875,-0.013772010803222656,-0.006502330303192139,-0.00548553466796875
1772789753152822300,4.752822265625,-0.00001049041748046875,-0.011159658432006836,0.00412905216217041
1772789753172922400,4.77292236328125,-0.03774070739746094,-0.01582270860671997,-0.005652189254760742
1772789753193021700,4.793021728515625,-0.023377418518066406,0.003503143787384033,0.0038525164127349854
1772789753213120800,4.813120849609375,-0.004230499267578125,-0.010691285133361816,-0.005668818950653076
1772789753233220000,4.83322021484375,-0.028184890747070312,-0.010668635368347168,-0.0009396076202392578
1772789753253319400,4.8533193359375,-0.04256153106689453,0.017441272735595703,-0.0007681548595428467
1772789753273418800,4.873418701171875,-0.013817787170410156,-0.01536405086517334,-0.0009774863719940186
1772789753293518000,4.89351806640625,0.004736900329589844,-0.0152665376663208,-0.0009008944034576416
1772789753313617400,4.913617431640625,-0.023424148559570312,-0.010302066802978516,-0.00568053126335144
1772789753333716700,4.933716796875,-0.013850212097167969,-0.02468198537826538,0.004097729921340942
1772789753353816000,4.953816162109375,-0.028219223022460938,0.013579010963439941,-0.0006545782089233398
1772789753373915100,4.9739150390625,-0.023427963256835938,-0.019918859004974365,0.004066735506057739
1772789753394014500,4.994014404296875,-0.02344799041748047,-0.01492929458618164,0.013751626014709473
1772789753414113800,5.01411376953125,0.0005159378051757812,-0.005979478359222412,0.005193084478378296
1772789753434213000,5.034213134765625,-0.013868331909179688,-0.0010370612144470215,0.0003848075866699219
1772789753454312400,5.0543125,-0.01865100860595703,0.0036701560020446777,0.01470416784286499
1772789753474411800,5.074411865234375,-0.0042858123779296875,-0.010645270347595215,0.014787644147872925
1772789753494511000,5.094510986328125,0.01010894775390625,-0.006620585918426514,0.01457938551902771
1772789753514610400,5.1146103515625,-0.01801776885986328,-0.006734967231750488,0.009525775909423828
1772789753534709500,5.13470947265625,-0.022806167602539062,-0.025863826274871826,0.0004273355007171631
1772789753554808800,5.154808837890625,-0.041965484619140625,0.007635891437530518,0.00995364785194397
1772789753574908200,5.174908203125,-0.008421897888183594,-0.006899595260620117,0.010105013847351074
1772789753595007500,5.195007568359375,-0.004239082336425781,-0.0068547725677490234,0.0006426870822906494
1772789753615106800,5.21510693359375,0.000545501708984375,-0.015879333019256592,0.009284675121307373
1772789753635206100,5.2352060546875,-0.01864147186279297,-0.01577305793762207,-0.009525597095489502
1772789753655305500,5.255305419921875,-0.0042629241943359375,-0.020600438117980957,-0.004815042018890381
1772789753675404800,5.27540478515625,-0.041996002197265625,-0.01575624942779541,0.004178285598754883
1772789753695504100,5.295504150390625,-0.042595863342285156,-0.024775385856628418,0.009075522422790527
1772789753735703000,5.335703125,0.0047359466552734375,-0.015461444854736328,-0.005298018455505371
1772789753755802400,5.35580224609375,-0.013828277587890625,0.003729879856109619,-0.00538182258605957
1772789753775901700,5.375901611328125,-0.009022712707519531,-0.010692119598388672,-0.0008435249328613281
1772789753796001300,5.396001220703125,-0.009018898010253906,-0.001123964786529541,0.008678048849105835
1772789753816100600,5.4161005859375,-0.013838768005371094,-0.030124425888061523,0.004497408866882324
1772789753836200200,5.4362001953125,-0.027612686157226562,-0.03965890407562256,-0.014133036136627197
1772789753856299500,5.456299560546875,-0.009047508239746094,-0.01085728406906128,0.009707242250442505
1772789753876398800,5.47639892578125,-0.018622398376464844,-0.0013985037803649902,0.009757310152053833
1772789753896498400,5.49649853515625,-0.027608871459960938,0.008148610591888428,-0.004440367221832275
1772789753916597800,5.51659765625,-0.013823509216308594,-0.011168479919433594,0.005139380693435669
1772789753936697000,5.536697021484375,-0.013821601867675781,-0.011223316192626953,0.009984254837036133
1772789753976896000,5.57689599609375,0.010123252868652344,0.012756705284118652,-0.008974254131317139
1772789753996995300,5.596995361328125,-0.01862049102783203,-0.025546371936798096,0.005299270153045654
1772789754017095000,5.617094970703125,-0.018610000610351562,-0.016015172004699707,0.024289757013320923
1772789754037194200,5.6371943359375,0.010135650634765625,0.0031279325485229492,0.005181819200515747
1772789754057293600,5.65729345703125,-0.013821601867675781,-0.006351947784423828,-0.014110267162322998
1772789754077393200,5.67739306640625,-0.013833999633789062,-0.01093226671218872,0.009733200073242188
1772789754097492500,5.697492431640625,-0.009053230285644531,-0.0011587738990783691,0.009626775979995728
1772789754117591800,5.717591796875,0.0053119659423828125,-0.005793571472167969,0.004726976156234741
1772789754137691400,5.73769140625,-0.0042781829833984375,-0.019985735416412354,0.014129459857940674
1772789754157790700,5.757790771484375,-0.004267692565917969,-0.0008915066719055176,0.01879742741584778
1772789754197990400,5.797990478515625,-0.009073257446289062,-0.010281026363372803,-0.005132108926773071
1772789754218090200,5.81809033203125,0.010081291198730469,-0.015059292316436768,-0.000170975923538208
1772789754238190000,5.838190185546875,-0.02765178680419922,-0.005428910255432129,0.004661500453948975
1772789754258290200,5.858290283203125,-0.027652740478515625,-0.006095707416534424,-0.000002294778823852539
1772789754278390000,5.87839013671875,0.0005121231079101562,-0.0014708638191223145,0.004679441452026367
1772789754298490000,5.898489990234375,-0.0180816650390625,-0.0011758804321289062,-0.013739913702011108
1772789754318590000,5.91858984375,-0.027652740478515625,-0.0013030767440795898,0.009586066007614136
1772789754358790000,5.958789794921875,-0.013284683227539062,-0.0013725757598876953,-0.003947585821151733
1772789754378889700,5.9788896484375,-0.013284683227539062,-0.001331627368927002,0.010356366634368896
1772789754398989600,5.998989501953125,-0.004309654235839844,0.008167862892150879,0.0059281885623931885
1772789754419089700,6.019089599609375,-0.01867961883544922,-0.010294139385223389,0.01463693380355835
1772789754439189500,6.039189453125,-0.004299163818359375,-0.015079915523529053,0.0048607587814331055
1772789754479389400,6.079389404296875,-0.04203987121582031,-0.010104179382324219,-0.004776358604431152
1772789754499489300,6.0994892578125,-0.004303932189941406,-0.010154008865356445,0.004703879356384277
1772789754519589400,6.11958935546875,0.010085105895996094,-0.005428671836853027,-0.00993436574935913
1772789754539689200,6.139689208984375,-0.013873100280761719,-0.01978611946105957,0.004501789808273315
1772789754559789000,6.1597890625,-0.01865673065185547,-0.015089988708496094,0.004503726959228516
1772789754579889000,6.179888916015625,0.01488494873046875,-0.02464085817337036,-0.0004782378673553467
1772789754599989000,6.199989013671875,-0.013874053955078125,-0.010064184665679932,-0.010121405124664307
1772789754620088800,6.2200888671875,-0.009083747863769531,-0.005291640758514404,0.004327535629272461
1772789754660288800,6.260288818359375,-0.02288055419921875,-0.029001712799072266,-0.005184084177017212
1772789754680388400,6.280388427734375,-0.01866626739501953,-0.005210518836975098,0.004165142774581909
1772789754700488000,6.300488037109375,-0.004300117492675781,0.009227395057678223,0.013762474060058594
1772789754740687400,6.340687255859375,0.0004949569702148438,0.004543781280517578,-0.010473787784576416
1772789754760787000,6.360786865234375,0.01965045928955078,-0.01938408613204956,0.004057824611663818
1772789754780886500,6.380886474609375,-0.004292488098144531,-0.019534766674041748,-0.0007433295249938965
1772789754800986000,6.400986083984375,-0.01868438720703125,-0.029024243354797363,-0.005255848169326782
1772789754821085700,6.421085693359375,-0.013292312622070312,-0.019976556301116943,0.0005501508712768555
1772789754841185300,6.441185302734375,-0.008519172668457031,-0.014968574047088623,0.014965355396270752
1772789754861284900,6.461284912109375,-0.013283729553222656,-0.005601167678833008,0.0051187872886657715
1772789754881384400,6.481384521484375,-0.022850990295410156,-0.005708038806915283,0.00022080540657043457
1772789754901484000,6.501484130859375,-0.022861480712890625,-0.0008789300918579102,-0.00440254807472229
1772789754921583600,6.52158349609375,0.0059032440185546875,-0.024845361709594727,-0.00964459776878357
1772789754941683200,6.54168310546875,-0.0037031173706054688,-0.024605989456176758,-0.004723638296127319
1772789754961783000,6.561782958984375,-0.027643203735351562,-0.0013770461082458496,0.010141164064407349
1772789754981882600,6.581882568359375,-0.013276100158691406,-0.015736699104309082,0.010236144065856934
1772789755001982200,6.601982177734375,0.0010929107666015625,-0.015673458576202393,-0.004159986972808838
1772789755022081800,6.622081787109375,-0.003692626953125,-0.0007235407829284668,0.004733234643936157
1772789755042181400,6.642181396484375,-0.008472442626953125,0.003891289234161377,0.00004601478576660156
1772789755062281000,6.662281005859375,-0.0036640167236328125,-0.0012301802635192871,0.00021857023239135742
1772789755082380500,6.682380615234375,-0.0036611557006835938,-0.010963678359985352,0.0004388391971588135
1772789755102480100,6.702480224609375,-0.008434295654296875,-0.015840768814086914,-0.004601210355758667
1772789755122579700,6.722579833984375,0.010163307189941406,-0.011363625526428223,0.0047914087772369385
1772789755142679300,6.74267919921875,-0.01320648193359375,-0.006364762783050537,0.009513318538665771
1772789755162779100,6.762779052734375,-0.013179779052734375,-0.011414587497711182,-0.0002098381519317627
1772789755182878000,6.7828779296875,-0.013169288635253906,-0.011416137218475342,0.008517563343048096
1772789755202976500,6.8029765625,0.006003379821777344,0.0023378729820251465,0.008953988552093506
1772789755243174000,6.843173828125,-0.012586593627929688,-0.03551357984542847,0.009825050830841064
1772789755263272700,6.863272705078125,-0.0077953338623046875,-0.012078940868377686,0.005492061376571655
1772789755283371500,6.88337158203125,-0.012604713439941406,-0.012005150318145752,-0.003188610076904297
1772789755303470000,6.903469970703125,0.0065555572509765625,-0.01736515760421753,0.002243727445602417
1772789755323569000,6.92356884765625,-0.007229804992675781,-0.012289226055145264,0.0025571584701538086
1772789755343667700,6.943667724609375,-0.012037277221679688,-0.012757480144500732,0.003282904624938965
1772789755363766300,6.963766357421875,-0.00244140625,-0.00810331106185913,-0.0009795725345611572
1772789755383865000,6.983864990234375,-0.009027481079101562,-0.005798816680908203,-0.006212323904037476
1772789755403964000,7.0039638671875,0.0005407333374023438,-0.0008965134620666504,0.01305273175239563
1772789755444161300,7.044161376953125,-0.009001731872558594,-0.0011769533157348633,0.003069967031478882
1772789755464260000,7.064260009765625,0.0005674362182617188,-0.005754828453063965,0.002955526113510132
1772789755484358700,7.084358642578125,-0.00902557373046875,0.003915846347808838,-0.006516575813293457
1772789755524556000,7.12455615234375,-0.013827323913574219,-0.010290980339050293,0.007208377122879028
1772789755544654800,7.14465478515625,0.0053539276123046875,-0.00564807653427124,0.011858046054840088
1772789755564753700,7.164753662109375,-0.0090179443359375,0.008753299713134766,0.0022066235542297363
1772789755584852200,7.184852294921875,-0.008421897888183594,-0.00556492805480957,0.0033407211303710938
1772789755604951000,7.204950927734375,-0.022806167602539062,-0.015009284019470215,-0.0014252960681915283
1772789755645148400,7.2451484375,-0.0036516189575195312,-0.01491999626159668,-0.006170809268951416
1772789755665247200,7.265247314453125,0.0059223175048828125,-0.0010398626327514648,-0.006173044443130493
1772789755685346800,7.285346923828125,0.010733604431152344,0.00358426570892334,-0.01056244969367981
1772789755705446400,7.3054462890625,0.010737419128417969,-0.015594184398651123,-0.001054137945175171
1772789755725546000,7.3255458984375,0.010717391967773438,-0.010562598705291748,0.013363093137741089
1772789755745645800,7.345645751953125,-0.008437156677246094,-0.005812406539916992,-0.0011329054832458496
1772789755765745400,7.365745361328125,-0.008431434631347656,-0.015358030796051025,-0.006148993968963623
1772789755785845000,7.385844970703125,0.0011653900146484375,-0.005269885063171387,0.007432073354721069
1772789755805944600,7.405944580078125,-0.0036172866821289062,-0.0005869269371032715,-0.002157449722290039
1772789755826044400,7.42604443359375,0.010153770446777344,-0.005470633506774902,-0.0019068419933319092
1772789755846144000,7.44614404296875,0.005962371826171875,-0.0006333589553833008,-0.011571288108825684
1772789755866243600,7.46624365234375,-0.018001556396484375,-0.01010429859161377,-0.001982063055038452
1772789755886343200,7.48634326171875,-0.00843048095703125,-0.019586026668548584,0.002873748540878296
1772789755906442800,7.50644287109375,-0.008428573608398438,-0.009937763214111328,-0.01163896918296814
1772789755926542600,7.52654248046875,-0.018003463745117188,-0.014807939529418945,-0.0021182894706726074
1772789755946642200,7.54664208984375,-0.022783279418945312,0.0037410855293273926,-0.0023362338542938232
1772789755966741800,7.56674169921875,-0.00839996337890625,0.013291001319885254,0.007056921720504761
1772789755986841300,7.58684130859375,-0.00360870361328125,-0.001131892204284668,0.0029425621032714844
1772789756006941200,7.606941162109375,-0.017969131469726562,-0.005962669849395752,-0.002079188823699951
1772789756027040800,7.627040771484375,-0.008360862731933594,-0.0014334917068481445,0.002584606409072876
1772789756047140400,7.647140380859375,0.024572372436523438,0.00823974609375,0.0025089681148529053
1772789756067240000,7.667239990234375,0.005992889404296875,-0.010746419429779053,-0.002236008644104004
1772789756087339800,7.68733984375,-0.008398056030273438,-0.010619521141052246,-0.01643642783164978
1772789756107439400,7.707439453125,0.010750770568847656,-0.015215635299682617,-0.002082318067550659
1772789756127539000,7.7275390625,-0.0035991668701171875,-0.005877971649169922,0.012182563543319702
1772789756147638500,7.747638427734375,-0.0035963058471679688,-0.0010870695114135742,-0.0022540688514709473
1772789756167738000,7.767738037109375,0.015546798706054688,-0.010479331016540527,-0.016464442014694214
1772789756187837400,7.78783740234375,0.010758399963378906,-0.005771517753601074,-0.002013981342315674
1772789756207937000,7.80793701171875,0.010768890380859375,-0.0010762214660644531,0.012304097414016724
1772789756228036400,7.828036376953125,0.0011844635009765625,-0.020138025283813477,0.0025833547115325928
1772789756248135700,7.8481357421875,-0.022765159606933594,-0.01537090539932251,-0.0022731125354766846
1772789756268235000,7.868235107421875,-0.003612518310546875,-0.010502219200134277,0.0074246227741241455
1772789756288334600,7.88833447265625,0.0059719085693359375,-0.01992928981781006,-0.0024934113025665283
1772789756308434000,7.908433837890625,0.010770797729492188,0.008690476417541504,-0.007278710603713989
1772789756328533200,7.928533203125,0.005990028381347656,-0.0009987354278564453,0.002291083335876465
1772789756348632600,7.948632568359375,-0.02694225311279297,-0.01061338186264038,-0.007349073886871338
1772789756368732000,7.96873193359375,0.0012111663818359375,-0.015419363975524902,-0.012293398380279541
1772789756388831500,7.98883154296875,-0.017357826232910156,-0.015500962734222412,0.0029307007789611816
1772789756429030100,8.029030029296875,-0.012561798095703125,-0.0059490203857421875,-0.00671154260635376
1772789756449129700,8.049129638671875,-0.012558937072753906,-0.0011009573936462402,-0.006880015134811401
1772789756469229000,8.06922900390625,0.015592575073242188,-0.010601639747619629,-0.0023660361766815186
1772789756489328400,8.089328369140626,-0.012547492980957031,-0.0010672807693481445,-0.0024400055408477783
1772789756509427700,8.109427734375,-0.007754325866699219,-0.015447854995727539,-0.007253706455230713
1772789756529527300,8.12952734375,0.010816574096679688,0.00779646635055542,-0.011998385190963745
1772789756549626600,8.149626708984375,0.006011962890625,-0.006549537181854248,-0.0069158971309661865
1772789756569726000,8.169725830078125,-0.02691364288330078,-0.02532726526260376,-0.006807923316955566
1772789756589825300,8.1898251953125,-0.02212238311767578,-0.0061509013175964355,0.0021459758281707764
1772789756609924600,8.209924560546876,-0.008332252502441406,-0.0062882304191589355,-0.007554084062576294
1772789756630024200,8.230024169921874,-0.013095855712890625,-0.001713573932647705,-0.02219247817993164
1772789756650123500,8.25012353515625,-0.0034894943237304688,0.02192908525466919,-0.00781974196434021
1772789756670222800,8.270222900390625,-0.003490447998046875,0.0027673840522766113,0.0017755329608917236
1772789756690322700,8.29032275390625,0.006083488464355469,-0.02586120367050171,-0.003034234046936035
1772789756710422500,8.310422607421875,-0.008310317993164062,-0.02558797597885132,-0.007838338613510132
1772789756730522400,8.3305224609375,-0.0035314559936523438,0.003267347812652588,-0.007758915424346924
1772789756750622000,8.3506220703125,-0.013112068176269531,0.003366231918334961,-0.003197312355041504
1772789756770721800,8.3707216796875,0.0012636184692382812,-0.011085212230682373,0.0016767382621765137
1772789756790821600,8.390821533203125,-0.0029230117797851562,-0.0069318413734436035,-0.001978367567062378
1772789756810921500,8.41092138671875,-0.01730823516845703,-0.0019302964210510254,-0.011657506227493286
1772789756831021000,8.43102099609375,-0.007731437683105469,0.007739424705505371,0.0026863813400268555
1772789756851121000,8.451120849609374,0.025205612182617188,-0.011393308639526367,-0.006947368383407593
1772789756871220700,8.471220703125,0.020407676696777344,-0.030426323413848877,0.0025517940521240234
1772789756891320600,8.491320556640625,-0.012536048889160156,-0.02074146270751953,0.007298409938812256
1772789756911420200,8.511420166015625,-0.012533187866210938,0.0031512975692749023,0.002534627914428711
1772789756931520000,8.53152001953125,-0.007716178894042969,-0.0018999576568603516,-0.00714951753616333
1772789756951619800,8.551619873046874,0.00666046142578125,0.012443125247955322,-0.006600677967071533
1772789756971719700,8.5717197265625,0.0018548965454101562,0.0029572248458862305,-0.016002029180526733
1772789756991819300,8.5918193359375,-0.031691551208496094,-0.0060672760009765625,-0.0031297504901885986
1772789757011919000,8.611919189453126,-0.017303466796875,-0.010933220386505127,0.011006742715835571
1772789757032019000,8.63201904296875,-0.0035419464111328125,-0.010748565196990967,0.0013876855373382568
1772789757052118800,8.652118896484374,-0.00353240966796875,-0.010983943939208984,-0.01755550503730774
1772789757072218400,8.67221826171875,0.010835647583007812,-0.010955333709716797,0.0016807019710540771
1772789757092318200,8.692318115234375,-0.013104438781738281,-0.0015300512313842773,0.011209875345230103
1772789757112418000,8.71241796875,-0.0035066604614257812,-0.001678168773651123,0.01109352707862854
1772789757132518000,8.732517822265624,0.0012979507446289062,0.0030001401901245117,-0.012960284948348999
1772789757152617500,8.752617431640624,-0.0034885406494140625,-0.0017382502555847168,-0.003600478172302246
1772789757172717000,8.772717041015625,0.010866165161132812,-0.0015137195587158203,-0.003584563732147217
1772789757192816400,8.79281640625,0.00189208984375,-0.0068315863609313965,-0.012338846921920776
1772789757212915700,8.812915771484375,-0.026859283447265625,-0.006756246089935303,-0.002153247594833374
1772789757233015000,8.83301513671875,0.00189208984375,-0.006789088249206543,-0.007012903690338135
1772789757253114400,8.8531142578125,0.025241851806640625,-0.006761908531188965,-0.011708766222000122
1772789757273213700,8.873213623046874,0.021059036254882812,-0.011719465255737305,0.007548421621322632
1772789757293313000,8.89331298828125,-0.0124664306640625,-0.007661938667297363,0.002762347459793091
1772789757313412400,8.913412353515625,0.0067195892333984375,-0.017454147338867188,-0.006353408098220825
1772789757333511700,8.93351171875,0.006711006164550781,-0.01740705966949463,0.008122175931930542
1772789757353611000,8.953611083984375,-0.0028858184814453125,-0.026823222637176514,-0.0014275014400482178
1772789757373710300,8.97371044921875,0.011491775512695312,-0.012414276599884033,-0.001615077257156372
1772789757393809700,8.9938095703125,-0.012451171875,0.002491593360900879,0.006630688905715942
1772789757413909000,9.013908935546874,-0.012471199035644531,-0.0068092942237854,0.0017965734004974365
1772789757434008300,9.03400830078125,-0.007678031921386719,0.0028656721115112305,0.006341427564620972
1772789757454107600,9.054107666015625,-0.007697105407714844,0.0031173229217529297,0.0015209615230560303
1772789757474207000,9.07420703125,0.015644073486328125,-0.011116206645965576,0.0016376972198486328
1772789757494306300,9.094306396484376,-0.00771331787109375,-0.0206490159034729,0.015942156314849854
1772789757514405600,9.114405517578126,-0.00289154052734375,0.007717311382293701,-0.0032513439655303955
1772789757534505000,9.1345048828125,0.00608062744140625,-0.0018080472946166992,-0.017449915409088135
1772789757554604300,9.154604248046875,-0.0076847076416015625,-0.011517643928527832,-0.0030516982078552246
1772789757574703600,9.17470361328125,-0.02208423614501953,-0.030497848987579346,-0.007558912038803101
1772789757594803000,9.194802978515625,-0.012486457824707031,0.00282365083694458,-0.002743631601333618
1772789757614902300,9.21490234375,-0.007718086242675781,-0.021024346351623535,-0.007189571857452393
1772789757635001600,9.235001708984376,0.010850906372070312,-0.021018624305725098,0.007077306509017944
1772789757655101000,9.255100830078124,-0.022089004516601562,-0.0018100142478942871,0.002265751361846924
1772789757675200000,9.275199951171874,-0.017293930053710938,-0.006637215614318848,-0.007385730743408203
1772789757695299000,9.295299072265625,-0.02210235595703125,-0.0016841292381286621,-0.007251054048538208
1772789757715398000,9.31539794921875,-0.012510299682617188,-0.011290192604064941,-0.0026453733444213867
1772789757735497000,9.3354970703125,-0.012520790100097656,-0.0254938006401062,-0.002730071544647217
1772789757755595800,9.355595703125,-0.0077342987060546875,-0.010940074920654297,-0.0029582083225250244
1772789757795794000,9.3957939453125,0.010828018188476562,0.0035039782524108887,-0.003040403127670288
1772789757815892700,9.415892822265626,0.015639305114746094,0.012903928756713867,0.0016102790832519531
1772789757835991800,9.43599169921875,-0.026903152465820312,-0.01554858684539795,-0.012759119272232056
1772789757876189700,9.476189697265625,-0.007767677307128906,-0.024840712547302246,-0.007849246263504028
1772789757896288800,9.496288818359375,-0.01255035400390625,-0.020106852054595947,-0.003133714199066162
1772789757916387600,9.5163876953125,0.0060138702392578125,-0.010610222816467285,-0.012540280818939209
1772789757936486700,9.536486572265625,-0.0029754638671875,-0.00575023889541626,0.006625831127166748
1772789757956585700,9.556585693359375,-0.01735973358154297,-0.005640685558319092,-0.012473762035369873
1772789757976684500,9.5766845703125,-0.022154808044433594,-0.024637579917907715,-0.0024847984313964844
1772789757996783600,9.59678369140625,0.011363983154296875,-0.01007455587387085,0.007147878408432007
1772789758016882400,9.61688232421875,0.0017595291137695312,-0.005650639533996582,-0.0023130178451538086
1772789758036981500,9.6369814453125,-0.0078277587890625,-0.000954747200012207,-0.01637396216392517
1772789758077179400,9.677179443359375,-0.016809463500976562,-0.029687464237213135,-0.001481175422668457
1772789758097278500,9.697278564453125,-0.0030364990234375,-0.01542598009109497,-0.010817021131515503
1772789758117377300,9.717377197265625,-0.016817092895507812,-0.005835115909576416,0.003681004047393799
1772789758137476400,9.737476318359375,0.001735687255859375,-0.015266001224517822,-0.010654807090759277
1772789758157575400,9.757575439453126,-0.007868766784667969,-0.005406737327575684,-0.020220965147018433
1772789758197774600,9.797774658203124,0.01605987548828125,-0.009177565574645996,-0.011417090892791748
1772789758217874400,9.81787451171875,0.0016717910766601562,0.010070562362670898,-0.011213243007659912
1772789758237974300,9.837974365234375,-0.012700080871582031,0.00044357776641845703,-0.001569986343383789
1772789758278174000,9.878174072265624,0.011256217956542969,0.005414247512817383,-0.006763160228729248
1772789758298273800,9.898273681640624,-0.007887840270996094,-0.013865113258361816,0.012171030044555664
1772789758318373600,9.91837353515625,-0.007883071899414062,-0.008991420269012451,0.0023295581340789795
1772789758338473500,9.938473388671875,0.00170135498046875,-0.009013712406158447,-0.0024947822093963623
1772789758358573300,9.9585732421875,-0.007875442504882812,0.00539320707321167,0.002114236354827881
1772789758378673200,9.978673095703124,-0.003078460693359375,0.0006072521209716797,-0.013022005558013916
1772789758398773000,9.99877294921875,0.0064868927001953125,-0.023226678371429443,-0.012823939323425293
1772789758418873000,10.018873046875,0.0017032623291015625,-0.00898057222366333,0.0063890814781188965
1772789758438973000,10.038972900390625,-0.017457008361816406,-0.00905454158782959,-0.01274031400680542
1772789758459072800,10.05907275390625,-0.012669563293457031,-0.028147637844085693,-0.017572492361068726
1772789758479172600,10.079172607421874,0.006495475769042969,-0.013790488243103027,0.0016129016876220703
1772789758499272400,10.0992724609375,-0.012677192687988281,-0.013659894466400146,-0.0032383501529693604
1772789758519372300,10.119372314453125,-0.02225208282470703,0.014994919300079346,-0.003211468458175659
1772789758539472100,10.13947216796875,-0.00308990478515625,0.000890195369720459,0.005893111228942871
1772789758579671800,10.179671875,-0.007905006408691406,-0.023493587970733643,0.0025837719440460205
1772789758599771600,10.199771728515625,-0.01209259033203125,-0.009198188781738281,0.002590954303741455
1772789758619871500,10.21987158203125,-0.007297515869140625,-0.023509621620178223,-0.016774237155914307
1772789758639971300,10.239971435546876,-0.0030889511108398438,-0.028435230255126953,-0.01632523536682129
1772789758660071200,10.2600712890625,0.0016946792602539062,-0.014127016067504883,-0.011225491762161255
1772789758680171000,10.2801708984375,-0.0024862289428710938,-0.01896268129348755,0.0029327571392059326
1772789758700271000,10.30027099609375,-0.012071609497070312,-0.0046242475509643555,0.0030913949012756348
1772789758720371200,10.32037109375,0.0064849853515625,-0.004600882530212402,-0.02547818422317505
1772789758740471300,10.34047119140625,-0.007258415222167969,0.004065096378326416,0.003112703561782837
1772789758760571400,10.3605712890625,-0.0024576187133789062,0.008837699890136719,0.00291520357131958
1772789758780671500,10.38067138671875,0.006501197814941406,0.009676933288574219,-0.0023404061794281006
1772789758800771800,10.400771728515625,-0.031220436096191406,0.000033736228942871094,-0.007184773683547974
1772789758840972000,10.440971923828124,-0.012063026428222656,-0.0045969486236572266,-0.016936957836151123
1772789758861072100,10.461072021484375,0.006520271301269531,0.004878997802734375,-0.00280153751373291
1772789758881172200,10.481172119140625,-0.00304412841796875,-0.004908382892608643,-0.007628947496414185
1772789758901272300,10.501272216796876,0.0065326690673828125,-0.009685695171356201,-0.007499575614929199
1772789758921372400,10.521372314453124,-0.0072422027587890625,-0.024055063724517822,-0.007492929697036743
1772789758941472500,10.541472412109375,0.020906448364257812,-0.009761393070220947,-0.0067816078662872314
1772789758961572600,10.561572509765625,0.006539344787597656,0.004556238651275635,-0.021184176206588745
1772789758981672700,10.581672607421876,-0.007836341857910156,-0.029010295867919922,-0.012090593576431274
1772789759001772800,10.601772705078124,0.0017528533935546875,-0.024361252784729004,-0.0024257004261016846
1772789759021873000,10.621872802734375,-0.016826629638671875,-0.024254143238067627,-0.007055073976516724
1772789759041973000,10.641972900390625,0.00173187255859375,-0.009748637676239014,-0.007165074348449707
1772789759062073000,10.662072998046876,-0.02163410186767578,-0.004896342754364014,-0.011843174695968628
1772789759082173200,10.682173095703124,-0.007863044738769531,-0.014542222023010254,-0.01163288950920105
1772789759102273300,10.702273193359375,-0.0030908584594726562,-0.009726643562316895,-0.02081570029258728
1772789759122373400,10.722373291015625,0.011300086975097656,-0.009803235530853271,-0.011536747217178345
1772789759142473500,10.742473388671876,-0.016859054565429688,-0.03850984573364258,0.022243410348892212
1772789759162573600,10.762573486328124,-0.0030879974365234375,-0.009784877300262451,-0.006413519382476807
1772789759182672100,10.782672119140624,-0.007294654846191406,-0.0003572702407836914,-0.019534319639205933
1772789759202770400,10.8027705078125,-0.007282257080078125,-0.02908843755722046,-0.010248422622680664
1772789759222868700,10.82286865234375,-0.0072574615478515625,-0.05774188041687012,-0.006242692470550537
1772789759242967300,10.84296728515625,-0.016846656799316406,-0.05764269828796387,-0.0014819502830505371
1772789759263065600,10.863065673828125,0.0304718017578125,-0.0338020920753479,-0.025392502546310425
1772789759283164000,10.883163818359375,-0.0024385452270507812,-0.05791175365447998,-0.035343021154403687
1772789759303262200,10.90326220703125,-0.0406494140625,-0.06815147399902344,0.0589195191860199
1772789759323360500,10.923360595703125,-0.026213645935058594,-0.02111995220184326,0.06864374876022339
1772789759363557000,10.96355712890625,0.025976181030273438,0.09648013114929199,-0.04070156812667847
1772789759383655700,10.98365576171875,-0.021368980407714844,0.09225386381149292,-0.13561305403709412
1772789759403754000,11.00375390625,0.0068225860595703125,0.06853258609771729,-0.12335023283958435
1772789759443950600,11.04395068359375,0.039580345153808594,0.007309138774871826,-0.025216758251190186
1772789759464049000,11.064048828125,-0.04541015625,0.10799169540405273,-0.3229808509349823
1772789759484147200,11.084147216796875,-0.00286102294921875,-0.02028203010559082,0.13779601454734802
1772789759504245500,11.10424560546875,0.016286849975585938,-0.07313591241836548,0.2306264042854309
1772789759524344000,11.124343994140625,-0.0028848648071289062,0.12232953310012817,-0.12721583247184753
1772789759544442400,11.1444423828125,-0.03092479705810547,0.13098448514938354,-0.013041377067565918
1772789759564540700,11.164540771484376,0.02118206024169922,0.04976773262023926,0.11039096117019653
1772789759584639000,11.184638916015626,0.035452842712402344,0.02627474069595337,0.016737401485443115
1772789759604737300,11.2047373046875,-0.040595054626464844,0.049216508865356445,-0.0635172426700592
1772789759624835600,11.224835693359376,-0.07364845275878906,-0.016003668308258057,-0.010449707508087158
1772789759644934000,11.244933837890626,0.10112762451171875,-0.029777944087982178,-0.01890486478805542
1772789759685131000,11.285131103515624,-0.09735107421875,-0.17025548219680786,0.058819472789764404
1772789759705229600,11.3052294921875,0.1198282241821289,-0.14999359846115112,-0.2021808624267578
1772789759725328100,11.325328125,-0.012497901916503906,-0.16813403367996216,-0.08919206261634827
1772789759745426700,11.3454267578125,-0.045609474182128906,-0.17113083600997925,-0.002134174108505249
1772789759765525500,11.365525390625,0.0154571533203125,-0.09503406286239624,-0.0017821788787841797
1772789759785624000,11.3856240234375,0.010582923889160156,-0.03686267137527466,-0.02980130910873413
1772789759805722600,11.40572265625,-0.022321701049804688,-0.013373076915740967,0.017052024602890015
1772789759825821200,11.4258212890625,-0.012806892395019531,-0.003211081027984619,0.027174025774002075
1772789759845919700,11.445919677734375,-0.02719402313232422,-0.03090953826904297,0.007537275552749634
1772789759866018600,11.4660185546875,-0.05058765411376953,0.031165480613708496,0.05079188942909241
1772789759886117000,11.4861171875,0.0014524459838867188,0.04610872268676758,0.01829436421394348
1772789759906215700,11.506215576171876,0.0013275146484375,-0.0009044408798217773,-0.08098134398460388
1772789759926314200,11.526314208984376,0.010859489440917969,-0.018909573554992676,-0.024454772472381592
1772789759946412800,11.546412841796876,-0.017961502075195312,0.0014037489891052246,0.10394912958145142
1772789759966511600,11.56651171875,-0.031882286071777344,0.07433116436004639,0.03906434774398804
1772789759986610200,11.586610107421874,0.048061370849609375,0.019509494304656982,-0.0974186360836029
1772789760006708700,11.606708740234374,0.005436897277832031,-0.055001139640808105,-0.035511285066604614
1772789760026807300,11.626807373046875,-0.07071495056152344,0.007805824279785156,0.03598916530609131
1772789760046905900,11.64690576171875,0.00032711029052734375,0.08185750246047974,0.008628904819488525
1772789760067004700,11.667004638671875,0.07088279724121094,0.09796494245529175,0.03682759404182434
1772789760087103200,11.687103271484375,-0.05207538604736328,0.05181390047073364,0.04778638482093811
1772789760107201800,11.707201904296875,-0.033840179443359375,0.05918622016906738,-0.09203177690505981
1772789760127300400,11.72730029296875,0.06551170349121094,0.132534921169281,-0.02144932746887207
1772789760147399200,11.747399169921875,-0.00035190582275390625,0.2001306414604187,0.2007143795490265
1772789760167497700,11.767497802734376,-0.04317474365234375,0.24109506607055664,0.13144871592521667
1772789760187597300,11.787597412109376,0.04148387908935547,0.258212685585022,-0.08879762887954712
1772789760207697000,11.80769677734375,-0.001232147216796875,0.12861186265945435,0.03749287128448486
1772789760227796500,11.82779638671875,0.016847610473632812,-0.004066824913024902,0.1349288523197174
1772789760247896000,11.84789599609375,0.09251689910888672,0.051894307136535645,0.042300522327423096
1772789760267995600,11.86799560546875,-0.021785736083984375,-0.0418473482131958,0.010188490152359009
1772789760288095200,11.88809521484375,-0.04593086242675781,-0.18175721168518066,0.00000959634780883789
1772789760308194800,11.90819482421875,-0.023256301879882812,-0.20255297422409058,-0.0678815245628357
1772789760328294400,11.92829443359375,-0.05233192443847656,-0.37347954511642456,-0.13498756289482117
1772789760348394000,11.94839404296875,0.06492996215820312,-0.408427357673645,-0.14555704593658447
1772789760368493600,11.96849365234375,0.05011749267578125,-0.22660091519355774,-0.09544530510902405
1772789760388593200,11.98859326171875,-0.011333465576171875,-0.055480241775512695,-0.06429550051689148
1772789760408692700,12.008692626953126,-0.030900955200195312,-0.04516792297363281,0.02265489101409912
1772789760428792300,12.028792236328124,0.0069217681884765625,0.035949766635894775,0.012675106525421143
1772789760448892000,12.048891845703125,0.025061607360839844,0.09305572509765625,-0.04124706983566284
1772789760468991500,12.068991455078125,-0.017854690551757812,0.04026210308074951,0.008935600519180298
1772789760489091000,12.089091064453125,-0.027777671813964844,0.04433465003967285,0.05879998207092285
1772789760509190700,12.109190673828126,0.0006732940673828125,0.10496145486831665,0.042106062173843384
1772789760529290200,12.129290283203124,-0.009206771850585938,0.12719088792800903,0.020902574062347412
1772789760549389800,12.149389892578125,-0.0047283172607421875,0.06346428394317627,0.023580342531204224
1772789760569489400,12.169489501953125,-0.014619827270507812,-0.009316623210906982,-0.007198840379714966
1772789760589589000,12.189589111328125,0.013193130493164062,-0.09199237823486328,-0.056924283504486084
1772789760609688600,12.2096884765625,0.032113075256347656,-0.09877192974090576,-0.05984112620353699
1772789760649887700,12.2498876953125,0.0029783248901367188,-0.0850067138671875,-0.061044007539749146
1772789760669987300,12.2699873046875,0.007624626159667969,-0.058737337589263916,-0.059992432594299316
1772789760710187800,12.310187744140626,0.0021114349365234375,0.02505934238433838,0.07211905717849731
1772789760730287900,12.330287841796874,-0.007572174072265625,0.02662050724029541,0.02421286702156067
1772789760750388000,12.350387939453125,-0.04596710205078125,0.05201154947280884,-0.015501677989959717
1772789760770488000,12.370488037109375,-0.013773918151855469,0.002218008041381836,-0.01555892825126648
1772789760810688300,12.410688232421874,-0.028896331787109375,0.004967391490936279,-0.05047944188117981
1772789760850888400,12.450888427734375,0.031459808349609375,-0.03470116853713989,-0.05750894546508789
1772789760870988800,12.47098876953125,-0.02608489990234375,0.01432943344116211,-0.010761499404907227
1772789760891089000,12.4910888671875,-0.02129840850830078,0.05472123622894287,0.01764887571334839
1772789760911189000,12.51118896484375,-0.0213623046875,0.01288294792175293,0.013459175825119019
1772789760931289000,12.5312890625,0.02111530303955078,-0.005590319633483887,0.018256545066833496
1772789760951389200,12.55138916015625,0.01622772216796875,-0.000014960765838623047,-0.042013734579086304
1772789760971489300,12.5714892578125,-0.040096282958984375,-0.02334010601043701,-0.0087319016456604
1772789760991589400,12.59158935546875,0.016132354736328125,-0.01799595355987549,-0.017404645681381226
1772789761011689500,12.611689453125,0.020897865295410156,-0.012705385684967041,-0.017565220594406128
1772789761031789800,12.631789794921875,0.007050514221191406,-0.05011826753616333,-0.0074974894523620605
1772789761051890000,12.651889892578126,-0.026519775390625,-0.020961463451385498,0.002334773540496826
1772789761071990000,12.671989990234374,0.011104583740234375,-0.025001943111419678,-0.04863041639328003
1772789761092090000,12.692090087890625,-0.05473613739013672,0.018205463886260986,0.011867761611938477
1772789761112190200,12.712190185546875,0.02547168731689453,0.05674433708190918,0.007896840572357178
1772789761132290300,12.732290283203126,-0.021826744079589844,0.018508493900299072,0.02174505591392517
1772789761152390400,12.752390380859374,-0.0027141571044921875,0.01414191722869873,-0.005653113126754761
1772789761172490000,12.772489990234375,-0.01712799072265625,-0.028493285179138184,-0.010104089975357056
1772789761192588500,12.792588623046875,0.01574420928955078,-0.04690808057785034,0.009063512086868286
1772789761232785700,12.83278564453125,0.0060901641845703125,-0.06028008460998535,-0.02355697751045227
1772789761252884200,12.85288427734375,0.02045154571533203,-0.0649535059928894,-0.047392040491104126
1772789761272982800,12.872982666015625,0.010838508605957031,-0.031017661094665527,-0.023230701684951782
1772789761293081600,12.89308154296875,-0.00774383544921875,-0.0019580721855163574,0.0006576776504516602
1772789761333278700,12.93327880859375,-0.045502662658691406,0.026519775390625,-0.008619725704193115
1772789761353377300,12.953377197265626,0.011357307434082031,0.02208542823791504,0.010876744985580444
1772789761373475800,12.973475830078126,-0.017401695251464844,0.02227914333343506,0.00133591890335083
1772789761413673000,13.0136728515625,0.006481170654296875,-0.04821622371673584,-0.026656508445739746
1772789761433771500,13.033771484375,0.006458282470703125,-0.04793506860733032,-0.01687788963317871
1772789761453870000,13.0538701171875,0.01123046875,-0.033409059047698975,-0.030992358922958374
1772789761473968600,13.07396875,-0.0031576156616210938,-0.018777132034301758,-0.007087111473083496
1772789761494067200,13.094067138671875,0.0201568603515625,-0.0038695335388183594,0.026783734560012817
1772789761514165800,13.114165771484375,-0.017556190490722656,0.010207295417785645,-0.040244221687316895
1772789761554363000,13.15436279296875,0.06743907928466797,0.011098742485046387,-0.0070123374462127686
1772789761574461400,13.17446142578125,-0.02241992950439453,0.0017126798629760742,0.0030770301818847656
1772789761594560000,13.19456005859375,-0.008059501647949219,-0.012432336807250977,-0.0017524361610412598
1772789761614658600,13.214658447265625,-0.017683029174804688,-0.02642643451690674,-0.006014227867126465
1772789761634757000,13.234757080078126,0.015241622924804688,-0.01669633388519287,-0.01545792818069458
1772789761654855700,13.254855712890626,0.015248298645019531,-0.00231856107711792,-0.025241732597351074
1772789761674954800,13.274954833984374,-0.022500991821289062,-0.002057015895843506,-0.020305663347244263
1772789761695054000,13.29505419921875,0.00621795654296875,-0.025575637817382812,-0.010710179805755615
1772789761715153700,13.315153564453125,0.01999378204345703,-0.0018748641014099121,-0.010277330875396729
1772789761735253200,13.335253173828125,-0.04588794708251953,0.007343173027038574,-0.015358328819274902
1772789761755352600,13.3553525390625,0.04390525817871094,0.002856135368347168,-0.00038045644760131836
1772789761775452200,13.3754521484375,0.0013828277587890625,0.0029502511024475098,-0.014857679605484009
1772789761795551500,13.395551513671874,-0.0178070068359375,0.0033056139945983887,-0.005147010087966919
1772789761815651000,13.415651123046874,0.029499053955078125,-0.029603183269500732,-0.00984412431716919
1772789761835750700,13.435750732421875,0.010911941528320312,-0.03414362668991089,-0.00964963436126709
1772789761855850000,13.45585009765625,0.0013360977172851562,-0.010868430137634277,-0.004877835512161255
1772789761875949600,13.475949462890625,-0.017848968505859375,-0.010528087615966797,-0.009035438299179077
1772789761896049000,13.496048828125,-0.0034885406494140625,-0.014689326286315918,-0.01412317156791687
1772789761916148500,13.5161484375,-0.013094902038574219,-0.0047269463539123535,0.009886473417282104
1772789761936248000,13.536248046875,0.015032768249511719,-0.00004208087921142578,-0.01808515191078186
1772789761956347400,13.556347412109375,-0.060423851013183594,0.00020051002502441406,-0.00417754054069519
1772789761976447000,13.576447021484375,0.03896141052246094,0.009920597076416016,-0.0036069750785827637
1772789761996546300,13.59654638671875,-0.0035457611083984375,-0.004596531391143799,-0.018107444047927856
1772789762016646000,13.61664599609375,-0.02273082733154297,-0.004443168640136719,-0.012910008430480957
1772789762036745500,13.636745361328124,0.01978015899658203,-0.009159386157989502,-0.007997274398803711
1772789762056844800,13.6568447265625,-0.003582000732421875,-0.01869863271713257,-0.012704908847808838
1772789762076944400,13.6769443359375,-0.027543067932128906,-0.004322230815887451,-0.007695287466049194
1772789762097043700,13.697043701171875,-0.0083770751953125,-0.004806816577911377,0.011779814958572388
1772789762117143300,13.717143310546875,0.0011968612670898438,-0.009588778018951416,0.0072212815284729
1772789762137243000,13.737242919921876,-0.008390426635742188,-0.009780406951904297,-0.006587505340576172
1772789762157342200,13.75734228515625,0.0011920928955078125,-0.01947861909866333,0.0031756460666656494
1772789762177441300,13.777441162109374,0.0011749267578125,-0.004781246185302734,0.0030804872512817383
1772789762197540000,13.7975400390625,0.024494171142578125,-0.03322345018386841,-0.029895544052124023
1772789762217638700,13.817638671875,-0.03656196594238281,-0.009619176387786865,-0.03011426329612732
1772789762237737500,13.837737548828125,0.0011272430419921875,0.0003184080123901367,-0.005590766668319702
1772789762257836300,13.857836181640625,0.029298782348632812,-0.014281868934631348,-0.0011346936225891113
1772789762277935000,13.87793505859375,-0.008456230163574219,0.000244140625,0.01856788992881775
1772789762298033700,13.89803369140625,0.00591278076171875,-0.013550162315368652,-0.020198285579681396
1772789762318132500,13.918132568359376,0.0011224746704101562,0.015297472476959229,-0.04916715621948242
1772789762338231300,13.938231201171876,-0.013275146484375,-0.008385062217712402,0.042115241289138794
1772789762358330000,13.958330078125,0.005871772766113281,-0.02737259864807129,-0.005578577518463135
1772789762398527500,13.998527587890624,0.014861106872558594,-0.0035521388053894043,-0.000744253396987915
1772789762418626300,14.018626220703124,-0.0037212371826171875,-0.027436792850494385,0.00444379448890686
1772789762438724900,14.038724853515625,0.005850791931152344,0.006127834320068359,-0.024026334285736084
1772789762458823700,14.05882373046875,-0.00372314453125,0.001276552677154541,-0.02417963743209839
1772789762478922500,14.078922607421875,0.0010662078857421875,-0.017786026000976562,0.009212523698806763
1772789762499021300,14.099021240234375,-0.0037546157836914062,-0.008305847644805908,0.019991546869277954
1772789762519120000,14.119119873046875,0.03458118438720703,-0.032480061054229736,-0.03733453154563904
1772789762539218700,14.13921875,-0.041477203369140625,-0.004232943058013916,0.015247434377670288
1772789762579416000,14.179416015625,0.010601997375488281,-0.018496453762054443,-0.022001415491104126
1772789762599515000,14.199514892578126,-0.031920433044433594,-0.023022234439849854,-0.03678515553474426
1772789762619613700,14.21961376953125,-0.017559051513671875,-0.0037488341331481934,0.011268079280853271
1772789762639712500,14.23971240234375,0.02016735076904297,-0.018229365348815918,-0.007597029209136963
1772789762679910700,14.27991064453125,-0.0032224655151367188,-0.02268373966217041,-0.006581515073776245
1772789762700010200,14.30001025390625,0.015339851379394531,-0.002864241600036621,0.0011746585369110107
1772789762720110000,14.320110107421876,-0.008620262145996094,-0.002857804298400879,-0.02260613441467285
1772789762740210000,14.3402099609375,0.010531425476074219,-0.017130613327026367,-0.012867778539657593
1772789762760309500,14.3603095703125,-0.00385284423828125,-0.00752866268157959,-0.0029557347297668457
1772789762780409300,14.380409423828125,0.010497093200683594,0.002258002758026123,-0.017007380723953247
1772789762800509200,14.40050927734375,0.010509490966796875,0.0020964741706848145,-0.021882832050323486
1772789762820608800,14.42060888671875,0.0009145736694335938,-0.007153928279876709,-0.003498941659927368
1772789762840708600,14.44070849609375,-0.008679389953613281,0.0024674534797668457,-0.0032112300395965576
1772789762860808400,14.460808349609374,-0.008671760559082031,0.016789257526397705,-0.02250543236732483
1772789762880908000,14.480907958984375,0.01465606689453125,-0.015576779842376709,0.02038753032684326
1772789762901008000,14.5010078125,0.019455909729003906,-0.020421087741851807,0.0010606944561004639
1772789762921107700,14.521107666015626,-0.027909278869628906,0.013540446758270264,-0.021999895572662354
1772789762941207300,14.541207275390626,0.02422809600830078,-0.005760312080383301,-0.013290554285049438
1772789762981407000,14.581406982421875,-0.0039539337158203125,-0.024619102478027344,-0.03671059012413025
1772789763001506600,14.601506591796875,-0.027916908264160156,-0.015071630477905273,0.0013521909713745117
1772789763021606400,14.6216064453125,-0.003941535949707031,-0.024663090705871582,0.0007039010524749756
1772789763041706200,14.641706298828124,-0.03270244598388672,-0.010180234909057617,-0.0181807279586792
1772789763061805800,14.661805908203124,-0.013519287109375,-0.015105068683624268,-0.013753116130828857
1772789763081905700,14.68190576171875,-0.0039463043212890625,-0.019756674766540527,-0.0185202956199646
1772789763102005200,14.702005126953125,0.0008487701416015625,-0.015702486038208008,-0.007008671760559082
1772789763122105000,14.72210498046875,-0.008127212524414062,-0.015619397163391113,-0.002594500780105591
1772789763142205000,14.742204833984376,-0.003330230712890625,-0.010875523090362549,-0.012291103601455688
1772789763162304500,14.762304443359374,-0.012920379638671875,-0.015701770782470703,-0.021543949842453003
1772789763182404000,14.782404052734375,-0.008118629455566406,-0.011660277843475342,-0.0071954429149627686
1772789763202503400,14.80250341796875,0.005679130554199219,-0.007128000259399414,0.0027127861976623535
1772789763222603000,14.82260302734375,-0.008086204528808594,0.0024303197860717773,-0.0070667266845703125
1772789763242702300,14.842702392578126,-0.008081436157226562,-0.007209420204162598,-0.01669919490814209
1772789763262801700,14.8628017578125,-0.0032758712768554688,-0.002560734748840332,-0.012122690677642822
1772789763282901200,14.8829013671875,-0.017693519592285156,-0.016228318214416504,0.0022909045219421387
1772789763303000600,14.90300048828125,0.029027938842773438,-0.030013978481292725,-0.018347710371017456
1772789763323100000,14.923099853515625,-0.0320587158203125,-0.0012196898460388184,-0.04231235384941101
1772789763343199500,14.943199462890625,0.015249252319335938,-0.020526409149169922,-0.008403241634368896
1772789763363298800,14.963298828125,0.03380393981933594,-0.015582561492919922,-0.013177275657653809
1772789763383398100,14.983398193359376,-0.022477149963378906,0.003474295139312744,-0.04214811325073242
1772789763403497500,15.00349755859375,0.02002429962158203,-0.005834341049194336,0.015453696250915527
1772789763443696400,15.0436962890625,-0.00872802734375,-0.015473484992980957,-0.027379721403121948
1772789763483895300,15.083895263671875,-0.008115768432617188,-0.02500009536743164,0.011050283908843994
1772789763503994600,15.10399462890625,0.0008907318115234375,0.003512561321258545,-0.018022507429122925
1772789763524094000,15.124093994140624,-0.003887176513671875,-0.01090395450592041,-0.013558626174926758
1772789763544193500,15.144193603515625,0.015295028686523438,0.003382444381713867,-0.023530572652816772
1772789763564292900,15.16429296875,-0.008039474487304688,-0.006356000900268555,-0.014335811138153076
1772789763584392200,15.18439208984375,-0.0032472610473632812,0.0032532811164855957,-0.004852324724197388
1772789763604491800,15.20449169921875,-0.00801849365234375,-0.011304318904876709,-0.005113422870635986
1772789763624591000,15.224591064453126,-0.012807846069335938,0.0023674368858337402,-0.01935422420501709
1772789763644690400,15.2446904296875,0.010567665100097656,0.002051055431365967,-0.01937738060951233
1772789763664790000,15.2647900390625,0.0009937286376953125,-0.030900299549102783,-0.0004373490810394287
1772789763684888600,15.284888671875,-0.03673553466796875,-0.021466434001922607,-0.02470192313194275
1772789763704987400,15.3049873046875,-0.0037832260131835938,-0.02643609046936035,-0.015208214521408081
1772789763725086200,15.325086181640625,-0.008579254150390625,-0.021907150745391846,-0.00016421079635620117
1772789763745185000,15.34518505859375,-0.022905349731445312,0.01136249303817749,-0.025093406438827515
1772789763785382400,15.38538232421875,-0.0037670135498046875,-0.00269317626953125,-0.01591801643371582
1772789763805481200,15.405481201171876,0.019603729248046875,-0.04073256254196167,-0.039738357067108154
1772789763845678800,15.445678955078124,0.029184341430664062,-0.016667664051055908,0.007999211549758911
1772789763865777700,15.465777587890624,0.01961231231689453,-0.016900599002838135,-0.01582920551300049
1772789763885876200,15.485876220703124,-0.022319793701171875,-0.01737266778945923,-0.03431493043899536
1772789763905975000,15.50597509765625,0.010633468627929688,-0.013019025325775146,-0.014758646488189697
1772789763946172700,15.546172607421875,-0.00371551513671875,-0.023145198822021484,-0.0145130455493927
1772789763966271200,15.566271240234375,0.010664939880371094,0.005566239356994629,-0.029064059257507324
1772789763986370000,15.5863701171875,0.01068878173828125,-0.018673598766326904,-0.010072112083435059
1772789764006468900,15.60646875,-0.0036935806274414062,-0.013922810554504395,-0.014496833086013794
1772789764046666500,15.64666650390625,0.00112152099609375,-0.009408056735992432,-0.00991600751876831
1772789764066765000,15.66676513671875,-0.013263702392578125,-0.03802090883255005,-0.009779661893844604
1772789764086864000,15.68686376953125,0.001125335693359375,-0.018990635871887207,-0.009450346231460571
1772789764106962700,15.706962646484374,0.0011463165283203125,-0.019112110137939453,-0.01467597484588623
1772789764127061500,15.7270615234375,0.010737419128417969,-0.019238412380218506,-0.0003446638584136963
1772789764147160300,15.747160400390625,0.015531539916992188,-0.014526903629302979,-0.005071759223937988
1772789764167259100,15.767259033203125,0.0059490203857421875,-0.01445913314819336,-0.0003719329833984375
1772789764187359200,15.787359130859375,-0.012604713439941406,-0.028987348079681396,-0.000467449426651001
1772789764207459300,15.807459228515626,-0.01738452911376953,-0.019641757011413574,-0.00035130977630615234
1772789764227559400,15.827559326171874,-0.00299835205078125,-0.005381464958190918,-0.010161548852920532
1772789764247659500,15.847659423828125,-0.0029973983764648438,-0.024655282497406006,-0.009974420070648193
1772789764287859700,15.887859619140626,-0.0029973983764648438,-0.029498398303985596,-0.019462943077087402
1772789764307960000,15.9079599609375,0.0012035369873046875,-0.01998668909072876,-0.010008007287979126
1772789764328060200,15.92806005859375,0.015584945678710938,-0.0110434889793396,-0.01979324221611023
1772789764368260400,15.96826025390625,-0.007770538330078125,-0.01107490062713623,-0.014321863651275635
1772789764408460500,16.00846044921875,0.0107879638671875,-0.030212759971618652,-0.004635602235794067
1772789764428560600,16.028560546875,0.0018663406372070312,-0.021120011806488037,-0.005606472492218018
1772789764448660700,16.04866064453125,-0.01734161376953125,-0.01599717140197754,-0.004852086305618286
1772789764468760800,16.0687607421875,0.03478813171386719,-0.01135033369064331,-0.01500922441482544
1772789764488861000,16.08886083984375,0.010840415954589844,-0.03000819683074951,-0.001332700252532959
1772789764508961000,16.1089609375,-0.012495994567871094,-0.0021401643753051758,0.0033978819847106934
1772789764529061400,16.129061279296874,-0.007699012756347656,-0.0022082924842834473,-0.025380253791809082
1772789764549161500,16.149161376953124,-0.007694244384765625,-0.011833488941192627,-0.011076480150222778
1772789764569261600,16.169261474609375,-0.007704734802246094,-0.025457382202148438,0.0033476650714874268
1772789764589361700,16.189361572265625,0.0060710906982421875,-0.03034132719039917,-0.039060890674591064
1772789764609461800,16.209461669921875,-0.0028867721557617188,-0.011977434158325195,-0.029911190271377563
1772789764629561900,16.229561767578126,-0.0076808929443359375,-0.02157384157180786,-0.015388935804367065
1772789764649662000,16.249661865234376,-0.012460708618164062,-0.007360696792602539,-0.02022719383239746
1772789764669761800,16.26976171875,-0.017256736755371094,-0.016711771488189697,-0.010924994945526123
1772789764689860000,16.289860107421877,0.0019121170043945312,-0.02156829833984375,-0.001389831304550171
1772789764709958400,16.30995849609375,-0.017259597778320312,-0.026311755180358887,-0.010834574699401855
1772789764730056700,16.330056640625,0.0019016265869140625,-0.011853992938995361,-0.030044138431549072
1772789764750155000,16.350155029296875,-0.007678985595703125,-0.016640126705169678,-0.010932832956314087
1772789764770253300,16.37025341796875,0.016264915466308594,0.0026723146438598633,-0.010871559381484985
1772789764790351600,16.3903515625,-0.017278671264648438,0.002790689468383789,-0.010303020477294922
1772789764810449700,16.41044970703125,-0.012486457824707031,-0.03079235553741455,-0.024620234966278076
1772789764830548000,16.4305478515625,0.0018901824951171875,-0.026063501834869385,-0.01982852816581726
1772789764850646300,16.450646240234374,-0.0029296875,-0.025708258152008057,-0.005233824253082275
1772789764870744600,16.47074462890625,-0.0029344558715820312,-0.039946675300598145,-0.0005517303943634033
1772789764890843000,16.4908427734375,-0.0077457427978515625,-0.034826695919036865,-0.010708779096603394
1772789764910941200,16.510941162109376,0.0018310546875,-0.02031409740447998,-0.010801494121551514
1772789764931039500,16.53103955078125,0.010812759399414062,-0.015455961227416992,-0.01570698618888855
1772789764951137800,16.5511376953125,-0.012554168701171875,-0.010616838932037354,-0.00584682822227478
1772789764971236000,16.571236083984374,0.0018053054809570312,-0.019965052604675293,0.003712207078933716
1772789764991334400,16.59133447265625,0.0017871856689453125,-0.024501025676727295,-0.0201871395111084
1772789765011432700,16.6114326171875,-0.0029964447021484375,-0.010177791118621826,-0.015522032976150513
1772789765031531000,16.631531005859376,0.029875755310058594,-0.042934417724609375,0.0041973888874053955
1772789765051629300,16.65162939453125,0.0017490386962890625,-0.005198359489440918,-0.04317483305931091
1772789765071727600,16.6717275390625,-0.055141448974609375,-0.004803359508514404,-0.0009019672870635986
1772789765091826000,16.691825927734374,0.05324268341064453,-0.01381993293762207,-0.0010792315006256104
1772789765111924200,16.71192431640625,-0.031800270080566406,-0.032878577709198,-0.01556435227394104
1772789765132022300,16.732022216796874,0.0059146881103515625,-0.02289026975631714,-0.03023087978363037
1772789765152120600,16.75212060546875,0.010690689086914062,-0.04207348823547363,0.0037721097469329834
1772789765172219400,16.772219482421875,-0.0037012100219726562,-0.022605538368225098,-0.02014818787574768
1772789765192318700,16.792318603515625,-0.022260665893554688,-0.017899811267852783,-0.025581687688827515
1772789765212418000,16.81241796875,-0.0037012100219726562,-0.027331888675689697,-0.0065209269523620605
1772789765232517600,16.832517578125,0.010670661926269531,-0.008215248584747314,0.007980763912200928
1772789765252617000,16.852616943359376,-0.008494377136230469,-0.013102591037750244,-0.020507395267486572
1772789765272716500,16.872716552734374,-0.0036973953247070312,-0.017973899841308594,-0.011011630296707153
1772789765292816000,16.89281591796875,-0.022279739379882812,-0.027955174446105957,0.009518086910247803
1772789765333014800,16.933014892578125,0.01602935791015625,-0.02286052703857422,-0.013812512159347534
1772789765353114000,16.953114013671875,-0.012708663940429688,-0.0276639461517334,0.0003559291362762451
1772789765373213700,16.973213623046874,0.00167083740234375,-0.03255319595336914,-0.009265333414077759
1772789765413412400,17.013412353515626,-0.0030956268310546875,-0.004664361476898193,-0.01434391736984253
1772789765453611300,17.053611328125,-0.0030984878540039062,-0.02393704652786255,-0.0038695931434631348
1772789765473710800,17.0737109375,-0.012075424194335938,-0.033513665199279785,-0.013633906841278076
1772789765493810200,17.09381005859375,0.005888938903808594,-0.03225517272949219,-0.020271331071853638
1772789765513909500,17.113909423828126,-0.007900238037109375,-0.02242755889892578,-0.02505713701248169
1772789765534009000,17.134009033203125,0.005860328674316406,-0.02705860137939453,-0.02016100287437439
1772789765554108400,17.1541083984375,-0.007901191711425781,-0.017565548419952393,-0.020365595817565918
1772789765574207700,17.174207763671873,-0.01747417449951172,-0.008095383644104004,-0.010868042707443237
1772789765594307300,17.194307373046875,-0.0036945343017578125,-0.01770758628845215,-0.0013957321643829346
1772789765614406700,17.21440673828125,0.0058689117431640625,-0.01746833324432373,-0.01086321473121643
1772789765634506200,17.23450634765625,-0.012696266174316406,-0.0223272442817688,-0.0017342567443847656
1772789765654605600,17.25460546875,-0.008522987365722656,-0.02208578586578369,-0.011186093091964722
1772789765674704600,17.27470458984375,-0.013319015502929688,-0.04116690158843994,-0.0016030073165893555
1772789765694803500,17.294803466796875,-0.007940292358398438,-0.03679913282394409,-0.014753937721252441
1772789765735001300,17.33500146484375,-0.012730598449707031,-0.008086860179901123,0.0044539570808410645
1772789765755100200,17.35510009765625,0.006450653076171875,-0.0036205053329467773,0.009306341409683228
1772789765795297800,17.3952978515625,0.044155120849609375,-0.03210854530334473,-0.018573731184005737
1772789765815396600,17.415396728515624,-0.055255889892578125,-0.017777562141418457,-0.018528640270233154
1772789765835495400,17.435495361328126,0.029767990112304688,-0.017592966556549072,0.005562096834182739
1772789765855594200,17.45559423828125,0.048941612243652344,-0.017623543739318848,-0.02343490719795227
1772789765895791900,17.4957919921875,-0.03193473815917969,-0.03662395477294922,-0.01867753267288208
1772789765935989500,17.535989501953125,0.010582923889160156,-0.012695074081420898,-0.018533825874328613
1772789765976187400,17.5761875,-0.0031843185424804688,-0.003410518169403076,-0.008605748414993286
1772789766016385000,17.616385009765626,0.010587692260742188,-0.01295703649520874,-0.01339256763458252
1772789766036483800,17.63648388671875,0.0016002655029296875,-0.012893378734588623,-0.027751564979553223
1772789766056582700,17.656582763671874,-0.012759208679199219,-0.027337074279785156,-0.008875459432601929
1772789766096780300,17.6967802734375,0.0015935897827148438,-0.017632007598876953,-0.01803874969482422
1772789766136978200,17.736978271484375,0.0016069412231445312,-0.017852485179901123,0.01547667384147644
1772789766157077000,17.757076904296873,0.00160980224609375,-0.017987310886383057,-0.0035252273082733154
1772789766177175800,17.77717578125,0.011191368103027344,-0.008462190628051758,-0.008189588785171509
1772789766197275000,17.79727490234375,0.001598358154296875,-0.02269667387008667,0.001490950584411621
1772789766217374000,17.8173740234375,-0.012799263000488281,-0.012901067733764648,-0.017313092947006226
1772789766237473000,17.83747314453125,-0.008009910583496094,-0.003391861915588379,-0.017113983631134033
1772789766257572000,17.857572021484376,0.0063724517822265625,-0.027403593063354492,-0.0029439032077789307
1772789766277671000,17.8776708984375,0.015357017517089844,-0.0322301983833313,-0.007726788520812988
1772789766297770000,17.89777001953125,-0.012790679931640625,-0.03700387477874756,-0.026270568370819092
1772789766317869000,17.917869140625,-0.01758575439453125,-0.032095372676849365,-0.0024332404136657715
1772789766337968000,17.937968017578125,-0.017580032348632812,-0.017808735370635986,-0.002433300018310547
1772789766358067200,17.958067138671876,-0.003215789794921875,-0.0177420973777771,-0.011869966983795166
1772789766378166300,17.978166259765626,-0.007998466491699219,-0.012990176677703857,-0.012064367532730103
1772789766398265300,17.998265380859376,0.0015840530395507812,-0.013083100318908691,-0.02149292826652527
1772789766418364400,18.018364501953126,-0.01279449462890625,-0.017854630947113037,-0.03094211220741272
1772789766438463500,18.03846337890625,0.011163711547851562,-0.0040953755378723145,0.007308542728424072
1772789766458562600,18.0585625,0.0063724517822265625,-0.022784292697906494,-0.0020042061805725098
1772789766478661600,18.07866162109375,0.011134147644042969,-0.03209364414215088,-0.035132795572280884
1772789766498760400,18.098760498046875,-0.045731544494628906,-0.01786881685256958,-0.012370586395263672
1772789766518859500,18.118859619140625,0.006346702575683594,-0.017691075801849365,-0.021526992321014404
1772789766538958600,18.13895849609375,0.020143508911132812,-0.0275304913520813,-0.03134867548942566
1772789766559057700,18.1590576171875,-0.0223846435546875,-0.008150696754455566,-0.007548153400421143
1772789766579156700,18.17915673828125,-0.008017539978027344,0.0014687180519104004,-0.0026171505451202393
1772789766599255800,18.199255859375,0.0015707015991210938,-0.008208096027374268,-0.02183273434638977
1772789766619355000,18.21935498046875,0.006371498107910156,-0.0226823091506958,0.01638847589492798
1772789766639454000,18.239453857421875,-0.022391319274902344,-0.013034999370574951,0.002420961856842041
1772789766679652000,18.279652099609375,-0.0032453536987304688,-0.0366748571395874,-0.007195204496383667
1772789766699751200,18.299751220703126,-0.008042335510253906,-0.01747971773147583,0.0025248825550079346
1772789766719850200,18.319850341796876,0.0015420913696289062,-0.026995837688446045,-0.021645814180374146
1772789766739949300,18.33994921875,-0.008044242858886719,-0.03171283006668091,-0.021646708250045776
1772789766780147500,18.3801474609375,-0.0032453536987304688,-0.031867265701293945,-0.016811490058898926
1772789766820345600,18.420345703125,0.005733489990234375,-0.01739490032196045,-0.012066394090652466
1772789766840444700,18.440444580078125,-0.008054733276367188,0.0019017457962036133,-0.002277165651321411
1772789766880642800,18.480642822265626,0.0014963150024414062,-0.0073163509368896484,0.0021716058254241943
1772789766900742000,18.500741943359376,-0.0032958984375,0.002238750457763672,-0.016291260719299316
1772789766920841200,18.52084130859375,0.0014925003051757812,-0.016995549201965332,-0.020874738693237305
1772789766940940300,18.540940185546877,-0.017691612243652344,-0.035810112953186035,-0.006552249193191528
1772789766961039400,18.561039306640627,-0.0033216476440429688,-0.026165783405303955,-0.011326611042022705
1772789766981138400,18.581138427734373,0.015252113342285156,-0.026257038116455078,-0.016242682933807373
1772789767001237500,18.601237548828124,0.015248298645019531,-0.016586661338806152,0.002896815538406372
1772789767021336600,18.621336669921874,-0.012910842895507812,-0.016399383544921875,0.01727321743965149
1772789767041435600,18.641435546875,0.001445770263671875,-0.011485874652862549,0.003191232681274414
1772789767081633800,18.6816337890625,-0.0033235549926757812,-0.011756539344787598,0.0029973387718200684
1772789767101732900,18.70173291015625,0.011028289794921875,-0.025860846042633057,-0.001039057970046997
1772789767121832000,18.72183203125,-0.012949943542480469,-0.025492191314697266,-0.005767792463302612
1772789767141931000,18.741930908203123,0.0014247894287109375,-0.0447501540184021,-0.010439425706863403
1772789767162030000,18.762030029296874,-0.0033655166625976562,-0.02548140287399292,0.008491724729537964
1772789767202229200,18.802229248046874,0.0062122344970703125,-0.0211372971534729,-0.010223478078842163
1772789767222328800,18.822328857421876,-0.021942138671875,-0.01625877618789673,0.008996754884719849
1772789767242428400,18.842428466796875,-0.008172988891601562,-0.01622474193572998,-0.000494539737701416
1772789767262528000,18.862528076171873,0.010984420776367188,-0.02096027135848999,-0.005189359188079834
1772789767282627600,18.882627685546876,-0.012363433837890625,-0.030571937561035156,-0.01973554491996765
1772789767302727200,18.90272705078125,-0.012949943542480469,-0.03504312038421631,-0.01601165533065796
1772789767322826800,18.92282666015625,0.0062084197998046875,-0.0300179123878479,-0.011477112770080566
1772789767363026000,18.96302587890625,-0.012975692749023438,-0.02498239278793335,-0.011316001415252686
1772789767403225000,19.00322509765625,0.006206512451171875,-0.006224155426025391,-0.011125653982162476
1772789767423324700,19.02332470703125,-0.0033807754516601562,-0.020602822303771973,-0.010943710803985596
1772789767463523800,19.06352392578125,-0.0129547119140625,-0.01597541570663452,-0.001307368278503418
1772789767483623400,19.08362353515625,-0.0129547119140625,-0.015996694564819336,-0.024615973234176636
1772789767523822600,19.123822509765624,0.01579570770263672,-0.03510427474975586,-0.015292644500732422
1772789767564021800,19.164021728515625,-0.0033655166625976562,-0.02563267946243286,-0.01996031403541565
1772789767604221000,19.204220947265625,0.006222724914550781,-0.0017525553703308105,-0.01519632339477539
1772789767624320500,19.224320556640624,-0.008145332336425781,-0.02569401264190674,0.0037747323513031006
1772789767644420000,19.244420166015626,0.02000141143798828,-0.025570452213287354,-0.00602567195892334
1772789767684619500,19.28461962890625,0.0014410018920898438,-0.011692583560943604,-0.015367984771728516
1772789767724819700,19.32481982421875,0.030111312866210938,-0.03488636016845703,-0.019237756729125977
1772789767744919600,19.34491943359375,-0.03630542755126953,-0.02098637819290161,-0.020157665014266968
1772789767765019600,19.36501953125,-0.012392044067382812,0.008197426795959473,-0.010094612836837769
1772789767785119700,19.38511962890625,0.039730072021484375,-0.01592087745666504,0.008709698915481567
1772789767805219600,19.405219482421874,-0.01236724853515625,-0.006176352500915527,-0.019877761602401733
1772789767825319700,19.425319580078124,0.0019884109497070312,-0.01582658290863037,0.004779309034347534
1772789767845419800,19.445419677734375,0.039748191833496094,-0.011223971843719482,-0.015022039413452148
1772789767885619700,19.48561962890625,0.001415252685546875,-0.02480846643447876,-0.026602834463119507
1772789767905719800,19.5057197265625,0.019968032836914062,-0.03430300951004028,-0.031159162521362305
1772789767925820000,19.52581982421875,-0.00817108154296875,-0.034432172775268555,-0.007190227508544922
1772789767945919700,19.545919677734375,0.0014181137084960938,-0.010564148426055908,-0.01684093475341797
1772789767966019800,19.566019775390625,-0.008173942565917969,-0.005771756172180176,-0.0021567940711975098
1772789767986120000,19.586119873046876,0.005600929260253906,-0.02417653799057007,-0.012676715850830078
1772789768006219800,19.6062197265625,-0.008170127868652344,-0.024288296699523926,-0.012539178133010864
1772789768026320000,19.62631982421875,0.0008115768432617188,-0.009946763515472412,-0.00768589973449707
1772789768046420000,19.646419921875,0.024771690368652344,-0.0195845365524292,-0.012558966875076294
1772789768066520000,19.66652001953125,0.0008068084716796875,-0.024263501167297363,-0.02199217677116394
1772789768086620000,19.686619873046876,0.010985374450683594,-0.0055419206619262695,-0.006671816110610962
1772789768126820000,19.726820068359373,-0.0034027099609375,-0.024593770503997803,-0.020764052867889404
1772789768167020000,19.76702001953125,-0.003406524658203125,-0.019815564155578613,-0.015842348337173462
1772789768207218200,19.80721826171875,-0.013004302978515625,-0.01943439245223999,-0.011252015829086304
1772789768227317200,19.827317138671877,-0.0034332275390625,-0.024171531200408936,-0.03018242120742798
1772789768247416300,19.847416259765627,-0.01300811767578125,-0.01527094841003418,-0.01586976647377014
1772789768267515400,19.867515380859373,-0.013021469116210938,-0.015028059482574463,-0.020132094621658325
1772789768287614500,19.887614501953124,0.006125450134277344,-0.00463712215423584,-0.0014138221740722656
1772789768307713500,19.907713623046874,-0.0034656524658203125,-0.014147520065307617,-0.025241196155548096
1772789768327812600,19.9278125,0.0013170242309570312,0.0002084970474243164,-0.0057486891746521
1772789768347911700,19.94791162109375,0.010904312133789062,-0.014227449893951416,-0.0010221600532531738
1772789768368010800,19.9680107421875,0.01987743377685547,-0.023689627647399902,-0.029677003622055054
1772789768408209200,20.008209228515625,0.006094932556152344,-0.02820742130279541,-0.015525519847869873
1772789768448407300,20.0484072265625,0.01568126678466797,-0.023415446281433105,-0.02526867389678955
1772789768488605400,20.08860546875,-0.026841163635253906,-0.014379918575286865,-0.024672716856002808
1772789768508704500,20.10870458984375,-0.012479782104492188,-0.01906716823577881,-0.019721001386642456
1772789768528803600,20.128803466796874,0.0012826919555664062,-0.02384573221206665,-0.019398540258407593
1772789768569001700,20.169001708984375,-0.0035200119018554688,-0.019075453281402588,-0.0189896821975708
1772789768589101000,20.18910107421875,-0.02207469940185547,0.0001315474510192871,-0.0002352297306060791
1772789768609199900,20.209199951171875,-0.012481689453125,0.019131124019622803,-0.005057394504547119
1772789768629299200,20.22929931640625,0.00609588623046875,0.004641413688659668,-0.014207720756530762
1772789768649398300,20.249398193359376,-0.0076808929443359375,-0.023988068103790283,-0.004764467477798462
1772789768689595100,20.28959521484375,-0.013075828552246094,-0.009216606616973877,-0.029372721910476685
1772789768709693400,20.309693359375,0.010884284973144531,-0.018794536590576172,0.003994882106781006
1772789768729791500,20.32979150390625,-0.013083457946777344,-0.033229291439056396,0.0044991374015808105
1772789768749889800,20.349889892578126,0.0012884140014648438,-0.009352564811706543,-0.009688764810562134
1772789768769987800,20.36998779296875,0.019857406616210938,-0.009375572204589844,-0.019317835569381714
1772789768790086100,20.390086181640626,0.010861396789550781,-0.023521900177001953,-0.00020647048950195312
1772789768810184200,20.41018408203125,0.02942943572998047,-0.014005720615386963,-0.009747505187988281
1772789768830282500,20.430282470703126,0.015648841857910156,-0.00924372673034668,-0.019053876399993896
1772789768850380500,20.450380615234376,-0.008304595947265625,-0.02355349063873291,-0.010247617959976196
1772789768870478600,20.470478515625,-0.017882347106933594,-0.042767107486724854,-0.0198594331741333
1772789768890577000,20.490576904296876,-0.007700920104980469,-0.005076467990875244,-0.01383402943611145
1772789768910675000,20.510675048828126,0.0012674331665039062,-0.0049610137939453125,-0.01835581660270691
1772789768930773200,20.530773193359376,0.015638351440429688,-0.009720563888549805,-0.00880172848701477
1772789768950871300,20.550871337890626,0.0012674331665039062,-0.019361138343811035,-0.008707433938980103
1772789768970969600,20.570969482421877,-0.022093772888183594,-0.014586985111236572,-0.01335325837135315
1772789769011166000,20.611166015625,0.020418167114257812,-0.024127721786499023,-0.0029594600200653076
1772789769031264000,20.631263916015627,0.0018625259399414062,-0.01943790912628174,0.0017214417457580566
1772789769051362000,20.651362060546877,0.010834693908691406,-0.028936564922332764,-0.002903074026107788
1772789769091558400,20.691558349609377,-0.0035314559936523438,-0.014641284942626953,-0.02273237705230713
1772789769111656700,20.71165673828125,-0.013119697570800781,-0.0193789005279541,0.0007246136665344238
1772789769151853000,20.75185302734375,0.02520751953125,-0.028487324714660645,-0.018188118934631348
1772789769171951600,20.77195166015625,0.00603485107421875,-0.01874178647994995,-0.013420343399047852
1772789769192051200,20.79205126953125,-0.017930030822753906,-0.009139001369476318,-0.0083407461643219
1772789769212150800,20.81215087890625,-0.0035543441772460938,0.0003364086151123047,-0.017818719148635864
1772789769232250400,20.83225048828125,-0.0035696029663085938,-0.023399531841278076,-0.0033767223358154297
1772789769252349700,20.852349609375,0.00598907470703125,-0.027906596660614014,-0.0031467974185943604
1772789769272449300,20.87244921875,0.010759353637695312,-0.02761942148208618,-0.007857680320739746
1772789769292548900,20.892548828125,-0.008409500122070312,-0.013860464096069336,-0.016635805368423462
1772789769312648400,20.9126484375,0.0011653900146484375,-0.013659954071044922,-0.002421051263809204
1772789769332748000,20.932748046875,0.010727882385253906,-0.018296360969543457,-0.002092033624649048
1772789769352847600,20.95284765625,0.015511512756347656,-0.00858461856842041,-0.002132326364517212
1772789769372947200,20.972947265625,0.005938529968261719,-0.003940999507904053,0.002060443162918091
1772789769393046800,20.993046875,-0.0037374496459960938,-0.035670459270477295,-0.011017203330993652
1772789769413146400,21.013146484375,0.015501976013183594,-0.04117858409881592,-0.016863226890563965
1772789769433246000,21.033245849609376,-0.03664588928222656,0.0015285611152648926,0.0028144121170043945
1772789769473445000,21.073445068359376,-0.02704143524169922,0.0013840198516845703,-0.025737076997756958
1772789769493544700,21.093544677734375,-0.027032852172851562,-0.008542418479919434,0.0033599138259887695
1772789769533743600,21.13374365234375,0.015501976013183594,-0.01353079080581665,-0.001515895128250122
1772789769573942800,21.17394287109375,-0.012654304504394531,-0.02287060022354126,-0.016056180000305176
1772789769594042400,21.19404248046875,-0.017449378967285156,-0.027695119380950928,-0.020676493644714355
1772789769634241500,21.234241455078124,0.0011148452758789062,-0.013342618942260742,-0.001412510871887207
1772789769654341000,21.254341064453126,-0.008478164672851562,-0.017981529235839844,-0.010959625244140625
1772789769674440400,21.2744404296875,-0.0036983489990234375,-0.018042802810668945,0.003887563943862915
1772789769694539800,21.294539794921874,0.005870819091796875,-0.017983734607696533,0.004229724407196045
1772789769734738000,21.334738037109375,-0.012700080871582031,-0.032242417335510254,-0.005415380001068115
1772789769754837200,21.354837158203125,-0.012707710266113281,-0.017879009246826172,-0.019513756036758423
1772789769774936300,21.374936279296875,0.0010662078857421875,-0.00832754373550415,-0.0002918839454650879
1772789769815134700,21.415134765625,-0.0037136077880859375,-0.02778792381286621,-0.00490155816078186
1772789769835233800,21.43523388671875,-0.017493247985839844,-0.013376772403717041,-0.00956815481185913
1772789769855333000,21.4553330078125,0.010638236999511719,-0.008558809757232666,-0.004345208406448364
1772789769895531500,21.495531494140625,-0.007950782775878906,-0.022722363471984863,-0.00812634825706482
1772789769935729700,21.535729736328125,0.0064239501953125,-0.013288319110870361,-0.0175035297870636
1772789769975928000,21.575927978515626,0.0201873779296875,-0.032270073890686035,-0.007931679487228394
1772789769996027400,21.59602734375,0.011197090148925781,-0.027400314807891846,-0.012034982442855835
1772789770016126500,21.61612646484375,0.0016260147094726562,-0.0139540433883667,-0.01173698902130127
1772789770056324900,21.656324951171875,0.001605987548828125,-0.023259520530700684,-0.02123740315437317
1772789770076424000,21.676423828125,-0.012782096862792969,-0.032753050327301025,-0.006528198719024658
1772789770096523300,21.696523193359376,0.00579071044921875,-0.012951910495758057,-0.012847304344177246
1772789770116622300,21.716622314453126,0.0009965896606445312,-0.0034694671630859375,-0.007762521505355835
1772789770136721400,21.736721435546876,-0.017560958862304688,-0.013220906257629395,0.00608980655670166
1772789770176919600,21.77691943359375,-0.008585929870605469,-0.02687370777130127,-0.017813771963119507
1772789770197018400,21.797018310546875,-0.013385772705078125,-0.01721799373626709,-0.00809827446937561
1772789770217117200,21.8171171875,-0.008605003356933594,-0.01714503765106201,-0.007909268140792847
1772789770237216300,21.83721630859375,-0.0182037353515625,-0.00730210542678833,-0.007893949747085571
1772789770257314800,21.857314697265625,-0.0038280487060546875,-0.01686185598373413,-0.0032443106174468994
1772789770277414000,21.877413818359376,0.0009622573852539062,-0.02166891098022461,-0.01273086667060852
1772789770297512700,21.8975126953125,-0.003833770751953125,-0.007902860641479492,-0.021532118320465088
1772789770317611500,21.917611572265624,0.005755424499511719,-0.022445976734161377,-0.011856913566589355
1772789770337710300,21.93771044921875,0.00093841552734375,-0.017368793487548828,-0.021162420511245728
1772789770357809200,21.95780908203125,0.029677391052246094,-0.00778806209564209,-0.011375367641448975
1772789770377908000,21.977907958984375,0.02967071533203125,-0.012509822845458984,-0.0065073370933532715
1772789770398006800,21.9980068359375,-0.008047103881835938,-0.017376184463500977,-0.01566171646118164
1772789770418105600,22.018105712890623,0.0009326934814453125,-0.02213907241821289,-0.015643924474716187
1772789770438204400,22.038204345703125,0.010530471801757812,-0.01747584342956543,-0.0015270411968231201
1772789770458303200,22.05830322265625,-0.008034706115722656,-0.01750338077545166,0.01291722059249878
1772789770478402300,22.07840234375,-0.012833595275878906,-0.007718563079833984,-0.006376504898071289
1772789770498501000,22.098501220703124,-0.00330352783203125,-0.030930399894714355,-0.001962602138519287
1772789770518600000,22.118599853515626,0.02487945556640625,-0.007289528846740723,0.0022561848163604736
1772789770538708000,22.1387080078125,-0.022464752197265625,0.007344663143157959,0.0028347373008728027
1772789770558803200,22.15880322265625,0.024869918823242188,-0.021721959114074707,0.002671182155609131
1772789770578902000,22.178902099609374,-0.02244091033935547,-0.0025207996368408203,-0.002173483371734619
1772789770619099600,22.219099609375,-0.012874603271484375,-0.016680479049682617,-0.020637214183807373
1772789770659297500,22.259297607421875,-0.022469520568847656,-0.01658487319946289,-0.006627142429351807
1772789770679396400,22.279396240234377,0.010462760925292969,-0.04049938917160034,-0.010731905698776245
1772789770699495400,22.299495361328123,-0.008106231689453125,-0.04039478302001953,0.003606855869293213
1772789770719594200,22.31959423828125,0.005645751953125,-0.030485808849334717,-0.005904942750930786
1772789770759792400,22.35979248046875,0.0014486312866210938,-0.02560734748840332,-0.010705441236495972
1772789770779891500,22.379891357421876,-0.008143424987792969,-0.011131346225738525,-0.010553151369094849
1772789770799990300,22.399990234375,0.0056304931640625,-0.011064767837524414,-0.010683953762054443
1772789770820089300,22.42008935546875,-0.0081634521484375,-0.02040719985961914,-0.0009329020977020264
1772789770860287500,22.46028759765625,-0.008164405822753906,-0.015608668327331543,-0.01527145504951477
1772789770880386300,22.48038623046875,0.0056056976318359375,-0.006130039691925049,-0.005368232727050781
1772789770900485400,22.5004853515625,0.0055999755859375,-0.00608450174331665,-0.029232949018478394
1772789770920584400,22.52058447265625,0.0008087158203125,-0.010867893695831299,-0.01068618893623352
1772789770940683300,22.540683349609374,-0.012976646423339844,-0.010808825492858887,-0.015224844217300415
1772789770960782300,22.5607822265625,0.0007905960083007812,-0.00586014986038208,-0.005738765001296997
1772789771000980200,22.600980224609376,0.005573272705078125,-0.015263795852661133,-0.010563760995864868
1772789771041178400,22.641178466796877,0.0007801055908203125,-0.0009770989418029785,-0.005580157041549683
1772789771061277400,22.66127734375,0.0007753372192382812,-0.010559260845184326,-0.010222136974334717
1772789771081376300,22.681376220703125,0.010361671447753906,-0.03454780578613281,-0.010283797979354858
1772789771101475300,22.701475341796876,0.0007715225219726562,-0.039247870445251465,-0.005375325679779053
1772789771121574400,22.721574462890626,-0.0040340423583984375,-0.02477973699569702,-0.0003116726875305176
1772789771141673200,22.741673095703124,0.00074005126953125,-0.02935546636581421,-0.004976868629455566
1772789771161772300,22.761772216796874,0.0007381439208984375,-0.019794821739196777,-0.004851311445236206
1772789771181871600,22.78187158203125,0.00074005126953125,-0.005486726760864258,0.004782825708389282
1772789771201971200,22.80197119140625,-0.0040607452392578125,-0.019827604293823242,-0.014127910137176514
1772789771242170400,22.84217041015625,0.000698089599609375,-0.019429147243499756,0.014906197786331177
1772789771262269700,22.862269775390626,0.015059471130371094,-0.02880185842514038,-0.013885527849197388
1772789771282369300,22.882369384765624,0.005488395690917969,-0.014519870281219482,0.005120426416397095
1772789771302468900,22.90246875,0.005496025085449219,-0.00022423267364501953,0.019993901252746582
1772789771342667800,22.942667724609375,0.015048980712890625,-0.023718178272247314,-0.003947705030441284
1772789771362767400,22.962767333984374,-0.003528594970703125,-0.023730456829071045,0.020430713891983032
1772789771382867000,22.982866943359376,0.0198211669921875,-0.013978302478790283,-0.013207763433456421
1772789771402966500,23.002966552734375,0.005444526672363281,-0.009082317352294922,-0.01326441764831543
1772789771423065900,23.02306591796875,0.0012369155883789062,-0.008926153182983398,0.0012723207473754883
1772789771443165400,23.04316552734375,-0.0035552978515625,-0.023253977298736572,-0.008340954780578613
1772789771463265000,23.06326513671875,0.014994621276855469,-0.023054182529449463,-0.013034433126449585
1772789771483364600,23.083364501953124,0.010201454162597656,-0.023008525371551514,0.006114840507507324
1772789771503464000,23.1034638671875,0.0054187774658203125,-0.00880664587020874,0.0014068186283111572
1772789771523563500,23.1235634765625,0.010201454162597656,-0.0039688944816589355,-0.0032224059104919434
1772789771543663000,23.1436630859375,0.005400657653808594,-0.008654415607452393,0.011283278465270996
1772789771563762700,23.1637626953125,0.00119781494140625,-0.01825547218322754,0.0020569562911987305
1772789771603961600,23.203961669921874,0.0053730010986328125,-0.003636181354522705,-0.01221156120300293
1772789771644160800,23.244160888671875,-0.0036230087280273438,-0.01784336566925049,0.011830687522888184
1772789771664260000,23.264260009765625,-0.013210296630859375,-0.022538959980010986,0.0022358298301696777
1772789771684359700,23.284359619140623,-0.013216972351074219,0.0015011429786682129,0.001722186803817749
1772789771724559000,23.32455908203125,-0.0042362213134765625,-0.017630159854888916,0.0016760528087615967
1772789771744658700,23.34465869140625,-0.018001556396484375,0.0013903379440307617,-0.0030892491340637207
1772789771764758300,23.36475830078125,0.0005464553833007812,0.0015153288841247559,-0.002753645181655884
1772789771784857900,23.38485791015625,0.005329132080078125,-0.012843489646911621,0.011852085590362549
1772789771804957400,23.40495751953125,0.019677162170410156,-0.022221028804779053,-0.0020996034145355225
1772789771825057300,23.425057373046876,-0.0042877197265625,-0.017360389232635498,-0.006695210933685303
1772789771845156900,23.445156982421874,-0.02283763885498047,-0.012772858142852783,0.021944254636764526
1772789771865256400,23.46525634765625,0.005252838134765625,-0.03129136562347412,0.0033975541591644287
1772789771885356000,23.48535595703125,-0.032408714294433594,-0.003298461437225342,-0.020736634731292725
1772789771905455600,23.50545556640625,-0.02285289764404297,-0.007784664630889893,0.008259087800979614
1772789771925555500,23.525555419921876,0.04361534118652344,-0.026843488216400146,-0.0012871623039245605
1772789771945655000,23.545655029296874,-0.0036945343017578125,-0.007700145244598389,-0.010881096124649048
1772789771965754600,23.565754638671876,-0.022879600524902344,-0.026566267013549805,0.003616541624069214
1772789772005953800,23.605953857421873,-0.008498191833496094,-0.0026660561561584473,0.00824594497680664
1772789772026053400,23.626053466796876,-0.03724861145019531,0.007059335708618164,-0.001485288143157959
1772789772046153200,23.6461533203125,0.005274772644042969,-0.02161717414855957,0.0030864477157592773
1772789772086352400,23.686352294921875,0.01007080078125,-0.0025658607482910156,-0.01246035099029541
1772789772126551600,23.726551513671875,-0.022864341735839844,-0.02591460943222046,0.006602078676223755
1772789772146651400,23.7466513671875,-0.032446861267089844,-0.021109342575073242,-0.017351865768432617
1772789772166750700,23.766750732421876,0.005280494689941406,-0.020939946174621582,-0.008038818836212158
1772789772186848800,23.786848876953126,0.005268096923828125,-0.015936672687530518,0.006329596042633057
1772789772206946800,23.80694677734375,0.014847755432128906,-0.020706653594970703,0.0015422403812408447
1772789772227044600,23.827044677734374,0.014833450317382812,-0.02052253484725952,0.006467670202255249
1772789772247142700,23.847142578125,0.010045051574707031,-0.0205078125,0.0015320181846618652
1772789772267240700,23.86724072265625,0.005251884460449219,-0.0013775229454040527,0.010698437690734863
1772789772287338800,23.8873388671875,-0.0037250518798828125,-0.011727631092071533,-0.0018045604228973389
1772789772327534600,23.92753466796875,-0.008531570434570312,-0.020994484424591064,0.017314910888671875
1772789772347632600,23.947632568359374,-0.008528709411621094,-0.006699621677398682,-0.01616370677947998
1772789772367730400,23.96773046875,-0.018114089965820312,-0.021002113819122314,0.002941429615020752
1772789772387828500,23.987828369140626,-0.003742218017578125,-0.0018798112869262695,0.022218316793441772
1772789772407926500,24.007926513671876,0.005852699279785156,-0.026063621044158936,-0.01605355739593506
1772789772428024600,24.028024658203126,0.005863189697265625,-0.021362364292144775,0.007689565420150757
1772789772448122400,24.048122314453124,-0.013288497924804688,-0.007770359516143799,-0.0019243955612182617
1772789772468220400,24.068220458984374,0.0010957717895507812,-0.012617886066436768,-0.015960663557052612
1772789772488318500,24.088318359375,0.0010776519775390625,-0.02207249402999878,-0.0060405433177948
1772789772528514300,24.128514404296876,0.010677337646484375,-0.026913881301879883,0.0030611157417297363
1772789772568710400,24.16871044921875,0.019661903381347656,-0.01241844892501831,-0.011605113744735718
1772789772608906200,24.20890625,-0.0037145614624023438,-0.0025714635848999023,-0.011444807052612305
1772789772629004300,24.22900439453125,0.0010585784912109375,0.0023826956748962402,-0.0063668787479400635
1772789772649102300,24.249102294921876,-0.0037336349487304688,-0.01188802719116211,-0.0017485320568084717
1772789772689299700,24.2892998046875,0.010014533996582031,-0.015665769577026367,-0.0022988319396972656
1772789772709399000,24.30939892578125,0.001018524169921875,-0.010670006275177002,-0.007072120904922485
1772789772729498400,24.329498291015625,-0.013365745544433594,-0.029637157917022705,-0.002283632755279541
1772789772749597700,24.34959765625,-0.013361930847167969,-0.0057618021965026855,-0.016635507345199585
1772789772769697000,24.369697021484374,0.009993553161621094,0.008052349090576172,-0.016696572303771973
1772789772809895700,24.409895751953126,0.0010013580322265625,-0.01967799663543701,0.0067588090896606445
1772789772829995000,24.4299951171875,0.005797386169433594,-0.019665241241455078,-0.012583106756210327
1772789772870193700,24.470193603515625,0.00579071044921875,-0.014685630798339844,0.0016151070594787598
1772789772910392300,24.510392333984374,0.0009937286376953125,-0.033653855323791504,-0.008134037256240845
1772789772930491600,24.53049169921875,0.014760017395019531,-0.03360450267791748,-0.007983237504959106
1772789772950591000,24.550591064453126,0.009973526000976562,-0.014381825923919678,-0.013070940971374512
1772789772970690300,24.570690185546876,0.0009975433349609375,-0.0047182440757751465,-0.0038442611694335938
1772789772990789600,24.59078955078125,0.0009984970092773438,-0.01913076639175415,0.015338480472564697
1772789773010889000,24.610888916015625,-0.0037994384765625,-0.014189362525939941,0.005706787109375
1772789773030988300,24.63098828125,-0.00858306884765625,-0.00946807861328125,-0.008768647909164429
1772789773051087600,24.651087646484374,0.001010894775390625,-0.00953376293182373,0.01014605164527893
1772789773091286300,24.691286376953126,0.0009889602661132812,-0.005004584789276123,-0.013768583536148071
1772789773131485000,24.73148486328125,0.0009927749633789062,-0.028327465057373047,-0.009141236543655396
1772789773151584300,24.751584228515625,0.0009860992431640625,-0.02351313829421997,-0.013178408145904541
1772789773191782000,24.791781982421874,0.024354934692382812,-0.0097578763961792,0.0055741965770721436
1772789773211880700,24.811880615234376,0.010576248168945312,-0.00005370378494262695,0.0007302165031433105
1772789773231979500,24.8319794921875,0.005787849426269531,-0.0000889897346496582,0.0007293522357940674
1772789773252078300,24.852078369140624,-0.008569717407226562,-0.01944887638092041,0.005406111478805542
1772789773292275700,24.892275634765625,0.005802154541015625,-0.01446831226348877,-0.014111638069152832
1772789773312374500,24.91237451171875,0.015384674072265625,-0.0049111247062683105,-0.009318113327026367
1772789773332473000,24.93247314453125,-0.0037870407104492188,-0.009610652923583984,0.00515139102935791
1772789773372670500,24.97267041015625,-0.0037689208984375,-0.00014823675155639648,-0.000014841556549072266
1772789773392769300,24.992769287109375,0.020130157470703125,-0.052215754985809326,0.000623553991317749
1772789773412868000,25.0128681640625,-0.018157005310058594,-0.014257490634918213,-0.01438438892364502
1772789773432966700,25.032966552734376,-0.022375106811523438,0.0050514936447143555,-0.004249274730682373
1772789773453065500,25.0530654296875,0.053096771240234375,-0.02387106418609619,-0.013931602239608765
1772789773473164300,25.073164306640624,-0.018197059631347656,-0.023479223251342773,-0.013785690069198608
1772789773493262800,25.093262939453126,-0.018179893493652344,-0.032722294330596924,-0.010220170021057129
1772789773513361700,25.113361572265624,0.029135704040527344,-0.02799701690673828,-0.010277420282363892
1772789773533460500,25.13346044921875,0.019545555114746094,-0.003907978534698486,0.004120975732803345
1772789773573657900,25.173657958984375,0.00038433074951171875,0.0009110569953918457,-0.010403752326965332
1772789773593756700,25.193756591796873,-0.018182754516601562,0.0008672475814819336,-0.000660628080368042
1772789773613855200,25.213855224609375,0.009966850280761719,-0.018181920051574707,-0.010565608739852905
1772789773633954000,25.2339541015625,0.005184173583984375,-0.003897547721862793,-0.006437331438064575
1772789773654052900,25.254052978515624,-0.0043811798095703125,-0.017615318298339844,0.007284224033355713
1772789773694251300,25.294251220703124,0.014790534973144531,0.010410189628601074,0.0030571818351745605
1772789773714350800,25.314350830078126,-0.004384040832519531,-0.02772831916809082,-0.0017711818218231201
1772789773754549800,25.3545498046875,0.009961128234863281,0.0011299848556518555,-0.001097559928894043
1772789773774649300,25.3746494140625,-0.018179893493652344,-0.013303756713867188,-0.015513807535171509
1772789773794749000,25.3947490234375,-0.004405021667480469,0.0010162591934204102,-0.015445053577423096
1772789773814848500,25.4148486328125,0.0051822662353515625,0.0009149312973022461,-0.005829870700836182
1772789773855047400,25.45504736328125,0.009968757629394531,-0.013488054275512695,-0.015233635902404785
1772789773895246600,25.49524658203125,-0.013395309448242188,-0.003805816173553467,-0.00494384765625
1772789773915346200,25.51534619140625,-0.032558441162109375,0.005754232406616211,-0.004953444004058838
1772789773935445500,25.535445556640624,0.005761146545410156,0.0010824799537658691,-0.00489199161529541
1772789773955545000,25.555545166015627,-0.0229949951171875,-0.008364081382751465,-0.0096416175365448
1772789773975644700,25.575644775390625,-0.008631706237792969,-0.013160169124603271,-0.014075219631195068
1772789773995744300,25.595744140625,0.0009555816650390625,-0.004368185997009277,-0.003701508045196533
1772789774015843600,25.615843505859374,-0.013438224792480469,-0.008812487125396729,-0.013286292552947998
1772789774035943200,25.635943115234376,-0.0038433074951171875,-0.0137176513671875,-0.013488143682479858
1772789774056042800,25.656042724609375,0.0009450912475585938,-0.013559460639953613,0.010225892066955566
1772789774096241700,25.69624169921875,0.010501861572265625,-0.018175721168518066,-0.008426785469055176
1772789774116341200,25.71634130859375,0.01049041748046875,-0.027565479278564453,-0.013215869665145874
1772789774136440800,25.73644091796875,-0.022455215454101562,-0.00832134485244751,-0.003557354211807251
1772789774156540400,25.75654052734375,0.01049041748046875,-0.01317816972732544,0.0017029047012329102
1772789774176639000,25.776638916015624,0.0008974075317382812,-0.00824880599975586,-0.0029678642749786377
1772789774196737300,25.7967373046875,0.015263557434082031,-0.008267819881439209,-0.01228216290473938
1772789774216835600,25.816835693359376,0.015253067016601562,0.0013731122016906738,-0.01207345724105835
1772789774236934000,25.836933837890626,-0.008706092834472656,-0.031951844692230225,-0.02191677689552307
1772789774257032200,25.8570322265625,0.0008592605590820312,-0.02214193344116211,-0.012231677770614624
1772789774297228500,25.897228515625,0.009827613830566406,-0.02131277322769165,-0.02299058437347412
1772789774317326800,25.917326904296875,0.005024909973144531,-0.016308724880218506,-0.032565802335739136
1772789774337425200,25.937425048828125,-0.013540267944335938,-0.006853997707366943,-0.008371949195861816
1772789774357523200,25.957523193359375,0.014604568481445312,-0.021272480487823486,-0.013579845428466797
1772789774377621500,25.97762158203125,-0.01833629608154297,-0.002097606658935547,-0.008749455213546753
1772789774397719800,25.9977197265625,-0.02790069580078125,-0.011906147003173828,-0.028026491403579712
1772789774417817900,26.01781787109375,0.014613151550292969,-0.011914491653442383,-0.013441115617752075
1772789774437916200,26.037916259765623,0.00983428955078125,-0.012188076972961426,-0.018105357885360718
1772789774458014500,26.058014404296873,0.00504302978515625,0.0021874308586120605,-0.018090009689331055
1772789774478112800,26.07811279296875,0.009837150573730469,0.006965041160583496,-0.008617699146270752
1772789774498210800,26.0982109375,-0.0087432861328125,-0.0024967193603515625,0.0018842816352844238
1772789774518309000,26.11830908203125,-0.0039424896240234375,-0.01707911491394043,-0.022038429975509644
1772789774538407400,26.138407470703125,-0.013522148132324219,-0.021954715251922607,-0.017140895128250122
1772789774558505700,26.158505615234375,-0.0039386749267578125,-0.007546067237854004,0.006687551736831665
1772789774578603800,26.178603759765625,-0.003948211669921875,-0.008111536502838135,-0.012222528457641602
1772789774598702000,26.1987021484375,-0.01833057403564453,-0.012262403964996338,-0.0257548987865448
1772789774638898700,26.238898681640624,0.024173736572265625,-0.017391562461853027,-0.020982444286346436
1772789774658996700,26.258996826171874,0.005589485168457031,-0.02145695686340332,-0.015772879123687744
1772789774679095300,26.27909521484375,-0.008792877197265625,-0.021933138370513916,-0.006109058856964111
1772789774699193900,26.29919384765625,0.000774383544921875,-0.025939106941223145,-0.02035585045814514
1772789774719292400,26.31929248046875,-0.004017829895019531,-0.021882236003875732,-0.015311479568481445
1772789774759489800,26.35948974609375,0.010354995727539062,-0.012443900108337402,-0.005426555871963501
1772789774779588400,26.37958837890625,0.0055522918701171875,0.002143383026123047,-0.01501089334487915
1772789774799687000,26.39968701171875,0.000762939453125,-0.007408261299133301,-0.005551367998123169
1772789774819785500,26.419785400390627,-0.008817672729492188,-0.002706468105316162,-0.019803553819656372
1772789774839884000,26.439884033203125,-0.00402069091796875,-0.022003471851348877,-0.014972716569900513
1772789774880081400,26.480081298828125,-0.004006385803222656,-0.002980172634124756,-0.019960016012191772
1772789774900180000,26.500179931640623,-0.004000663757324219,0.001708388328552246,-0.01994013786315918
