time,seconds_elapsed,z,y,x
1772789091856200000,0.061199951171875,-1.0460662841796875,-0.208282470703125,0.1952362060546875
1772789091876232200,0.081232177734375,-1.077880859375,-0.191925048828125,0.188232421875
1772789091896265000,0.101264892578125,-1.09228515625,-0.197052001953125,0.1930084228515625
1772789091916298200,0.12129833984375,-1.0563812255859375,-0.2241363525390625,0.1914825439453125
1772789091936331000,0.1413310546875,-1.0149078369140625,-0.23980712890625,0.1744842529296875
1772789091956364000,0.161364013671875,-1.0527191162109375,-0.258056640625,0.10894775390625
1772789091976397000,0.18139697265625,-1.1018524169921875,-0.2850189208984375,0.1274566650390625
1772789091996430000,0.20143017578125,-1.1484375,-0.233154296875,0.085418701171875
1772789092016463000,0.221463134765625,-1.1400909423828125,-0.18304443359375,0.143524169921875
1772789092036496100,0.24149609375,-1.0902862548828125,-0.1874542236328125,0.170013427734375
1772789092056529200,0.261529052734375,-0.99285888671875,-0.12188720703125,0.187530517578125
1772789092076562200,0.281562255859375,-0.9513702392578125,-0.1224365234375,0.2489166259765625
1772789092096595000,0.301594970703125,-1.013458251953125,-0.1455078125,0.2581329345703125
1772789092116628200,0.321628173828125,-0.8182525634765625,-0.110443115234375,0.23516845703125
1772789092136661000,0.341660888671875,-0.7115478515625,-0.1301422119140625,0.2365570068359375
1772789092156694300,0.3616943359375,-0.697113037109375,-0.141754150390625,0.1858673095703125
1772789092176727000,0.38172705078125,-0.9644317626953125,-0.2031402587890625,0.06103515625
1772789092196760000,0.401760009765625,-0.8390350341796875,-0.1156768798828125,0.1135711669921875
1772789092216792800,0.421792724609375,-0.98004150390625,-0.1256866455078125,0.1242828369140625
1772789092236825900,0.441825927734375,-0.920166015625,-0.0153656005859375,0.17462158203125
1772789092256859000,0.46185888671875,-0.9439544677734375,-0.0373077392578125,0.1594390869140625
1772789092276892000,0.481891845703125,-0.843017578125,-0.0264434814453125,0.0767059326171875
1772789092296925000,0.501925048828125,-0.8548431396484375,-0.0189971923828125,0.0973358154296875
1772789092316958000,0.5219580078125,-0.90130615234375,0.038726806640625,0.1217041015625
1772789092336990000,0.541989990234375,-0.9568634033203125,0.0367279052734375,0.179046630859375
1772789092357022700,0.562022705078125,-0.8913421630859375,0.0614776611328125,0.1474609375
1772789092377056000,0.582055908203125,-0.849456787109375,0.0834197998046875,0.1005096435546875
1772789092397088800,0.6020888671875,-0.9021148681640625,0.1307220458984375,0.0761871337890625
1772789092417121800,0.622121826171875,-1.1350250244140625,0.117034912109375,0.108978271484375
1772789092437154800,0.64215478515625,-0.834869384765625,0.1168212890625,0.1508331298828125
1772789092457187800,0.662187744140625,-0.9854278564453125,0.115081787109375,0.1196136474609375
1772789092477220900,0.682220947265625,-0.861602783203125,0.1363677978515625,0.1386566162109375
1772789092497254000,0.70225390625,-0.68023681640625,0.182037353515625,0.1123504638671875
1772789092517286700,0.72228662109375,-0.8391876220703125,0.1865997314453125,-0.0800323486328125
1772789092537320000,0.74231982421875,-2.509796142578125,-0.3291168212890625,-0.7765960693359375
1772789092557352700,0.762352783203125,-1.0176239013671875,-0.109283447265625,-0.4222869873046875
1772789092577386000,0.782385986328125,-0.812103271484375,0.0650787353515625,-0.05804443359375
1772789092597418800,0.802418701171875,-1.0071563720703125,0.1220703125,0.0943145751953125
1772789092617452000,0.8224521484375,-1.0440216064453125,0.1936798095703125,0.065216064453125
1772789092637484800,0.84248486328125,-1.0788421630859375,0.147369384765625,0.0487823486328125
1772789092657517800,0.862517822265625,-1.01361083984375,0.1219940185546875,0.000274658203125
1772789092677550800,0.88255078125,-0.99847412109375,0.1102447509765625,-0.0068817138671875
1772789092697583900,0.902583984375,-0.97698974609375,0.1327667236328125,0.035675048828125
1772789092717617000,0.922616943359375,-1.0127716064453125,0.1729278564453125,0.058746337890625
1772789092737650000,0.94264990234375,-1.0089263916015625,0.18365478515625,0.08349609375
1772789092757682700,0.9626826171875,-0.976654052734375,0.1388397216796875,0.034423828125
1772789092777716000,0.982716064453125,-1.01934814453125,0.07891845703125,-0.02874755859375
1772789092797748700,1.002748779296875,-1.04278564453125,0.0321197509765625,-0.03521728515625
1772789092817780700,1.02278076171875,-1.01275634765625,0.05059814453125,0.004638671875
1772789092837813800,1.042813720703125,-0.9635467529296875,0.0566558837890625,0.040374755859375
1772789092857846800,1.0628466796875,-0.948486328125,0.050811767578125,0.0478973388671875
1772789092877879800,1.0828798828125,-0.9838714599609375,0.0396881103515625,0.023040771484375
1772789092897912800,1.102912841796875,-1.0240325927734375,0.038909912109375,0.03509521484375
1772789092917945900,1.12294580078125,-1.011444091796875,0.039947509765625,0.078704833984375
1772789092937978600,1.142978515625,-0.9805145263671875,0.03070068359375,0.103546142578125
1772789092958012000,1.163011962890625,-0.97589111328125,0.0207061767578125,0.1215362548828125
1772789092978044700,1.183044677734375,-0.9482574462890625,-0.0163726806640625,0.1257171630859375
1772789092998078000,1.203077880859375,-0.9745635986328125,-0.04278564453125,0.0686798095703125
1772789093018110700,1.22311083984375,-1.003753662109375,-0.0282135009765625,0.050262451171875
1772789093038144000,1.24314404296875,-1.017852783203125,0.000518798828125,0.0886383056640625
1772789093058176800,1.2631767578125,-1.0448455810546875,0.0172119140625,0.097686767578125
1772789093078209800,1.283209716796875,-1.0477752685546875,0.0099334716796875,0.0468902587890625
1772789093098242800,1.303242919921875,-1.0667877197265625,-0.0074462890625,-0.0001983642578125
1772789093118275800,1.32327587890625,-1.0601043701171875,0.0010833740234375,-0.01507568359375
1772789093138308900,1.343308837890625,-1.0574951171875,0.030731201171875,0.00347900390625
1772789093158342000,1.363341796875,-1.0376739501953125,0.04290771484375,0.0028228759765625
1772789093178374700,1.383374755859375,-1.055999755859375,0.0329437255859375,-0.0142974853515625
1772789093198409000,1.403408935546875,-1.061279296875,-0.007904052734375,-0.0210418701171875
1772789093218441700,1.423441650390625,-1.0789794921875,-0.042816162109375,-0.0325164794921875
1772789093238474800,1.443474853515625,-1.0645599365234375,-0.0511016845703125,-0.02630615234375
1772789093258507800,1.4635078125,-1.044891357421875,-0.037933349609375,-0.0184783935546875
1772789093278539800,1.483539794921875,-1.01849365234375,-0.021087646484375,0.011871337890625
1772789093298572800,1.50357275390625,-1.0021820068359375,-0.0069427490234375,0.0283660888671875
1772789093318605800,1.523605712890625,-1.0042724609375,-0.0131378173828125,0.0315399169921875
1772789093338638800,1.543638916015625,-1.0021820068359375,-0.026214599609375,0.0538330078125
1772789093358672000,1.563671875,-0.97930908203125,-0.0316009521484375,0.0314788818359375
1772789093378705000,1.583704833984375,-0.9898223876953125,-0.0114898681640625,0.00079345703125
1772789093398738000,1.603738037109375,-1.0129852294921875,0.01226806640625,-0.0071258544921875
1772789093418770700,1.623770751953125,-1.028472900390625,0.01177978515625,-0.0178680419921875
1772789093438804000,1.643803955078125,-1.0300750732421875,0.01617431640625,-0.0303955078125
1772789093458836700,1.663836669921875,-1.0146636962890625,0.01910400390625,-0.0649261474609375
1772789093478870000,1.6838701171875,-1.01556396484375,0.0123138427734375,-0.0882110595703125
1772789093498902800,1.70390283203125,-1.016754150390625,0.0129241943359375,-0.0755157470703125
1772789093518935800,1.723935791015625,-1.0253448486328125,0.010498046875,-0.0559844970703125
1772789093538968800,1.74396875,-1.01348876953125,0.0019683837890625,-0.043060302734375
1772789093559001900,1.764001953125,-1.0024871826171875,-0.0262451171875,-0.028656005859375
1772789093579035000,1.784034912109375,-0.9826202392578125,-0.0262603759765625,0.00201416015625
1772789093599068000,1.80406787109375,-0.9380035400390625,0.0213775634765625,0.032135009765625
1772789093619101000,1.824100830078125,-0.895263671875,0.0677337646484375,0.044281005859375
1772789093639134000,1.844134033203125,-0.8963623046875,0.07635498046875,0.064697265625
1772789093659166700,1.864166748046875,-0.896270751953125,0.0355072021484375,0.0647735595703125
1772789093679200000,1.884199951171875,-0.9350738525390625,-0.0103912353515625,0.0180816650390625
1772789093699232800,1.904232666015625,-0.917144775390625,-0.0316009521484375,-0.0178375244140625
1772789093719266000,1.92426611328125,-0.90521240234375,-0.037994384765625,-0.028961181640625
1772789093739298800,1.944298828125,-0.9191436767578125,-0.04248046875,-0.036590576171875
1772789093759331800,1.964331787109375,-0.928863525390625,-0.0361328125,-0.0645294189453125
1772789093779363800,1.98436376953125,-0.947967529296875,-0.0165863037109375,-0.082611083984375
1772789093799396900,2.00439697265625,-0.9649810791015625,-0.0037078857421875,-0.084747314453125
1772789093819430000,2.024429931640625,-0.9635467529296875,-0.0077056884765625,-0.094207763671875
1772789093839462700,2.044462646484375,-0.9718170166015625,-0.012176513671875,-0.0951690673828125
1772789093859496000,2.064495849609375,-0.9742889404296875,-0.01361083984375,-0.08538818359375
1772789093879528700,2.08452880859375,-0.9642486572265625,-0.02288818359375,-0.088592529296875
1772789093899562000,2.10456201171875,-0.9785308837890625,-0.031524658203125,-0.0944671630859375
1772789093919594800,2.1245947265625,-1.0025482177734375,-0.027252197265625,-0.0736236572265625
1772789093939627800,2.144627685546875,-0.9874420166015625,-0.0231170654296875,-0.052947998046875
1772789093959660800,2.164660888671875,-0.955078125,-0.036163330078125,-0.038970947265625
1772789093979693800,2.18469384765625,-0.9416961669921875,-0.069580078125,-0.039520263671875
1772789093999726800,2.204726806640625,-0.9823455810546875,-0.0859222412109375,-0.0624847412109375
1772789094019759900,2.224759765625,-0.99224853515625,-0.068145751953125,-0.060394287109375
1772789094039793000,2.24479296875,-0.9946746826171875,-0.0380401611328125,-0.046051025390625
1772789094059826000,2.264825927734375,-1.0212554931640625,-0.0291290283203125,-0.056365966796875
1772789094079858700,2.284858642578125,-1.03094482421875,-0.041351318359375,-0.07183837890625
1772789094099892000,2.30489208984375,-1.016204833984375,-0.0444793701171875,-0.069915771484375
1772789094119924700,2.3249248046875,-1.020538330078125,-0.0286407470703125,-0.0616455078125
1772789094139958000,2.3449580078125,-1.0216827392578125,-0.00775146484375,-0.059967041015625
1772789094159990800,2.36499072265625,-1.025543212890625,0.00543212890625,-0.0556793212890625
1772789094180023800,2.38502392578125,-1.0129241943359375,0.0187530517578125,-0.0512542724609375
1772789094200056800,2.405056884765625,-1.0033416748046875,0.02783203125,-0.0341796875
1772789094220088800,2.4250888671875,-0.987762451171875,0.014892578125,-0.0041046142578125
1772789094240121900,2.445121826171875,-0.991302490234375,-0.0038909912109375,-0.0078277587890625
1772789094260154600,2.465154541015625,-1.0009918212890625,-0.0289764404296875,-0.012908935546875
1772789094280188000,2.48518798828125,-1.003997802734375,-0.053741455078125,-0.0030059814453125
1772789094300220700,2.505220703125,-1.0020294189453125,-0.05902099609375,-0.001434326171875
1772789094320254000,2.52525390625,-1.0123443603515625,-0.0474700927734375,-0.0057220458984375
1772789094340286700,2.54528662109375,-1.010833740234375,-0.0406646728515625,-0.00830078125
1772789094360319700,2.56531982421875,-1.004302978515625,-0.0404205322265625,-0.015167236328125
1772789094380352800,2.585352783203125,-0.9923248291015625,-0.032257080078125,-0.0184783935546875
1772789094400385800,2.6053857421875,-1.003021240234375,-0.0269927978515625,-0.02294921875
1772789094420418800,2.625418701171875,-1.0056610107421875,-0.0354461669921875,-0.02081298828125
1772789094440451800,2.645451904296875,-1.0096282958984375,-0.046722412109375,-0.0168609619140625
1772789094460484900,2.66548486328125,-1.0155792236328125,-0.057861328125,-0.0210723876953125
1772789094480518000,2.685517822265625,-1.036651611328125,-0.0640869140625,-0.0326080322265625
1772789094500550700,2.705550537109375,-1.033843994140625,-0.06573486328125,-0.0450286865234375
1772789094520583700,2.725583740234375,-1.0201568603515625,-0.073333740234375,-0.037841796875
1772789094540616700,2.74561669921875,-1.0066680908203125,-0.080535888671875,-0.03515625
1772789094560649700,2.765649658203125,-1.0258636474609375,-0.0751953125,-0.0446624755859375
1772789094580682800,2.785682861328125,-1.0366668701171875,-0.0506591796875,-0.0424346923828125
1772789094600715500,2.805715576171875,-1.0275421142578125,-0.0183258056640625,-0.029144287109375
1772789094620748800,2.825748779296875,-1.0055389404296875,0.0017547607421875,-0.026336669921875
1772789094640781600,2.845781494140625,-1.0030517578125,-0.002471923828125,-0.031005859375
1772789094660814800,2.86581494140625,-1.007476806640625,-0.023895263671875,-0.02984619140625
1772789094680847600,2.88584765625,-1.019561767578125,-0.026580810546875,-0.0371551513671875
1772789094700880600,2.905880615234375,-1.006561279296875,-0.01959228515625,-0.043853759765625
1772789094720913700,2.92591357421875,-0.99432373046875,-0.02130126953125,-0.02978515625
1772789094740946700,2.94594677734375,-0.9726715087890625,-0.0254974365234375,-0.0408172607421875
1772789094760978700,2.965978759765625,-0.99169921875,-0.0267181396484375,-0.0282440185546875
1772789094781011700,2.98601171875,-1.0023345947265625,-0.032196044921875,-0.007080078125
1772789094801044700,3.006044677734375,-1.0058441162109375,-0.034637451171875,0.008575439453125
1772789094821077800,3.026077880859375,-0.9900970458984375,-0.0429534912109375,0.0074615478515625
1772789094841110800,3.04611083984375,-1.0025482177734375,-0.0511322021484375,0.017913818359375
1772789094861143800,3.066143798828125,-1.006439208984375,-0.0488739013671875,0.0224456787109375
1772789094881176800,3.0861767578125,-0.991607666015625,-0.048858642578125,0.0496673583984375
1772789094901209900,3.1062099609375,-0.972930908203125,-0.0382080078125,0.0444488525390625
1772789094921242600,3.12624267578125,-0.9705810546875,-0.0296783447265625,0.0317840576171875
1772789094941276000,3.14627587890625,-1.00079345703125,-0.0244598388671875,0.0313568115234375
1772789094961308700,3.16630859375,-1.01373291015625,-0.02069091796875,0.0216522216796875
1772789094981342000,3.186342041015625,-1.016387939453125,-0.0183258056640625,0.0065460205078125
1772789095001374700,3.206374755859375,-0.997283935546875,-0.0189056396484375,-0.01922607421875
1772789095021407700,3.22640771484375,-0.99951171875,-0.0227203369140625,-0.0159149169921875
1772789095041440800,3.246440673828125,-0.9996185302734375,-0.017913818359375,0.0145416259765625
1772789095061473800,3.266473876953125,-1.004852294921875,-0.023681640625,0.045135498046875
1772789095081506800,3.2865068359375,-0.9890899658203125,-0.05743408203125,0.0584716796875
1772789095101539800,3.306539794921875,-0.99176025390625,-0.0871124267578125,0.05096435546875
1772789095121572600,3.326572509765625,-0.989105224609375,-0.0897064208984375,0.0477752685546875
1772789095141606000,3.34660595703125,-0.985107421875,-0.084228515625,0.0776214599609375
1772789095161638700,3.366638671875,-0.9810333251953125,-0.07647705078125,0.106475830078125
1772789095181672000,3.386671875,-0.975341796875,-0.06561279296875,0.10443115234375
1772789095201704000,3.406703857421875,-0.9764404296875,-0.0572052001953125,0.1008758544921875
1772789095221737200,3.4267373046875,-0.98492431640625,-0.046600341796875,0.0955047607421875
1772789095241770000,3.44677001953125,-0.990478515625,-0.0435791015625,0.0852508544921875
1772789095261802200,3.46680224609375,-0.9928436279296875,-0.04388427734375,0.0749359130859375
1772789095281835000,3.4868349609375,-1.001312255859375,-0.0424346923828125,0.0579986572265625
1772789095301868300,3.506868408203125,-1.0094451904296875,-0.028167724609375,0.0273284912109375
1772789095321901000,3.526901123046875,-1.01361083984375,-0.02227783203125,0.019134521484375
1772789095341934000,3.54693408203125,-1.0094757080078125,-0.0323638916015625,0.036834716796875
1772789095361967000,3.566967041015625,-1.0062103271484375,-0.0409393310546875,0.0392608642578125
1772789095382000000,3.587000244140625,-0.9967498779296875,-0.0484161376953125,0.039031982421875
1772789095402033200,3.607033203125,-0.996612548828125,-0.0375213623046875,0.0272369384765625
1772789095422066200,3.627066162109375,-0.989715576171875,-0.0218963623046875,0.031219482421875
1772789095442099200,3.64709912109375,-0.9771575927734375,-0.0199432373046875,0.05938720703125
1772789095462132200,3.66713232421875,-0.974578857421875,-0.032501220703125,0.061279296875
1772789095482165000,3.6871650390625,-0.97991943359375,-0.0395050048828125,0.0390777587890625
1772789095502198300,3.7071982421875,-1.0148468017578125,-0.03912353515625,0.0406646728515625
1772789095522231000,3.72723095703125,-1.0223541259765625,-0.032257080078125,0.042816162109375
1772789095542264300,3.747264404296875,-1.0155792236328125,-0.0322113037109375,0.035186767578125
1772789095562297000,3.767297119140625,-1.011749267578125,-0.0302276611328125,0.030792236328125
1772789095582330000,3.787330078125,-1.0164031982421875,-0.02911376953125,0.0398406982421875
1772789095602363100,3.807363037109375,-1.0196075439453125,-0.0236358642578125,0.04864501953125
1772789095622396200,3.827396240234375,-1.0084991455078125,-0.0176544189453125,0.037200927734375
1772789095642429200,3.84742919921875,-1.02301025390625,-0.0289764404296875,0.0552215576171875
1772789095662462200,3.867462158203125,-1.002044677734375,-0.038360595703125,0.0488739013671875
1772789095682495200,3.8874951171875,-0.9946136474609375,-0.03753662109375,0.0440216064453125
1772789095702528300,3.9075283203125,-0.992919921875,-0.0284271240234375,0.063201904296875
1772789095722561000,3.92756103515625,-0.9923095703125,-0.017181396484375,0.062744140625
1772789095742594300,3.94759423828125,-0.99169921875,-0.02154541015625,0.04876708984375
1772789095762627000,3.967626953125,-0.986602783203125,-0.035980224609375,0.0582733154296875
1772789095782660000,3.98766015625,-0.9925689697265625,-0.0359039306640625,0.061798095703125
1772789095802689000,4.00768896484375,-1.0021209716796875,-0.0313720703125,0.0572967529296875
1772789095822722300,4.027722412109375,-1.005584716796875,-0.021270751953125,0.0555267333984375
1772789095842755000,4.047755126953125,-1.0086669921875,-0.0227203369140625,0.0462799072265625
1772789095862788000,4.0677880859375,-1.0082855224609375,-0.0384979248046875,0.03277587890625
1772789095882821000,4.087821044921875,-1.0001373291015625,-0.0493621826171875,0.01934814453125
1772789095902854100,4.107854248046875,-1.0085906982421875,-0.037811279296875,0.030487060546875
1772789095922887200,4.12788720703125,-1.00518798828125,-0.02386474609375,0.0422210693359375
1772789095942920200,4.147920166015625,-1.0004425048828125,-0.0244140625,0.044952392578125
1772789095962953200,4.167953125,-1.00177001953125,-0.035247802734375,0.04876708984375
1772789095982986200,4.187986328125,-1.0016326904296875,-0.0367431640625,0.053070068359375
1772789096003019000,4.20801904296875,-0.9931793212890625,-0.0243072509765625,0.0555572509765625
1772789096023052300,4.22805224609375,-0.991973876953125,-0.0155029296875,0.0648193359375
1772789096043085000,4.2480849609375,-0.9958343505859375,-0.0179290771484375,0.0732421875
1772789096063118300,4.268118408203125,-0.9986114501953125,-0.02435302734375,0.061279296875
1772789096083151000,4.288151123046875,-1.0037384033203125,-0.030242919921875,0.0507049560546875
1772789096103184100,4.30818408203125,-1.005157470703125,-0.0324249267578125,0.05682373046875
1772789096123217200,4.328217041015625,-1.017913818359375,-0.03173828125,0.058624267578125
1772789096143250200,4.348250244140625,-1.0154266357421875,-0.0379638671875,0.052978515625
1772789096163283200,4.368283203125,-1.0082244873046875,-0.0426788330078125,0.0511627197265625
1772789096183316200,4.388316162109375,-1.00830078125,-0.042144775390625,0.05072021484375
1772789096203349800,4.408349853515625,-1.0107421875,-0.040008544921875,0.058685302734375
1772789096223384800,4.428384765625,-1.0044097900390625,-0.038543701171875,0.0602874755859375
1772789096243417900,4.44841796875,-1.008453369140625,-0.0395660400390625,0.0590667724609375
1772789096263451000,4.468450927734375,-1.0036773681640625,-0.036651611328125,0.0641937255859375
1772789096283483600,4.488483642578125,-0.9938812255859375,-0.0311126708984375,0.0605926513671875
1772789096303517000,4.508516845703125,-1.0009002685546875,-0.0319976806640625,0.0587158203125
1772789096323549700,4.5285498046875,-1.0072784423828125,-0.0413055419921875,0.0623321533203125
1772789096343583000,4.5485830078125,-1.0079193115234375,-0.0475921630859375,0.057952880859375
1772789096363615700,4.56861572265625,-0.9991455078125,-0.0538330078125,0.057220458984375
1772789096383648000,4.58864794921875,-0.9868316650390625,-0.051513671875,0.048248291015625
1772789096403680800,4.6086806640625,-0.9760894775390625,-0.0429229736328125,0.0478515625
1772789096423714000,4.628714111328125,-0.9941558837890625,-0.0310516357421875,0.0573272705078125
1772789096443746800,4.648746826171875,-1.0038299560546875,-0.028350830078125,0.0596923828125
1772789096463779800,4.66877978515625,-0.994598388671875,-0.037017822265625,0.051483154296875
1772789096483812900,4.688812744140625,-0.9913177490234375,-0.0468292236328125,0.0399627685546875
1772789096503846000,4.708845947265625,-0.994049072265625,-0.046630859375,0.047607421875
1772789096523879000,4.72887890625,-0.99212646484375,-0.035614013671875,0.0502777099609375
1772789096543912000,4.748911865234375,-0.9900360107421875,-0.0338897705078125,0.0443878173828125
1772789096563944700,4.76894482421875,-1.0042877197265625,-0.041595458984375,0.0442352294921875
1772789096583978000,4.78897802734375,-1.00341796875,-0.0496063232421875,0.0455169677734375
1772789096604010800,4.8090107421875,-1.002471923828125,-0.0435638427734375,0.0532379150390625
1772789096624044000,4.8290439453125,-1.0056915283203125,-0.0328826904296875,0.0679168701171875
1772789096644076800,4.849076904296875,-1.0086822509765625,-0.0371551513671875,0.06585693359375
1772789096664109800,4.86910986328125,-1.0016021728515625,-0.05059814453125,0.057464599609375
1772789096684142800,4.889142822265625,-0.9911651611328125,-0.05914306640625,0.0524139404296875
1772789096704175900,4.90917578125,-0.99835205078125,-0.0535888671875,0.064422607421875
1772789096724209000,4.929208984375,-1.00091552734375,-0.042938232421875,0.068450927734375
1772789096744241700,4.94924169921875,-0.9979400634765625,-0.041259765625,0.067474365234375
1772789096764275000,4.96927490234375,-0.9868621826171875,-0.0428466796875,0.0675811767578125
1772789096784307700,4.9893076171875,-0.98675537109375,-0.04632568359375,0.0608367919921875
1772789096804340700,5.0093408203125,-0.99163818359375,-0.048065185546875,0.059661865234375
1772789096824373800,5.029373779296875,-0.99652099609375,-0.04278564453125,0.053466796875
1772789096844406800,5.04940673828125,-0.9990081787109375,-0.03759765625,0.05487060546875
1772789096864439800,5.069439697265625,-0.9953155517578125,-0.0346527099609375,0.0527191162109375
1772789096884472800,5.089472900390625,-0.989715576171875,-0.0426177978515625,0.04669189453125
1772789096904505900,5.109505859375,-0.99249267578125,-0.0506744384765625,0.042327880859375
1772789096924539000,5.129538818359375,-1.0084381103515625,-0.0542449951171875,0.0409088134765625
1772789096944571600,5.149571533203125,-1.00958251953125,-0.0475616455078125,0.0455322265625
1772789096964605000,5.16960498046875,-0.992431640625,-0.046142578125,0.0485687255859375
1772789096984637700,5.1896376953125,-0.9911346435546875,-0.048828125,0.0482025146484375
1772789097004671000,5.2096708984375,-0.9919281005859375,-0.04937744140625,0.052490234375
1772789097024703700,5.229703857421875,-0.994293212890625,-0.048736572265625,0.055816650390625
1772789097044736000,5.249736083984375,-0.99493408203125,-0.049835205078125,0.058319091796875
1772789097064768800,5.269768798828125,-0.99786376953125,-0.0580291748046875,0.0546875
1772789097084801800,5.2898017578125,-0.9891815185546875,-0.057464599609375,0.044281005859375
1772789097104834800,5.309834716796875,-0.9815826416015625,-0.0519866943359375,0.03765869140625
1772789097124867800,5.329867919921875,-0.993499755859375,-0.0476531982421875,0.0402374267578125
1772789097144900900,5.34990087890625,-0.9975433349609375,-0.043121337890625,0.03900146484375
1772789097164934000,5.369933837890625,-1.0041656494140625,-0.0383758544921875,0.0373992919921875
1772789097184967000,5.389966796875,-1.0059356689453125,-0.032867431640625,0.039947509765625
1772789097204999700,5.409999755859375,-1.0050811767578125,-0.035247802734375,0.037261962890625
1772789097225032700,5.43003271484375,-0.9952392578125,-0.042755126953125,0.0282135009765625
1772789097245065700,5.450065673828125,-0.988525390625,-0.050994873046875,0.0251922607421875
1772789097265098800,5.4700986328125,-0.99407958984375,-0.0570526123046875,0.032562255859375
1772789097285131800,5.4901318359375,-1.0111236572265625,-0.0555572509765625,0.0343780517578125
1772789097305164800,5.510164794921875,-1.0194091796875,-0.0540924072265625,0.039520263671875
1772789097325197800,5.53019775390625,-1.010009765625,-0.0495758056640625,0.0428924560546875
1772789097345230800,5.55023095703125,-1.0134735107421875,-0.0381927490234375,0.0478515625
1772789097365263600,5.570263671875,-1.0087127685546875,-0.034515380859375,0.049346923828125
1772789097385297000,5.590296875,-1.017059326171875,-0.03912353515625,0.043243408203125
1772789097405329700,5.61032958984375,-1.01470947265625,-0.044403076171875,0.0438079833984375
1772789097425363000,5.630363037109375,-1.011016845703125,-0.04498291015625,0.0404052734375
1772789097445395700,5.650395751953125,-1.006805419921875,-0.0387725830078125,0.0406494140625
1772789097465428500,5.670428466796875,-0.9976043701171875,-0.0362701416015625,0.0384674072265625
1772789097485461800,5.690461669921875,-0.9926605224609375,-0.0399932861328125,0.042205810546875
1772789097505494500,5.71049462890625,-0.9871978759765625,-0.0446624755859375,0.0429534912109375
1772789097525527800,5.73052783203125,-0.977813720703125,-0.045806884765625,0.0418701171875
1772789097545560600,5.750560546875,-0.9676513671875,-0.048828125,0.0347442626953125
1772789097565593600,5.770593505859375,-0.9761810302734375,-0.0552215576171875,0.0424346923828125
1772789097585626600,5.790626708984375,-0.9900360107421875,-0.0512847900390625,0.0520477294921875
1772789097605659600,5.81065966796875,-0.997039794921875,-0.043060302734375,0.0489654541015625
1772789097625692700,5.830692626953125,-0.9878692626953125,-0.0364227294921875,0.0513763427734375
1772789097645725700,5.8507255859375,-0.9979400634765625,-0.0315399169921875,0.0535736083984375
1772789097665758700,5.8707587890625,-1.0154571533203125,-0.0294952392578125,0.0539398193359375
1772789097685791700,5.890791748046875,-1.0167236328125,-0.034576416015625,0.0509796142578125
1772789097705823700,5.91082373046875,-1.009735107421875,-0.0382843017578125,0.0448760986328125
1772789097725856800,5.930856689453125,-1.0105133056640625,-0.04498291015625,0.0469818115234375
1772789097745889500,5.9508896484375,-1.0191497802734375,-0.0481414794921875,0.0438385009765625
1772789097765922800,5.9709228515625,-1.0123443603515625,-0.0468902587890625,0.0441436767578125
1772789097785955600,5.99095556640625,-1.008392333984375,-0.0372314453125,0.0452728271484375
1772789097805988900,6.01098876953125,-1.00372314453125,-0.033111572265625,0.0557403564453125
1772789097826021600,6.031021728515625,-1.0020294189453125,-0.0346221923828125,0.052398681640625
1772789097846055000,6.051054931640625,-1.0034942626953125,-0.0324249267578125,0.054168701171875
1772789097866087700,6.071087646484375,-0.9998626708984375,-0.033721923828125,0.060302734375
1772789097886120700,6.09112060546875,-0.9795684814453125,-0.040252685546875,0.0411224365234375
1772789097906153700,6.11115380859375,-0.981475830078125,-0.0438995361328125,0.032440185546875
1772789097926186800,6.131186767578125,-0.989654541015625,-0.0400390625,0.025634765625
1772789097946219800,6.1512197265625,-0.9904327392578125,-0.03497314453125,0.018035888671875
1772789097966252800,6.171252685546875,-0.988494873046875,-0.0337677001953125,0.021087646484375
1772789097986285600,6.19128564453125,-1.008392333984375,-0.0310821533203125,0.02911376953125
1772789098006318800,6.21131884765625,-1.0075836181640625,-0.0320281982421875,0.031585693359375
1772789098026351600,6.2313515625,-1.0052337646484375,-0.0329132080078125,0.0386962890625
1772789098046385000,6.251385009765625,-0.99810791015625,-0.034637451171875,0.03802490234375
1772789098066417700,6.271417724609375,-0.998046875,-0.041168212890625,0.0311431884765625
1772789098086450700,6.29145068359375,-0.992828369140625,-0.0464324951171875,0.0330963134765625
1772789098106483700,6.311483642578125,-1.0041656494140625,-0.0444183349609375,0.038909912109375
1772789098126516700,6.331516845703125,-1.007598876953125,-0.0415496826171875,0.045318603515625
1772789098146549800,6.3515498046875,-1.0045928955078125,-0.0408172607421875,0.0412750244140625
1772789098166582800,6.371582763671875,-1.010772705078125,-0.0453033447265625,0.0384521484375
1772789098186615800,6.39161572265625,-1.0189361572265625,-0.0506591796875,0.034698486328125
1772789098206648000,6.41164794921875,-1.011871337890625,-0.0526275634765625,0.0315399169921875
1772789098226681300,6.431681396484375,-1.004730224609375,-0.0471649169921875,0.0303497314453125
1772789098246714000,6.451714111328125,-1.0049285888671875,-0.0414581298828125,0.038848876953125
1772789098266747100,6.4717470703125,-1.0083160400390625,-0.038482666015625,0.0410003662109375
1772789098286780200,6.4917802734375,-0.9989471435546875,-0.039031982421875,0.037933349609375
1772789098306813200,6.511813232421875,-0.9941558837890625,-0.0459442138671875,0.0324859619140625
1772789098326846200,6.53184619140625,-0.987091064453125,-0.0516510009765625,0.0240936279296875
1772789098346879200,6.551879150390625,-0.9896392822265625,-0.054168701171875,0.0207977294921875
1772789098366912000,6.571912109375,-1.001800537109375,-0.049102783203125,0.0308685302734375
1772789098386945300,6.5919453125,-0.989044189453125,-0.044281005859375,0.0298614501953125
1772789098406977300,6.611977294921875,-0.9931640625,-0.04364013671875,0.025970458984375
1772789098427011300,6.63201123046875,-0.998992919921875,-0.044342041015625,0.0305938720703125
1772789098447043000,6.65204296875,-1.0009918212890625,-0.0452117919921875,0.031158447265625
1772789098467076400,6.672076416015625,-0.9834442138671875,-0.043731689453125,0.0315093994140625
1772789098487109000,6.692109130859375,-0.9859619140625,-0.042633056640625,0.0330963134765625
1772789098507142400,6.712142333984375,-0.9964599609375,-0.05157470703125,0.0350494384765625
1772789098527175200,6.732175048828125,-0.9884490966796875,-0.05718994140625,0.0355987548828125
1772789098547208200,6.752208251953125,-0.9860687255859375,-0.0549163818359375,0.0317840576171875
1772789098567241200,6.7722412109375,-0.987701416015625,-0.0504302978515625,0.0346221923828125
1772789098587274200,6.792274169921875,-1.0016632080078125,-0.053680419921875,0.033538818359375
1772789098607307300,6.812307373046875,-1.0018310546875,-0.0562591552734375,0.030792236328125
1772789098627340300,6.83234033203125,-0.9998779296875,-0.0503082275390625,0.02984619140625
1772789098647373300,6.852373291015625,-1.0003814697265625,-0.04595947265625,0.0260162353515625
1772789098667406300,6.87240625,-1.0055084228515625,-0.0506134033203125,0.028594970703125
1772789098687439000,6.892439208984375,-1.0055084228515625,-0.0543975830078125,0.0320892333984375
1772789098707472400,6.912472412109375,-1.004119873046875,-0.049774169921875,0.019622802734375
1772789098727505200,6.932505126953125,-1.00689697265625,-0.046356201171875,0.0296630859375
1772789098747538200,6.9525380859375,-0.9970703125,-0.0414276123046875,0.039703369140625
1772789098767571200,6.9725712890625,-0.9932098388671875,-0.0404205322265625,0.0319061279296875
1772789098787604000,6.99260400390625,-0.995330810546875,-0.0504302978515625,0.0246124267578125
1772789098807637200,7.01263720703125,-1.00128173828125,-0.064056396484375,0.0179901123046875
1772789098827670000,7.032669921875,-0.999267578125,-0.0647735595703125,0.0168609619140625
1772789098847703300,7.052703369140625,-1.000274658203125,-0.053009033203125,0.0200042724609375
1772789098867736000,7.072736083984375,-1.0012664794921875,-0.0486907958984375,0.024658203125
1772789098887769300,7.092769287109375,-1.005157470703125,-0.0463714599609375,0.0234222412109375
1772789098907802000,7.112802001953125,-0.9969329833984375,-0.04083251953125,0.0316314697265625
1772789098927835100,7.132835205078125,-0.9932861328125,-0.0428619384765625,0.0301055908203125
1772789098947868200,7.1528681640625,-0.9958343505859375,-0.0537261962890625,0.02960205078125
1772789098967901200,7.172901123046875,-0.9989013671875,-0.0575714111328125,0.033966064453125
1772789098987934200,7.192934326171875,-0.993499755859375,-0.0543365478515625,0.0368194580078125
1772789099007967200,7.21296728515625,-0.9909820556640625,-0.0512237548828125,0.0385284423828125
1772789099028000000,7.233,-0.9996337890625,-0.0509033203125,0.031158447265625
1772789099048033300,7.253033203125,-1.0032196044921875,-0.04705810546875,0.027923583984375
1772789099068066000,7.273066162109375,-1.00433349609375,-0.0383758544921875,0.03826904296875
1772789099088099300,7.293099365234375,-1.00555419921875,-0.037109375,0.035736083984375
1772789099108132000,7.313132080078125,-1.005279541015625,-0.0478057861328125,0.0333709716796875
1772789099128165000,7.3331650390625,-0.998016357421875,-0.0579071044921875,0.0342559814453125
1772789099148198100,7.3531982421875,-0.996856689453125,-0.06439208984375,0.035675048828125
1772789099168231200,7.373231201171875,-0.9950408935546875,-0.0625762939453125,0.040985107421875
1772789099188264200,7.39326416015625,-1.0055389404296875,-0.062896728515625,0.043365478515625
1772789099208297000,7.413296875,-0.998809814453125,-0.0574798583984375,0.04388427734375
1772789099228330000,7.433330078125,-0.9907379150390625,-0.050262451171875,0.04296875
1772789099248363000,7.453363037109375,-0.997344970703125,-0.0482635498046875,0.0424652099609375
1772789099268395000,7.47339501953125,-1.00732421875,-0.049468994140625,0.036895751953125
1772789099288429000,7.493428955078125,-0.9987640380859375,-0.04852294921875,0.029693603515625
1772789099308461000,7.5134609375,-0.995941162109375,-0.045257568359375,0.028900146484375
1772789099328494000,7.533494140625,-1.01043701171875,-0.0428924560546875,0.0289306640625
1772789099348526800,7.55352685546875,-1.000335693359375,-0.043670654296875,0.030731201171875
1772789099368560000,7.57356005859375,-0.9901885986328125,-0.04425048828125,0.033447265625
1772789099388593000,7.593593017578125,-0.9964752197265625,-0.0490875244140625,0.038360595703125
1772789099408626200,7.613626220703125,-1.003662109375,-0.0518646240234375,0.044342041015625
1772789099428659000,7.633658935546875,-0.99310302734375,-0.0518341064453125,0.04144287109375
1772789099448692000,7.65369189453125,-0.9897003173828125,-0.053436279296875,0.0423126220703125
1772789099468725000,7.67372509765625,-1.0000762939453125,-0.05462646484375,0.0437469482421875
1772789099488758000,7.693758056640625,-0.998931884765625,-0.051727294921875,0.04193115234375
1772789099508791000,7.713791015625,-0.99322509765625,-0.049713134765625,0.0447998046875
1772789099528824000,7.733823974609375,-1.000335693359375,-0.0509796142578125,0.0421905517578125
1772789099548857000,7.753857177734375,-1.0057220458984375,-0.056793212890625,0.0388946533203125
1772789099568890000,7.77389013671875,-1.0065155029296875,-0.0572662353515625,0.0394439697265625
1772789099588923000,7.7939228515625,-1.000518798828125,-0.0536651611328125,0.053253173828125
1772789099608956200,7.8139560546875,-0.987396240234375,-0.0511016845703125,0.05120849609375
1772789099628989000,7.833989013671875,-1.0001983642578125,-0.0584564208984375,0.0505523681640625
1772789099649022200,7.854022216796875,-0.9993743896484375,-0.0633544921875,0.050323486328125
1772789099669055000,7.874054931640625,-0.99493408203125,-0.05853271484375,0.0429840087890625
1772789099689088000,7.894087890625,-0.9930877685546875,-0.051971435546875,0.039154052734375
1772789099709121000,7.91412109375,-1.003387451171875,-0.0516815185546875,0.043731689453125
1772789099729154000,7.934154052734375,-1.00286865234375,-0.0522918701171875,0.038299560546875
1772789099749187000,7.95418701171875,-1.005615234375,-0.052825927734375,0.0367889404296875
1772789099769220000,7.97422021484375,-1.0032806396484375,-0.0541229248046875,0.0370941162109375
1772789099789253000,7.994253173828125,-0.998565673828125,-0.05474853515625,0.0351104736328125
1772789099809284000,8.0142841796875,-0.991729736328125,-0.0527496337890625,0.0384063720703125
1772789099829317000,8.034317138671875,-1.0032501220703125,-0.05169677734375,0.0452728271484375
1772789099849350000,8.054349853515625,-0.998504638671875,-0.053497314453125,0.0506591796875
1772789099869383200,8.074383056640626,-0.993408203125,-0.0607147216796875,0.044891357421875
1772789099889416000,8.094416015625,-0.9913482666015625,-0.0654754638671875,0.0465850830078125
1772789099909449200,8.11444921875,-0.999847412109375,-0.0612640380859375,0.051177978515625
1772789099929482000,8.13448193359375,-0.9998626708984375,-0.0565948486328125,0.053314208984375
1772789099949515000,8.154514892578124,-0.9995269775390625,-0.0588531494140625,0.04779052734375
1772789099969548000,8.174548095703125,-1.00457763671875,-0.0582733154296875,0.04937744140625
1772789099989581000,8.1945810546875,-1.0004425048828125,-0.05255126953125,0.0499114990234375
1772789100009614000,8.214614013671875,-1.002044677734375,-0.0515899658203125,0.049041748046875
1772789100029647000,8.234647216796875,-1.0009002685546875,-0.0589752197265625,0.0490875244140625
1772789100049680000,8.254679931640625,-1.00250244140625,-0.06561279296875,0.045989990234375
1772789100069713200,8.274713134765625,-0.9993896484375,-0.0636749267578125,0.046112060546875
1772789100089746000,8.294745849609376,-0.9918670654296875,-0.0557861328125,0.04931640625
1772789100109779000,8.314779052734375,-0.9969482421875,-0.054290771484375,0.0522003173828125
1772789100129811000,8.33481103515625,-1.00518798828125,-0.0627288818359375,0.0529937744140625
1772789100149845000,8.354844970703125,-0.9979705810546875,-0.0653839111328125,0.0516510009765625
1772789100169877000,8.374876953125,-0.9910736083984375,-0.055419921875,0.051239013671875
1772789100189910000,8.394909912109375,-1.00225830078125,-0.0572967529296875,0.0545654296875
1772789100209943600,8.414943603515624,-1.002410888671875,-0.0632476806640625,0.0540313720703125
1772789100229976300,8.434976318359375,-0.9932861328125,-0.0610504150390625,0.0457916259765625
1772789100250009600,8.455009521484374,-0.9857025146484375,-0.052764892578125,0.045806884765625
1772789100270042400,8.47504248046875,-0.9960784912109375,-0.0527496337890625,0.05035400390625
1772789100290075600,8.49507568359375,-0.9998931884765625,-0.0583953857421875,0.047698974609375
1772789100310108400,8.5151083984375,-0.994598388671875,-0.0614776611328125,0.0433197021484375
1772789100330141400,8.535141357421875,-1.005340576171875,-0.058197021484375,0.0449676513671875
1772789100350174500,8.555174560546876,-1.0098724365234375,-0.0546417236328125,0.0491180419921875
1772789100370207500,8.57520751953125,-1.0045318603515625,-0.0518035888671875,0.050140380859375
1772789100390240500,8.595240478515626,-1.0026092529296875,-0.044769287109375,0.046112060546875
1772789100410273500,8.6152734375,-0.9999847412109375,-0.0486907958984375,0.0503082275390625
1772789100430306600,8.635306640625,-0.997406005859375,-0.062591552734375,0.047332763671875
1772789100450339600,8.655339599609375,-1.0001068115234375,-0.06890869140625,0.041351318359375
1772789100470372400,8.675372314453124,-0.994049072265625,-0.06951904296875,0.0431365966796875
1772789100490405600,8.695405517578125,-0.988128662109375,-0.06622314453125,0.0423431396484375
1772789100510438400,8.7154384765625,-0.988128662109375,-0.059906005859375,0.0418853759765625
1772789100530471700,8.7354716796875,-0.9955596923828125,-0.05780029296875,0.045196533203125
1772789100550504400,8.75550439453125,-0.9986572265625,-0.0603179931640625,0.04583740234375
1772789100570537500,8.775537353515626,-0.9931640625,-0.0586395263671875,0.040496826171875
1772789100590570500,8.795570556640625,-0.992431640625,-0.0570526123046875,0.0436248779296875
1772789100610603500,8.815603515625,-1.0029449462890625,-0.058380126953125,0.0428924560546875
1772789100630636500,8.835636474609375,-1.0029296875,-0.0563201904296875,0.048248291015625
1772789100650669600,8.855669677734374,-0.9940948486328125,-0.0546112060546875,0.0473175048828125
1772789100670702300,8.875702392578125,-0.99615478515625,-0.0585784912109375,0.0484619140625
1772789100690735400,8.8957353515625,-1.0045318603515625,-0.0637664794921875,0.0500640869140625
1772789100710768400,8.915768310546875,-0.9994659423828125,-0.065216064453125,0.0496826171875
1772789100730801400,8.935801513671874,-1.00164794921875,-0.064453125,0.0469512939453125
1772789100750834400,8.95583447265625,-1.009307861328125,-0.06280517578125,0.0461883544921875
1772789100770867500,8.975867431640625,-1.009979248046875,-0.0600128173828125,0.0424652099609375
1772789100790900500,8.995900390625,-1.0066680908203125,-0.0569915771484375,0.0423736572265625
1772789100810933200,9.015933349609375,-1.004425048828125,-0.0572509765625,0.047607421875
1772789100830966500,9.035966552734376,-1.0102996826171875,-0.061981201171875,0.04827880859375
1772789100850999300,9.055999267578125,-1.0039520263671875,-0.06707763671875,0.04949951171875
1772789100871032600,9.076032470703124,-0.99951171875,-0.0649566650390625,0.0495147705078125
1772789100891065300,9.0960654296875,-0.99310302734375,-0.06103515625,0.05224609375
1772789100911098400,9.116098388671874,-0.989105224609375,-0.0621337890625,0.0512237548828125
1772789100931131400,9.13613134765625,-0.991302490234375,-0.06060791015625,0.04986572265625
1772789100951164400,9.156164306640624,-0.985107421875,-0.0559234619140625,0.054595947265625
1772789100971197400,9.176197509765625,-0.995513916015625,-0.058380126953125,0.050994873046875
1772789100991230500,9.19623046875,-0.9980926513671875,-0.06414794921875,0.0528106689453125
1772789101011263500,9.216263427734376,-0.99700927734375,-0.0628509521484375,0.047027587890625
1772789101031296500,9.236296630859375,-0.994140625,-0.0601043701171875,0.0454864501953125
1772789101051329300,9.256329345703126,-0.9989013671875,-0.058837890625,0.0453643798828125
1772789101071362600,9.276362548828125,-1.00506591796875,-0.061004638671875,0.0481109619140625
1772789101091395300,9.296395263671876,-1.0030517578125,-0.067047119140625,0.048095703125
1772789101111428600,9.3164287109375,-0.9959259033203125,-0.0693817138671875,0.04779052734375
1772789101131461400,9.33646142578125,-0.9972991943359375,-0.06787109375,0.0531158447265625
1772789101151494400,9.356494384765625,-1.0061492919921875,-0.068634033203125,0.0546112060546875
1772789101171527400,9.37652734375,-0.997650146484375,-0.0719451904296875,0.052581787109375
1772789101191560400,9.396560546875,-0.9928436279296875,-0.0667572021484375,0.0482940673828125
1772789101211593200,9.41659326171875,-0.9968414306640625,-0.0606231689453125,0.05194091796875
1772789101231626000,9.4366259765625,-1.00543212890625,-0.06640625,0.0503692626953125
1772789101251659300,9.4566591796875,-1.003021240234375,-0.075927734375,0.0443267822265625
1772789101271692000,9.476692138671876,-0.9917144775390625,-0.0687255859375,0.0408935546875
1772789101291725000,9.49672509765625,-1.0051727294921875,-0.0634002685546875,0.04901123046875
1772789101311758000,9.516758056640626,-1.0043792724609375,-0.0689544677734375,0.0517730712890625
1772789101331791000,9.536791015625,-0.9947052001953125,-0.072906494140625,0.0486602783203125
1772789101351824100,9.55682421875,-0.99212646484375,-0.07122802734375,0.0520172119140625
1772789101371857200,9.576857177734375,-0.994964599609375,-0.0741119384765625,0.057342529296875
1772789101391890200,9.59689013671875,-0.9940032958984375,-0.0782928466796875,0.0512542724609375
1772789101411923200,9.616923095703125,-0.9932403564453125,-0.0798492431640625,0.0526123046875
1772789101431956000,9.6369560546875,-0.990936279296875,-0.0785369873046875,0.0505828857421875
1772789101451989200,9.6569892578125,-0.9961090087890625,-0.0764007568359375,0.0453338623046875
1772789101472022000,9.67702197265625,-0.99542236328125,-0.074310302734375,0.0463714599609375
1772789101492055300,9.69705517578125,-0.9936370849609375,-0.074310302734375,0.04315185546875
1772789101512088000,9.717088134765625,-1.0009307861328125,-0.0778961181640625,0.03741455078125
1772789101532121000,9.73712109375,-0.993804931640625,-0.0780792236328125,0.03570556640625
1772789101552154000,9.757154052734375,-0.99957275390625,-0.076904296875,0.042083740234375
1772789101572187100,9.777187255859374,-0.993194580078125,-0.0716094970703125,0.0469512939453125
1772789101592220200,9.79722021484375,-0.9968719482421875,-0.07080078125,0.0497283935546875
1772789101612253200,9.817253173828124,-0.9938812255859375,-0.07720947265625,0.0539093017578125
1772789101632285200,9.83728515625,-0.9907684326171875,-0.0762786865234375,0.0551605224609375
1772789101652318000,9.85731787109375,-0.9889984130859375,-0.0724334716796875,0.056488037109375
1772789101672351200,9.877351318359375,-0.993408203125,-0.07342529296875,0.057830810546875
1772789101692384000,9.897384033203124,-0.9965362548828125,-0.075714111328125,0.0555419921875
1772789101712417000,9.9174169921875,-0.993988037109375,-0.0758819580078125,0.0525360107421875
1772789101732450000,9.937449951171875,-0.9937896728515625,-0.0773773193359375,0.048980712890625
1772789101752483000,9.957483154296876,-0.9949188232421875,-0.081634521484375,0.0471649169921875
1772789101772516000,9.97751611328125,-1.0032806396484375,-0.0824737548828125,0.04827880859375
1772789101792549000,9.997549072265626,-1.0049591064453125,-0.082550048828125,0.0542755126953125
1772789101812582000,10.017581787109375,-0.997772216796875,-0.082427978515625,0.0513153076171875
1772789101832615200,10.037615234375,-0.9972076416015625,-0.07781982421875,0.0526275634765625
1772789101852648000,10.05764794921875,-0.9976043701171875,-0.075042724609375,0.057708740234375
1772789101872681200,10.07768115234375,-1.006805419921875,-0.0819854736328125,0.0576019287109375
1772789101892714000,10.0977138671875,-0.9970550537109375,-0.086395263671875,0.0565643310546875
1772789101912747300,10.117747314453124,-0.989959716796875,-0.0806427001953125,0.050994873046875
1772789101932780000,10.137780029296875,-1.0011444091796875,-0.0787353515625,0.056915283203125
1772789101952813000,10.15781298828125,-1.0016632080078125,-0.0785369873046875,0.0578155517578125
1772789101972846000,10.17784619140625,-0.999267578125,-0.0774688720703125,0.0527496337890625
1772789101992879000,10.197879150390625,-0.99493408203125,-0.0748443603515625,0.050872802734375
1772789102012912000,10.217912109375,-1.0027313232421875,-0.075531005859375,0.053436279296875
1772789102032945200,10.237945068359375,-0.9950103759765625,-0.0778045654296875,0.0514984130859375
1772789102052978000,10.25797802734375,-0.99420166015625,-0.07757568359375,0.049835205078125
1772789102073011200,10.27801123046875,-0.9886627197265625,-0.0794830322265625,0.051971435546875
1772789102093044000,10.2980439453125,-0.98779296875,-0.0822906494140625,0.0534820556640625
1772789102113077200,10.3180771484375,-0.9902496337890625,-0.0806732177734375,0.0543975830078125
1772789102133110000,10.338110107421874,-0.990631103515625,-0.07684326171875,0.0577239990234375
1772789102153143000,10.35814306640625,-0.9900360107421875,-0.0717926025390625,0.0578460693359375
1772789102173176000,10.378176025390625,-0.9893341064453125,-0.06964111328125,0.0554351806640625
1772789102193209000,10.398208984375,-0.996917724609375,-0.073394775390625,0.0537872314453125
1772789102213242000,10.4182421875,-0.9969024658203125,-0.0763092041015625,0.049468994140625
1772789102233275100,10.438275146484376,-0.995849609375,-0.0763397216796875,0.0457763671875
1772789102253308200,10.45830810546875,-0.9960784912109375,-0.0720672607421875,0.0468597412109375
1772789102273341200,10.478341064453126,-1.00030517578125,-0.0692138671875,0.048065185546875
1772789102293374000,10.4983740234375,-1.001068115234375,-0.0707244873046875,0.048919677734375
1772789102313407200,10.5184072265625,-0.997406005859375,-0.072113037109375,0.049713134765625
1772789102333440000,10.53843994140625,-0.9965057373046875,-0.0749664306640625,0.0524444580078125
1772789102353473300,10.558473388671874,-0.9990081787109375,-0.080596923828125,0.0538330078125
1772789102373506000,10.578506103515625,-0.997406005859375,-0.0807647705078125,0.0567169189453125
1772789102393539000,10.5985390625,-0.9952239990234375,-0.079681396484375,0.06396484375
1772789102413572000,10.618572021484376,-0.99713134765625,-0.078338623046875,0.06549072265625
1772789102433605000,10.638605224609375,-0.998046875,-0.0767822265625,0.0612030029296875
1772789102453638100,10.65863818359375,-0.99835205078125,-0.072479248046875,0.0599212646484375
1772789102473671200,10.678671142578125,-0.99700927734375,-0.0716705322265625,0.0598602294921875
1772789102493704200,10.6987041015625,-0.99566650390625,-0.0731353759765625,0.0597991943359375
1772789102513737000,10.718737060546875,-1.0030975341796875,-0.0727691650390625,0.0564117431640625
1772789102533770000,10.73877001953125,-0.998504638671875,-0.0733184814453125,0.05859375
1772789102553803000,10.758802978515625,-0.991912841796875,-0.0709686279296875,0.05438232421875
1772789102573836000,10.7788359375,-0.993408203125,-0.0739288330078125,0.0536041259765625
1772789102593869000,10.798869140625,-0.996490478515625,-0.07861328125,0.0532989501953125
1772789102613902000,10.818902099609375,-0.9899139404296875,-0.0802001953125,0.0507659912109375
1772789102633934800,10.838934814453125,-0.9891357421875,-0.077728271484375,0.0489044189453125
1772789102653968100,10.858968017578125,-0.99359130859375,-0.0756683349609375,0.0514373779296875
1772789102674001000,10.8790009765625,-0.996612548828125,-0.0760040283203125,0.056060791015625
1772789102694034200,10.8990341796875,-0.9914398193359375,-0.0747222900390625,0.0526580810546875
1772789102714067000,10.91906689453125,-0.9941558837890625,-0.077484130859375,0.051727294921875
1772789102734100200,10.939100341796875,-0.9927825927734375,-0.0810394287109375,0.0498199462890625
1772789102754133000,10.959133056640624,-0.9928741455078125,-0.0772705078125,0.0434417724609375
1772789102774166000,10.979166015625,-0.98834228515625,-0.07159423828125,0.04742431640625
1772789102794199000,10.999198974609374,-0.9928741455078125,-0.07098388671875,0.0460052490234375
1772789102814232000,11.019232177734375,-1.0037078857421875,-0.074462890625,0.042083740234375
1772789102834265000,11.03926513671875,-0.99908447265625,-0.0718536376953125,0.0417022705078125
1772789102854298000,11.059298095703125,-0.999786376953125,-0.0669403076171875,0.0435028076171875
1772789102874331000,11.079330810546875,-1.00994873046875,-0.0651397705078125,0.043487548828125
1772789102894364200,11.0993642578125,-1.0069122314453125,-0.0683441162109375,0.044891357421875
1772789102914397000,11.11939697265625,-0.99639892578125,-0.067291259765625,0.038848876953125
1772789102934430200,11.13943017578125,-0.9957275390625,-0.066314697265625,0.0362701416015625
1772789102954463000,11.159462890625,-0.9968109130859375,-0.0714569091796875,0.0441436767578125
1772789102974496000,11.17949609375,-0.99884033203125,-0.0718994140625,0.04437255859375
1772789102994529000,11.199529052734375,-0.996063232421875,-0.0716094970703125,0.0466766357421875
1772789103014562000,11.21956201171875,-0.995147705078125,-0.069305419921875,0.046539306640625
1772789103034595000,11.239594970703125,-1.000244140625,-0.065185546875,0.04736328125
1772789103054628000,11.259628173828125,-1.0000457763671875,-0.0600738525390625,0.0510101318359375
1772789103074661000,11.2796611328125,-0.99951171875,-0.0650787353515625,0.046630859375
1772789103094694100,11.299694091796875,-0.9990692138671875,-0.06903076171875,0.0396881103515625
1772789103114727000,11.319726806640626,-1.00311279296875,-0.066741943359375,0.0420684814453125
1772789103134760200,11.33976025390625,-0.99981689453125,-0.0613250732421875,0.0437469482421875
1772789103154793000,11.35979296875,-0.995849609375,-0.0598297119140625,0.0412750244140625
1772789103174826200,11.379826171875,-0.9981231689453125,-0.0658721923828125,0.0467071533203125
1772789103194859000,11.39985888671875,-0.998626708984375,-0.0674285888671875,0.05352783203125
1772789103214892000,11.41989208984375,-0.9944915771484375,-0.064849853515625,0.051300048828125
1772789103234925000,11.439925048828124,-0.9923248291015625,-0.06280517578125,0.0462493896484375
1772789103254957800,11.459957763671875,-0.9947967529296875,-0.059844970703125,0.0433807373046875
1772789103274991000,11.4799912109375,-0.9940948486328125,-0.0541839599609375,0.034698486328125
1772789103295023900,11.50002392578125,-0.994415283203125,-0.052764892578125,0.02923583984375
1772789103315057200,11.52005712890625,-0.99609375,-0.051910400390625,0.02203369140625
1772789103335090000,11.54008984375,-1.0002899169921875,-0.0519866943359375,0.015625
1772789103355123000,11.560123046875,-0.999908447265625,-0.0528411865234375,0.0132904052734375
1772789103375156000,11.580156005859376,-1.004608154296875,-0.0467681884765625,0.016357421875
1772789103395189000,11.60018896484375,-1.0000152587890625,-0.0414886474609375,0.016845703125
1772789103415222000,11.620221923828124,-1.003143310546875,-0.0459747314453125,0.0150146484375
1772789103435255000,11.640255126953125,-1.0030670166015625,-0.0561370849609375,0.015289306640625
1772789103455287800,11.660287841796874,-1.0066375732421875,-0.0606231689453125,0.0179901123046875
1772789103475321000,11.680321044921875,-1.004669189453125,-0.0574493408203125,0.022491455078125
1772789103495353900,11.700353759765624,-1.0040130615234375,-0.0523223876953125,0.0256195068359375
1772789103515387100,11.72038720703125,-1.0045928955078125,-0.0507049560546875,0.026702880859375
1772789103535420000,11.740419921875,-1.00579833984375,-0.0473175048828125,0.027130126953125
1772789103555453200,11.760453125,-1.0031585693359375,-0.0508880615234375,0.032012939453125
1772789103575486000,11.78048583984375,-0.9995269775390625,-0.0566864013671875,0.02899169921875
1772789103595519000,11.80051904296875,-0.9954986572265625,-0.05963134765625,0.0288543701171875
1772789103615552000,11.820552001953125,-0.9929962158203125,-0.0540618896484375,0.0296173095703125
1772789103635585000,11.8405849609375,-0.98931884765625,-0.05078125,0.0328521728515625
1772789103655618000,11.8606181640625,-0.9872589111328125,-0.05438232421875,0.0337982177734375
1772789103675651000,11.880651123046874,-0.9839935302734375,-0.0579681396484375,0.0311431884765625
1772789103695683800,11.900683837890625,-0.9816436767578125,-0.05780029296875,0.0267486572265625
1772789103715716900,11.920716796875,-0.9930267333984375,-0.0522918701171875,0.028472900390625
1772789103735750000,11.94075,-0.9950103759765625,-0.0356597900390625,0.0329132080078125
1772789103755783000,11.960782958984375,-1.0049591064453125,-0.02081298828125,0.0332183837890625
1772789103775816000,11.98081591796875,-1.0157623291015625,-0.0175323486328125,0.0366973876953125
1772789103795849000,12.000848876953125,-1.0163116455078125,-0.0263671875,0.0321044921875
1772789103815882000,12.020882080078126,-1.0074005126953125,-0.03668212890625,0.0257568359375
1772789103835914800,12.040914794921875,-1.009521484375,-0.043182373046875,0.0297393798828125
1772789103855948000,12.060947998046874,-1.0146331787109375,-0.0469207763671875,0.038909912109375
1772789103875980800,12.080980712890625,-1.0058135986328125,-0.047607421875,0.03631591796875
1772789103896014000,12.10101416015625,-1.0000457763671875,-0.0488128662109375,0.035797119140625
1772789103916046800,12.121046875,-1.0011749267578125,-0.045074462890625,0.0361480712890625
1772789103936080000,12.141079833984374,-1.0015869140625,-0.038543701171875,0.036895751953125
1772789103956113000,12.16111279296875,-0.99810791015625,-0.03656005859375,0.03204345703125
1772789103976146000,12.18114599609375,-0.9992523193359375,-0.03399658203125,0.025390625
1772789103996179000,12.201178955078126,-1.005279541015625,-0.0330963134765625,0.0269927978515625
1772789104016212000,12.2212119140625,-1.0055694580078125,-0.032440185546875,0.02203369140625
1772789104036245000,12.241244873046876,-1.00433349609375,-0.0326690673828125,0.0166778564453125
1772789104056278000,12.261278076171875,-1.0056304931640625,-0.032623291015625,0.0167694091796875
1772789104076310800,12.281310791015626,-1.0066375732421875,-0.0339813232421875,0.02056884765625
1772789104096344000,12.301343994140625,-1.0059814453125,-0.039093017578125,0.0210418701171875
1772789104116376800,12.321376953125,-0.99945068359375,-0.0431365966796875,0.02069091796875
1772789104136410000,12.34141015625,-0.9945831298828125,-0.040374755859375,0.0203399658203125
1772789104156443000,12.36144287109375,-0.99639892578125,-0.0376434326171875,0.0214996337890625
1772789104176476000,12.381475830078125,-0.9950714111328125,-0.037841796875,0.0255889892578125
1772789104196509000,12.401509033203125,-0.9914093017578125,-0.04254150390625,0.0181732177734375
1772789104216542000,12.4215419921875,-1.0013885498046875,-0.0450897216796875,0.0179443359375
1772789104236576000,12.441575927734375,-1.0052490234375,-0.03863525390625,0.0244598388671875
1772789104256609000,12.461609130859374,-1.007843017578125,-0.02923583984375,0.0288543701171875
1772789104276642000,12.48164208984375,-1.010009765625,-0.0258941650390625,0.0294647216796875
1772789104296675000,12.501675048828124,-1.00799560546875,-0.0299530029296875,0.0272979736328125
1772789104316708000,12.5217080078125,-1.0044403076171875,-0.0352630615234375,0.02093505859375
1772789104336740900,12.541740966796874,-1.0066986083984375,-0.04241943359375,0.02490234375
1772789104356774100,12.561774169921875,-1.009429931640625,-0.0473480224609375,0.030059814453125
1772789104376807000,12.581806884765625,-1.0016937255859375,-0.04815673828125,0.029541015625
1772789104396840200,12.601840087890626,-0.9986724853515625,-0.0454559326171875,0.0337371826171875
1772789104416873000,12.621873046875,-1.0001983642578125,-0.041290283203125,0.0389404296875
1772789104436906000,12.641906005859376,-0.99798583984375,-0.0436553955078125,0.038238525390625
1772789104456939000,12.66193896484375,-0.9923248291015625,-0.0462646484375,0.0337677001953125
1772789104476972000,12.681971923828126,-0.9980621337890625,-0.044525146484375,0.0338134765625
1772789104497005000,12.702005126953125,-1.002227783203125,-0.043487548828125,0.0384063720703125
1772789104517038000,12.7220380859375,-0.997344970703125,-0.04327392578125,0.0362701416015625
1772789104537071000,12.742071044921875,-0.9981689453125,-0.044708251953125,0.029449462890625
1772789104557104000,12.762104248046874,-1.00042724609375,-0.0447998046875,0.030853271484375
1772789104577137000,12.782136962890625,-1.00115966796875,-0.0429229736328125,0.0294647216796875
1772789104597170200,12.802170166015625,-1.000030517578125,-0.0438690185546875,0.0294189453125
1772789104617203000,12.822202880859376,-0.9984130859375,-0.0465545654296875,0.0281982421875
1772789104637236200,12.842236328125,-0.993408203125,-0.0458984375,0.02581787109375
1772789104657269000,12.86226904296875,-0.9916839599609375,-0.04461669921875,0.027130126953125
1772789104677302000,12.882302001953125,-0.996734619140625,-0.050567626953125,0.02850341796875
1772789104697335000,12.9023349609375,-1.0068817138671875,-0.055816650390625,0.0272064208984375
1772789104717368000,12.9223681640625,-1.004638671875,-0.04998779296875,0.0307769775390625
1772789104737401000,12.942401123046874,-1.000396728515625,-0.037017822265625,0.0335693359375
1772789104757434000,12.96243408203125,-0.99908447265625,-0.03607177734375,0.030670166015625
1772789104777467100,12.982467041015624,-1.0001678466796875,-0.0479583740234375,0.025238037109375
1772789104797500200,13.002500244140625,-0.9964752197265625,-0.0549774169921875,0.0230255126953125
1772789104817533000,13.022532958984375,-0.990753173828125,-0.0530548095703125,0.023223876953125
1772789104837566200,13.042566162109376,-0.996124267578125,-0.050384521484375,0.02587890625
1772789104857599000,13.062598876953125,-0.9964447021484375,-0.0429840087890625,0.0328521728515625
1772789104877632300,13.08263232421875,-0.987396240234375,-0.0377349853515625,0.03436279296875
1772789104897665000,13.1026650390625,-0.9830780029296875,-0.0404052734375,0.0356903076171875
1772789104917698000,13.122697998046876,-0.992767333984375,-0.044830322265625,0.0371551513671875
1772789104937731000,13.14273095703125,-0.9906158447265625,-0.0493316650390625,0.0414886474609375
1772789104957764000,13.16276416015625,-0.9908905029296875,-0.048614501953125,0.042083740234375
1772789104977797000,13.182797119140625,-0.999664306640625,-0.0485687255859375,0.0440521240234375
1772789104997830100,13.202830078125,-0.998809814453125,-0.051910400390625,0.043670654296875
1772789105017863000,13.22286279296875,-0.998809814453125,-0.056121826171875,0.0403594970703125
1772789105037896200,13.242896240234375,-1.0012359619140625,-0.0592803955078125,0.040802001953125
1772789105057929000,13.262928955078126,-1.0139312744140625,-0.0616912841796875,0.0406341552734375
1772789105077962200,13.282962158203125,-1.01220703125,-0.0584716796875,0.0391693115234375
1772789105097995000,13.3029951171875,-1.008087158203125,-0.0493621826171875,0.03973388671875
1772789105118028300,13.3230283203125,-1.00885009765625,-0.0453643798828125,0.03515625
1772789105138061000,13.34306103515625,-1.0032196044921875,-0.04473876953125,0.03399658203125
1772789105158094000,13.363093994140625,-1.00067138671875,-0.0446624755859375,0.0342559814453125
1772789105178127000,13.383127197265624,-1.000885009765625,-0.045684814453125,0.03167724609375
1772789105198160400,13.403160400390625,-0.994781494140625,-0.04541015625,0.0308990478515625
1772789105218193400,13.423193359375,-0.9920196533203125,-0.0428466796875,0.0318145751953125
1772789105238226400,13.443226318359375,-0.9944610595703125,-0.039031982421875,0.0364837646484375
1772789105258259500,13.463259521484375,-0.993255615234375,-0.0400390625,0.039581298828125
1772789105278292500,13.48329248046875,-0.9899139404296875,-0.0448455810546875,0.03826904296875
1772789105298325500,13.503325439453125,-0.990386962890625,-0.04736328125,0.041900634765625
1772789105318358500,13.523358642578126,-0.9947967529296875,-0.0449066162109375,0.0426025390625
1772789105338391600,13.5433916015625,-0.9962158203125,-0.0414886474609375,0.0434722900390625
1772789105358424300,13.56342431640625,-0.9886016845703125,-0.0421600341796875,0.0449676513671875
1772789105378457600,13.58345751953125,-0.9932708740234375,-0.04400634765625,0.0439910888671875
1772789105398490400,13.603490478515624,-0.998870849609375,-0.050323486328125,0.045989990234375
1772789105418523600,13.623523681640625,-1.002105712890625,-0.0578765869140625,0.04620361328125
1772789105438556400,13.643556396484374,-0.99810791015625,-0.0583648681640625,0.041900634765625
1772789105458589400,13.66358935546875,-1.002166748046875,-0.0520172119140625,0.0472564697265625
1772789105478622500,13.68362255859375,-1.0084381103515625,-0.047393798828125,0.050384521484375
1772789105498655500,13.703655517578126,-1.0066375732421875,-0.0491790771484375,0.044525146484375
1772789105518688500,13.7236884765625,-1.0038604736328125,-0.0493927001953125,0.0365142822265625
1772789105538721500,13.743721435546876,-1.001922607421875,-0.04364013671875,0.0359649658203125
1772789105558754600,13.763754638671875,-1.005706787109375,-0.038421630859375,0.0383148193359375
1772789105578787600,13.78378759765625,-1.0041961669921875,-0.0394134521484375,0.03497314453125
1772789105598820400,13.8038203125,-0.999664306640625,-0.0394287109375,0.03106689453125
1772789105618853600,13.823853515625,-0.9961090087890625,-0.03662109375,0.0328826904296875
1772789105638886400,13.843886474609375,-0.9959869384765625,-0.0377349853515625,0.0353851318359375
1772789105658919700,13.863919677734375,-0.995849609375,-0.039398193359375,0.032684326171875
1772789105678952400,13.883952392578125,-0.9929962158203125,-0.0388336181640625,0.0377655029296875
1772789105698985200,13.903985107421875,-0.9954376220703125,-0.0422821044921875,0.0399169921875
1772789105719018500,13.9240185546875,-0.99761962890625,-0.0465240478515625,0.04132080078125
1772789105739051300,13.94405126953125,-0.9959564208984375,-0.0498809814453125,0.0428466796875
1772789105759084500,13.96408447265625,-0.9956512451171875,-0.04840087890625,0.042205810546875
1772789105779117300,13.984117431640625,-1.0002593994140625,-0.0464019775390625,0.045623779296875
1772789105799150600,14.004150634765624,-1.0031585693359375,-0.04754638671875,0.0426025390625
1772789105819183400,14.024183349609375,-0.998504638671875,-0.0492095947265625,0.0422821044921875
1772789105839216400,14.04421630859375,-1.00048828125,-0.0457305908203125,0.042327880859375
1772789105859249400,14.06424951171875,-1.0065155029296875,-0.0418853759765625,0.0448760986328125
1772789105879282400,14.084282470703124,-1.0064239501953125,-0.045654296875,0.043243408203125
1772789105899315500,14.1043154296875,-1.0054168701171875,-0.0457916259765625,0.0381927490234375
1772789105919348500,14.124348388671875,-1.009735107421875,-0.0419921875,0.04132080078125
1772789105939381200,14.14438134765625,-1.0076904296875,-0.037017822265625,0.0418243408203125
1772789105959414500,14.16441455078125,-1.0045013427734375,-0.040863037109375,0.04095458984375
1772789105979447300,14.184447265625,-0.999176025390625,-0.0474700927734375,0.03515625
1772789105999480600,14.20448046875,-1.00335693359375,-0.0463409423828125,0.0347137451171875
1772789106019513300,14.224513427734376,-1.0009002685546875,-0.0441436767578125,0.0358123779296875
1772789106039546400,14.24454638671875,-0.9933929443359375,-0.0423736572265625,0.029449462890625
1772789106059579400,14.264579345703124,-0.996002197265625,-0.03851318359375,0.028228759765625
1772789106079612400,14.2846123046875,-0.9953155517578125,-0.0402069091796875,0.02899169921875
1772789106099645400,14.3046455078125,-1.00152587890625,-0.0398406982421875,0.027435302734375
1772789106119678500,14.324678466796875,-0.9957427978515625,-0.038970947265625,0.026092529296875
1772789106139711500,14.34471142578125,-0.998260498046875,-0.03729248046875,0.0253753662109375
1772789106159744500,14.36474462890625,-0.9995269775390625,-0.0403900146484375,0.0308990478515625
1772789106179777300,14.38477734375,-1.0025177001953125,-0.045684814453125,0.029052734375
1772789106199810000,14.40481005859375,-1.0000152587890625,-0.045166015625,0.0277252197265625
1772789106219843000,14.424843017578125,-0.999114990234375,-0.0452423095703125,0.034881591796875
1772789106239876000,14.4448759765625,-0.999481201171875,-0.04571533203125,0.037872314453125
1772789106259909000,14.4649091796875,-1,-0.0490264892578125,0.0393218994140625
1772789106279942100,14.484942138671874,-1.003570556640625,-0.0523681640625,0.0430908203125
1772789106299975200,14.50497509765625,-1.0081329345703125,-0.048583984375,0.0424957275390625
1772789106320008000,14.525008056640624,-1.001983642578125,-0.043243408203125,0.0417633056640625
1772789106340041200,14.545041259765625,-1.003204345703125,-0.040740966796875,0.0361328125
1772789106360074000,14.565073974609374,-0.9998931884765625,-0.0408935546875,0.03509521484375
1772789106380107300,14.585107177734375,-1.0055084228515625,-0.03851318359375,0.0279693603515625
1772789106400140000,14.60514013671875,-1.004669189453125,-0.03564453125,0.024169921875
1772789106420173000,14.625173095703126,-0.9996795654296875,-0.0372314453125,0.0225372314453125
1772789106440206000,14.6452060546875,-0.9960174560546875,-0.0389862060546875,0.018310546875
1772789106460239000,14.665239013671876,-0.9919586181640625,-0.041259765625,0.0179443359375
1772789106480272100,14.685272216796875,-0.9954833984375,-0.0441131591796875,0.0181732177734375
1772789106500305200,14.70530517578125,-0.9927520751953125,-0.0440826416015625,0.0217132568359375
1772789106520338200,14.725338134765625,-0.9917144775390625,-0.0444183349609375,0.0232696533203125
1772789106540371200,14.74537109375,-0.992431640625,-0.042724609375,0.0237884521484375
1772789106560404000,14.765404052734375,-1.002532958984375,-0.0434722900390625,0.0293121337890625
1772789106580437200,14.785437255859375,-0.9995574951171875,-0.04669189453125,0.0295257568359375
1772789106600470000,14.805469970703125,-1.0002288818359375,-0.045684814453125,0.0260772705078125
1772789106620503300,14.82550341796875,-0.9991302490234375,-0.0457305908203125,0.02716064453125
1772789106640536000,14.8455361328125,-1.008758544921875,-0.0470733642578125,0.0295257568359375
1772789106660569000,14.865569091796875,-1.000885009765625,-0.049896240234375,0.0264892578125
1772789106680602000,14.88560205078125,-1.0030975341796875,-0.053009033203125,0.022216796875
1772789106700635100,14.90563525390625,-1.0019989013671875,-0.0497283935546875,0.0269775390625
1772789106720668200,14.925668212890624,-0.9997406005859375,-0.0432281494140625,0.025177001953125
1772789106740701200,14.945701171875,-1.000457763671875,-0.0445098876953125,0.0246734619140625
1772789106760734200,14.965734130859374,-1.0016937255859375,-0.0522613525390625,0.023834228515625
1772789106780767000,14.98576708984375,-0.9978790283203125,-0.0543975830078125,0.0193634033203125
1772789106800800000,15.005800048828124,-0.994384765625,-0.04998779296875,0.0164947509765625
1772789106820833000,15.0258330078125,-0.998504638671875,-0.045684814453125,0.0209808349609375
1772789106840866000,15.045865966796875,-0.9998931884765625,-0.0465545654296875,0.018798828125
1772789106860899000,15.065899169921876,-0.998779296875,-0.046783447265625,0.0182342529296875
1772789106880932000,15.08593212890625,-0.99639892578125,-0.0440216064453125,0.0216827392578125
1772789106900964900,15.10596484375,-1.000823974609375,-0.04498291015625,0.0231781005859375
1772789106920998100,15.125998046875,-1.00177001953125,-0.0484771728515625,0.0222625732421875
1772789106941031000,15.146031005859374,-1.0013427734375,-0.0442352294921875,0.022552490234375
1772789106961064200,15.166064208984375,-1.0032958984375,-0.0356597900390625,0.0266265869140625
1772789106981097000,15.186096923828124,-1.0008544921875,-0.030548095703125,0.0354766845703125
1772789107001130000,15.2061298828125,-1.001739501953125,-0.0303497314453125,0.0398406982421875
1772789107021163000,15.2261630859375,-1.0146026611328125,-0.0380706787109375,0.0367279052734375
1772789107041196000,15.246196044921875,-1.0172576904296875,-0.0563812255859375,0.0347900390625
1772789107061229000,15.26622900390625,-1.0071563720703125,-0.0699615478515625,0.02532958984375
1772789107081262000,15.286261962890626,-0.9927825927734375,-0.0693359375,0.01458740234375
1772789107101295000,15.306295166015625,-0.993133544921875,-0.06365966796875,0.0202178955078125
1772789107121328000,15.326328125,-1.0016021728515625,-0.0594329833984375,0.0209808349609375
1772789107141361000,15.34636083984375,-1.000579833984375,-0.0585784912109375,0.01861572265625
1772789107161394200,15.366394287109374,-1.0045318603515625,-0.0560455322265625,0.0258331298828125
1772789107181427000,15.386427001953125,-1.011322021484375,-0.0511016845703125,0.0280914306640625
1772789107201460000,15.4064599609375,-1.008880615234375,-0.050201416015625,0.0204010009765625
1772789107221493000,15.426492919921875,-1.001220703125,-0.0485992431640625,0.018768310546875
1772789107241526000,15.446526123046874,-0.994781494140625,-0.0489959716796875,0.0152130126953125
1772789107261559000,15.46655908203125,-0.99468994140625,-0.0571441650390625,0.0137176513671875
1772789107281591800,15.486591796875,-0.992034912109375,-0.0655059814453125,0.0204620361328125
1772789107301625000,15.506625,-0.9954376220703125,-0.063629150390625,0.022186279296875
1772789107321657900,15.526657958984375,-0.9958953857421875,-0.0529327392578125,0.0258941650390625
1772789107341691100,15.546691162109376,-0.9965057373046875,-0.0491943359375,0.033050537109375
1772789107361724000,15.566723876953125,-0.9973602294921875,-0.0518646240234375,0.0300750732421875
1772789107381757000,15.5867568359375,-0.996307373046875,-0.0576019287109375,0.0279541015625
1772789107401790000,15.6067900390625,-0.9959259033203125,-0.060943603515625,0.028228759765625
1772789107421823000,15.626822998046874,-1.0007476806640625,-0.0640869140625,0.027252197265625
1772789107441856000,15.64685595703125,-0.99945068359375,-0.062255859375,0.0277252197265625
1772789107461889000,15.666888916015624,-0.99993896484375,-0.0593109130859375,0.027557373046875
1772789107481921800,15.686921875,-0.997894287109375,-0.0572357177734375,0.0285186767578125
1772789107501955000,15.706955078125,-1.0034942626953125,-0.0589141845703125,0.0301361083984375
1772789107521987800,15.72698779296875,-0.9970245361328125,-0.0665435791015625,0.0243988037109375
1772789107542021000,15.747021240234375,-0.99560546875,-0.0662994384765625,0.0214385986328125
1772789107562054000,15.767053955078126,-1.004913330078125,-0.064422607421875,0.0301666259765625
1772789107582087000,15.7870869140625,-1.0079803466796875,-0.0612030029296875,0.032012939453125
1772789107602120000,15.807119873046876,-0.9960174560546875,-0.0612030029296875,0.024139404296875
1772789107622154000,15.827154052734375,-0.991119384765625,-0.0625152587890625,0.0251922607421875
1772789107642187000,15.84718701171875,-1.000885009765625,-0.0640106201171875,0.029388427734375
1772789107662219000,15.867218994140625,-0.9964141845703125,-0.0663909912109375,0.033294677734375
1772789107682252800,15.887252685546875,-0.98968505859375,-0.0668182373046875,0.0244903564453125
1772789107702286000,15.9072861328125,-0.995697021484375,-0.0643157958984375,0.0230712890625
1772789107722318800,15.92731884765625,-0.999298095703125,-0.0580291748046875,0.0236968994140625
1772789107742352100,15.94735205078125,-0.9996795654296875,-0.0517578125,0.0224151611328125
1772789107762385000,15.967385009765625,-0.9955291748046875,-0.0535430908203125,0.0205841064453125
1772789107782418000,15.98741796875,-1.000885009765625,-0.057342529296875,0.0137939453125
1772789107802450000,16.007449951171875,-1.004547119140625,-0.060089111328125,0.0196685791015625
1772789107822483000,16.02748291015625,-1.0012664794921875,-0.0599517822265625,0.02239990234375
1772789107842516000,16.047515869140625,-1.0010986328125,-0.06317138671875,0.021820068359375
1772789107862549000,16.067549072265624,-0.9984283447265625,-0.0671234130859375,0.021697998046875
1772789107882582000,16.08758203125,-0.996673583984375,-0.0721282958984375,0.02410888671875
1772789107902615000,16.107614990234374,-0.995849609375,-0.073577880859375,0.0283355712890625
1772789107922648000,16.12764794921875,-0.999847412109375,-0.0753326416015625,0.0333709716796875
1772789107942681000,16.14768115234375,-0.9998321533203125,-0.074005126953125,0.0360565185546875
1772789107962713900,16.1677138671875,-1,-0.07440185546875,0.0327911376953125
1772789107982747100,16.1877470703125,-1.002410888671875,-0.074005126953125,0.030364990234375
1772789108002780000,16.20777978515625,-1.0017547607421875,-0.07464599609375,0.02777099609375
1772789108022813200,16.227813232421877,-1.0014190673828125,-0.0749359130859375,0.0263519287109375
1772789108042846000,16.247845947265624,-1.0013275146484375,-0.0764923095703125,0.0250396728515625
1772789108062879000,16.26787890625,-0.998504638671875,-0.0776519775390625,0.0219268798828125
1772789108082912000,16.287912109375,-0.9937286376953125,-0.075225830078125,0.0225372314453125
1772789108102945000,16.307945068359373,-0.99224853515625,-0.072784423828125,0.0247344970703125
1772789108122978000,16.32797802734375,-0.987762451171875,-0.07098388671875,0.0221099853515625
1772789108143011000,16.348010986328124,-0.988922119140625,-0.07159423828125,0.0228271484375
1772789108163044000,16.368044189453126,-0.981597900390625,-0.0728912353515625,0.018646240234375
1772789108183077000,16.3880771484375,-0.9874267578125,-0.0727081298828125,0.0135040283203125
1772789108203112400,16.408112548828125,-0.984466552734375,-0.06842041015625,0.015533447265625
1772789108223145500,16.4281455078125,-0.9864501953125,-0.0641021728515625,0.012451171875
1772789108243178200,16.44817822265625,-0.9900054931640625,-0.0618743896484375,0.007843017578125
1772789108263211500,16.46821142578125,-0.9936370849609375,-0.0613861083984375,0.0035400390625
1772789108283244300,16.488244384765625,-0.991851806640625,-0.059661865234375,-0.0066680908203125
1772789108303277600,16.508277587890625,-0.9941558837890625,-0.0597076416015625,-0.0027008056640625
1772789108323310300,16.528310302734376,-0.9974517822265625,-0.067596435546875,0.008575439453125
1772789108343343400,16.54834326171875,-1.0029754638671875,-0.0798492431640625,0.012237548828125
1772789108363376400,16.56837646484375,-1.0030517578125,-0.09027099609375,0.0206756591796875
1772789108383409200,16.5884091796875,-1.006072998046875,-0.0898590087890625,0.0266571044921875
1772789108403442400,16.6084423828125,-1.0129852294921875,-0.08221435546875,0.039306640625
1772789108423475200,16.62847509765625,-1.0099029541015625,-0.0791015625,0.0447235107421875
1772789108443508500,16.648508544921874,-1.003021240234375,-0.0802459716796875,0.041168212890625
1772789108463541200,16.668541259765625,-1.0044403076171875,-0.0814361572265625,0.0454254150390625
1772789108483574300,16.68857421875,-1.0037841796875,-0.0803070068359375,0.041748046875
1772789108503607300,16.708607177734375,-0.9989471435546875,-0.077789306640625,0.0341339111328125
1772789108523640300,16.728640380859375,-0.9947967529296875,-0.0749359130859375,0.033172607421875
1772789108543673300,16.74867333984375,-0.9968719482421875,-0.067962646484375,0.025665283203125
1772789108563706400,16.768706298828125,-0.9916229248046875,-0.0644989013671875,0.02130126953125
1772789108583739400,16.788739501953124,-0.9929656982421875,-0.0655364990234375,0.0185089111328125
1772789108603772400,16.8087724609375,-0.9961090087890625,-0.0631866455078125,0.02142333984375
1772789108623805200,16.82880517578125,-0.9949951171875,-0.059539794921875,0.0208282470703125
1772789108643838500,16.84883837890625,-0.9977874755859375,-0.0657958984375,0.0193023681640625
1772789108663871200,16.868871337890624,-0.9947967529296875,-0.071563720703125,0.0242919921875
1772789108683904500,16.888904541015624,-0.991455078125,-0.0686798095703125,0.0221099853515625
1772789108703937300,16.908937255859374,-0.9951019287109375,-0.0662078857421875,0.028350830078125
1772789108723970300,16.92897021484375,-0.99853515625,-0.0717010498046875,0.0314178466796875
1772789108744003300,16.94900341796875,-0.998748779296875,-0.07379150390625,0.0261077880859375
1772789108764036400,16.969036376953124,-0.9965972900390625,-0.070465087890625,0.0284423828125
1772789108784069400,16.9890693359375,-0.9991607666015625,-0.0711212158203125,0.03131103515625
1772789108804102400,17.009102294921874,-1.0010528564453125,-0.074615478515625,0.0296478271484375
1772789108824135400,17.029135498046877,-0.999267578125,-0.073974609375,0.0291290283203125
1772789108844168400,17.04916845703125,-0.999755859375,-0.071533203125,0.0289764404296875
1772789108864201200,17.069201171875,-1.003082275390625,-0.0704803466796875,0.0361480712890625
1772789108884234500,17.089234375,-0.9944610595703125,-0.06683349609375,0.0294952392578125
1772789108904267300,17.109267333984373,-0.9966888427734375,-0.0622100830078125,0.0317230224609375
1772789108924300500,17.129300537109376,-1.0014801025390625,-0.0604095458984375,0.0321197509765625
1772789108944333300,17.149333251953124,-1.0051422119140625,-0.061309814453125,0.0304412841796875
1772789108964366300,17.169366455078126,-1.003570556640625,-0.0640869140625,0.0286865234375
1772789108984399400,17.1893994140625,-1.0017242431640625,-0.069061279296875,0.0266265869140625
1772789109004432400,17.209432373046877,-1.004058837890625,-0.0699310302734375,0.0266571044921875
1772789109024465400,17.22946533203125,-0.9987640380859375,-0.0684051513671875,0.028594970703125
1772789109044498400,17.24949853515625,-0.993804931640625,-0.064453125,0.0261383056640625
1772789109064531200,17.26953125,-0.992340087890625,-0.06536865234375,0.027252197265625
1772789109084564500,17.289564453125,-0.9953460693359375,-0.0675811767578125,0.02899169921875
1772789109104597200,17.30959716796875,-0.99261474609375,-0.0689239501953125,0.023712158203125
1772789109124630500,17.329630615234375,-0.99395751953125,-0.06658935546875,0.0215301513671875
1772789109144663300,17.349663330078126,-0.9970550537109375,-0.0626983642578125,0.02276611328125
1772789109164697300,17.369697265625,-1.00079345703125,-0.0619354248046875,0.0208587646484375
1772789109184730400,17.38973046875,-1.0029296875,-0.0606231689453125,0.0184478759765625
1772789109204763600,17.409763671875,-1.0023651123046875,-0.0598602294921875,0.0152130126953125
1772789109224796400,17.42979638671875,-1.0078125,-0.0618896484375,0.017669677734375
1772789109244829700,17.44982958984375,-1.0097808837890625,-0.0631103515625,0.0211334228515625
1772789109264862500,17.469862548828125,-0.9970703125,-0.066131591796875,0.0188446044921875
1772789109284895700,17.489895751953124,-1.000823974609375,-0.0697784423828125,0.0228729248046875
1772789109304928500,17.509928466796875,-1.0051116943359375,-0.0687408447265625,0.03118896484375
1772789109324961500,17.52996142578125,-0.997589111328125,-0.067108154296875,0.0334014892578125
1772789109344994600,17.54999462890625,-0.99420166015625,-0.0699462890625,0.035552978515625
1772789109365027600,17.570027587890625,-0.999298095703125,-0.0726165771484375,0.0369110107421875
1772789109385060600,17.590060546875,-1.002288818359375,-0.0713653564453125,0.0336456298828125
1772789109405093600,17.61009375,-0.9997406005859375,-0.0650787353515625,0.0348968505859375
1772789109425126700,17.630126708984374,-0.994842529296875,-0.0597076416015625,0.0368499755859375
1772789109445159700,17.65015966796875,-0.9969482421875,-0.0599517822265625,0.029449462890625
1772789109465192400,17.6701923828125,-0.9999847412109375,-0.064361572265625,0.0270843505859375
1772789109485225700,17.690225830078123,-0.99713134765625,-0.0653533935546875,0.027923583984375
1772789109505258500,17.710258544921874,-0.9935302734375,-0.06317138671875,0.0243072509765625
1772789109525291800,17.730291748046874,-0.9873199462890625,-0.06109619140625,0.02325439453125
1772789109545324500,17.750324462890624,-0.9944915771484375,-0.0612640380859375,0.023406982421875
1772789109565357600,17.770357666015624,-1.0016632080078125,-0.059326171875,0.02703857421875
1772789109585390600,17.790390625,-1.003082275390625,-0.059661865234375,0.0264434814453125
1772789109605423600,17.810423583984374,-0.9982147216796875,-0.0591583251953125,0.024749755859375
1772789109625456600,17.83045654296875,-1.00555419921875,-0.0601348876953125,0.0262451171875
1772789109645489700,17.85048974609375,-1.00531005859375,-0.0598602294921875,0.0325927734375
1772789109665522700,17.870522705078123,-0.9998779296875,-0.061614990234375,0.0335540771484375
1772789109685555700,17.8905556640625,-1.002227783203125,-0.067230224609375,0.0353240966796875
1772789109705588500,17.91058837890625,-1.00054931640625,-0.0709075927734375,0.037933349609375
1772789109725621800,17.930621826171876,-0.999481201171875,-0.0663909912109375,0.038360595703125
1772789109745654500,17.950654541015624,-0.9993133544921875,-0.064788818359375,0.0428466796875
1772789109765687600,17.9706875,-1.0025482177734375,-0.0654296875,0.04205322265625
1772789109785720600,17.990720458984374,-0.9988250732421875,-0.0677337646484375,0.0376739501953125
1772789109805753300,18.01075341796875,-1.001220703125,-0.067962646484375,0.035552978515625
1772789109825786600,18.03078662109375,-1.000213623046875,-0.066986083984375,0.0347442626953125
1772789109845819400,18.0508193359375,-1.000396728515625,-0.06610107421875,0.0324859619140625
1772789109865852700,18.070852783203126,-0.9968414306640625,-0.0670166015625,0.03399658203125
1772789109885885400,18.090885498046877,-1.0024261474609375,-0.06805419921875,0.0326080322265625
1772789109905918700,18.110918701171876,-1.0014190673828125,-0.0652008056640625,0.0338897705078125
1772789109925951500,18.130951416015623,-0.996490478515625,-0.06597900390625,0.03375244140625
1772789109945984500,18.150984619140626,-1.001068115234375,-0.06903076171875,0.0335845947265625
1772789109966017500,18.171017578125,-1.0102996826171875,-0.0701141357421875,0.033905029296875
1772789109986050600,18.191050537109376,-1.0072784423828125,-0.068634033203125,0.0308380126953125
1772789110006083600,18.21108349609375,-1.005035400390625,-0.06915283203125,0.031951904296875
1772789110026116600,18.23111669921875,-1.0094146728515625,-0.0736846923828125,0.033935546875
1772789110046149400,18.2511494140625,-1.0095062255859375,-0.078857421875,0.036590576171875
1772789110066182700,18.2711826171875,-0.99957275390625,-0.0758819580078125,0.0378570556640625
1772789110086215400,18.29121533203125,-0.9949798583984375,-0.07354736328125,0.038177490234375
1772789110106248700,18.311248779296875,-0.99090576171875,-0.0786590576171875,0.0403289794921875
1772789110126281500,18.331281494140626,-0.9855194091796875,-0.081146240234375,0.0370025634765625
1772789110146314500,18.351314453125,-0.9822235107421875,-0.0779571533203125,0.03369140625
1772789110166347500,18.371347412109376,-0.9875335693359375,-0.074951171875,0.0376129150390625
1772789110186380500,18.391380615234375,-0.990631103515625,-0.072601318359375,0.038970947265625
1772789110206413800,18.411413818359375,-0.989654541015625,-0.07025146484375,0.0383453369140625
1772789110226446800,18.43144677734375,-1.001556396484375,-0.0703125,0.0401763916015625
1772789110246480000,18.45147998046875,-1.0025634765625,-0.0777587890625,0.0352630615234375
1772789110266513000,18.471512939453124,-0.989227294921875,-0.0848388671875,0.0238494873046875
1772789110286545700,18.491545654296875,-0.990936279296875,-0.0896453857421875,0.0301666259765625
1772789110306579000,18.511578857421874,-1.0014495849609375,-0.0914154052734375,0.0366058349609375
1772789110326611700,18.53161181640625,-0.998077392578125,-0.0948028564453125,0.032745361328125
1772789110346645000,18.55164501953125,-0.9962310791015625,-0.094573974609375,0.032440185546875
1772789110366677800,18.571677734375,-0.9947967529296875,-0.0887603759765625,0.03466796875
1772789110386710800,18.591710693359374,-0.994842529296875,-0.0796966552734375,0.034210205078125
1772789110406743800,18.611743896484374,-0.993865966796875,-0.0794830322265625,0.036163330078125
1772789110426776800,18.63177685546875,-0.9890594482421875,-0.07855224609375,0.0347442626953125
1772789110446809900,18.651809814453124,-0.99444580078125,-0.083038330078125,0.030303955078125
1772789110466843000,18.6718427734375,-0.9951171875,-0.0897674560546875,0.026275634765625
1772789110486876700,18.691876708984374,-0.993682861328125,-0.0882110595703125,0.021575927734375
1772789110506910000,18.711909912109373,-0.98876953125,-0.08087158203125,0.0199432373046875
1772789110526942700,18.731942626953124,-0.9929962158203125,-0.076080322265625,0.0211181640625
1772789110546975700,18.751975830078123,-0.9956207275390625,-0.0763397216796875,0.024444580078125
1772789110567008800,18.7720087890625,-0.99169921875,-0.077850341796875,0.0200653076171875
1772789110587041800,18.792041748046874,-0.9936065673828125,-0.077423095703125,0.0216827392578125
1772789110607074800,18.81207470703125,-0.9951171875,-0.080474853515625,0.02117919921875
1772789110627107800,18.83210791015625,-0.9925384521484375,-0.0862274169921875,0.0194091796875
1772789110647140900,18.852140869140626,-0.9936981201171875,-0.0870208740234375,0.0167236328125
1772789110667174000,18.872173828125,-0.99591064453125,-0.084991455078125,0.0242156982421875
1772789110687206700,18.89220654296875,-0.9962921142578125,-0.0814361572265625,0.0286865234375
1772789110707240000,18.912239990234376,-1.0000152587890625,-0.0764617919921875,0.031402587890625
1772789110727272700,18.932272705078127,-1.0071563720703125,-0.0704803466796875,0.0363616943359375
1772789110747306000,18.952305908203126,-1.001922607421875,-0.0664520263671875,0.035797119140625
1772789110767338800,18.9723388671875,-1.001800537109375,-0.065277099609375,0.0310516357421875
1772789110787371800,18.992371826171876,-1.0073089599609375,-0.06634521484375,0.03302001953125
1772789110807404800,19.01240478515625,-1.0026702880859375,-0.0663299560546875,0.0316162109375
1772789110827437800,19.032437744140626,-1.000885009765625,-0.07147216796875,0.0279083251953125
1772789110847470800,19.052470947265626,-1.003692626953125,-0.0765380859375,0.0269622802734375
1772789110867503900,19.07250390625,-1.004608154296875,-0.07635498046875,0.0261688232421875
1772789110887536600,19.09253662109375,-1.00286865234375,-0.07269287109375,0.024139404296875
1772789110907570000,19.11256982421875,-1.0006256103515625,-0.072967529296875,0.02947998046875
1772789110927602700,19.132602783203126,-1.00592041015625,-0.0799560546875,0.031036376953125
1772789110947636000,19.152635986328125,-1.001861572265625,-0.082794189453125,0.027130126953125
1772789110967668700,19.172668701171876,-1.0026702880859375,-0.0750885009765625,0.025238037109375
1772789110987702000,19.192701904296875,-1.0007781982421875,-0.0666656494140625,0.0306854248046875
1772789111007734800,19.21273486328125,-0.991851806640625,-0.063323974609375,0.030609130859375
1772789111027767800,19.232767822265625,-0.9921417236328125,-0.0690460205078125,0.0261383056640625
1772789111047800800,19.25280078125,-0.9951934814453125,-0.07177734375,0.02105712890625
1772789111067833900,19.272833740234375,-0.996063232421875,-0.0691070556640625,0.020538330078125
1772789111087867000,19.292866943359375,-0.9932403564453125,-0.0653839111328125,0.01788330078125
1772789111107900000,19.31289990234375,-1.0005950927734375,-0.064849853515625,0.0213470458984375
1772789111127932700,19.3329326171875,-0.995208740234375,-0.067626953125,0.021728515625
1772789111147966000,19.352966064453124,-0.997314453125,-0.07281494140625,0.01995849609375
1772789111167998700,19.372998779296875,-0.9996185302734375,-0.0780029296875,0.0267181396484375
1772789111188032000,19.393031982421874,-0.9946136474609375,-0.0792388916015625,0.0274200439453125
1772789111208064500,19.413064453125,-0.999176025390625,-0.075653076171875,0.03070068359375
1772789111228097800,19.433097900390624,-0.9984130859375,-0.0729522705078125,0.03631591796875
1772789111248130600,19.453130615234375,-1.002197265625,-0.072845458984375,0.0316009521484375
1772789111268163600,19.47316357421875,-0.993743896484375,-0.0687408447265625,0.02960205078125
1772789111288196600,19.493196533203125,-0.99029541015625,-0.0653228759765625,0.0294036865234375
1772789111308229600,19.513229736328125,-1.0024566650390625,-0.0675506591796875,0.0250396728515625
1772789111328262700,19.5332626953125,-0.9996185302734375,-0.0689544677734375,0.024932861328125
1772789111348295700,19.553295654296875,-0.992340087890625,-0.0645904541015625,0.0167388916015625
1772789111368328400,19.573328369140626,-0.994598388671875,-0.0619049072265625,0.0164794921875
1772789111388361700,19.59336181640625,-1.0015716552734375,-0.0606689453125,0.0210418701171875
1772789111408394500,19.61339453125,-0.9990386962890625,-0.064697265625,0.022125244140625
1772789111428427800,19.633427734375,-0.9987335205078125,-0.067962646484375,0.0249786376953125
1772789111448460500,19.65346044921875,-0.9981231689453125,-0.069580078125,0.0275421142578125
1772789111468493800,19.673493896484374,-1.000152587890625,-0.0687255859375,0.0281524658203125
1772789111488527600,19.693527587890625,-1.000213623046875,-0.0681915283203125,0.0290069580078125
1772789111508559600,19.7135595703125,-0.9991302490234375,-0.063629150390625,0.027313232421875
1772789111528593700,19.73359375,-0.9977874755859375,-0.0636138916015625,0.0285491943359375
1772789111548626700,19.753626708984374,-1.0032501220703125,-0.072296142578125,0.025909423828125
1772789111568659500,19.773659423828125,-1.004425048828125,-0.07989501953125,0.0230865478515625
1772789111588692700,19.793692626953124,-0.999114990234375,-0.079498291015625,0.020477294921875
1772789111608725500,19.8137255859375,-0.99859619140625,-0.074737548828125,0.0174713134765625
1772789111628758800,19.8337587890625,-1.0016632080078125,-0.0723419189453125,0.01812744140625
1772789111648791600,19.85379150390625,-0.9994354248046875,-0.0723419189453125,0.0157470703125
1772789111668824600,19.873824462890624,-0.99871826171875,-0.070281982421875,0.013519287109375
1772789111688857600,19.893857666015624,-1.001068115234375,-0.065032958984375,0.0164031982421875
1772789111708890600,19.913890625,-1.000579833984375,-0.065460205078125,0.0162811279296875
1772789111728923600,19.933923583984374,-1.005157470703125,-0.069091796875,0.0115509033203125
1772789111748956700,19.953956787109377,-1.00042724609375,-0.0664825439453125,0.0124969482421875
1772789111768989400,19.973989501953124,-0.9981689453125,-0.066864013671875,0.0138092041015625
1772789111789022700,19.994022705078127,-0.99560546875,-0.071533203125,0.01513671875
1772789111809053700,20.0140537109375,-1.0011749267578125,-0.078155517578125,0.0141754150390625
1772789111829086500,20.03408642578125,-0.9949493408203125,-0.07861328125,0.015045166015625
1772789111849119700,20.05411962890625,-0.995635986328125,-0.0732879638671875,0.0210418701171875
1772789111869152500,20.074152587890627,-0.990234375,-0.0756683349609375,0.02130126953125
1772789111889185800,20.094185791015626,-0.9901123046875,-0.0805511474609375,0.0143890380859375
1772789111909218600,20.114218505859377,-0.9965972900390625,-0.0800933837890625,0.018280029296875
1772789111929251600,20.13425146484375,-0.9972991943359375,-0.07781982421875,0.0215301513671875
1772789111949284600,20.15428466796875,-0.9956817626953125,-0.0774993896484375,0.0150299072265625
1772789111969317600,20.174317626953126,-0.99310302734375,-0.0772857666015625,0.0096893310546875
1772789111989350700,20.1943505859375,-0.998748779296875,-0.0738067626953125,0.0078887939453125
1772789112009383700,20.2143837890625,-1.000885009765625,-0.07232666015625,0.0086822509765625
1772789112029416400,20.23441650390625,-1.0002593994140625,-0.076385498046875,0.0055389404296875
1772789112049449700,20.25444970703125,-1.00286865234375,-0.0771636962890625,0.006072998046875
1772789112069482500,20.274482421875,-1.0027618408203125,-0.0727386474609375,0.0094146728515625
1772789112089515800,20.294515869140625,-0.9999237060546875,-0.0689849853515625,0.0095062255859375
1772789112109548500,20.314548583984376,-0.997802734375,-0.0710296630859375,0.008758544921875
1772789112129581600,20.33458154296875,-0.99774169921875,-0.074310302734375,0.006195068359375
1772789112149614600,20.354614501953126,-0.9968414306640625,-0.07293701171875,0.0112762451171875
1772789112169647600,20.374647705078125,-0.99462890625,-0.067291259765625,0.0151214599609375
1772789112189682700,20.3946826171875,-0.996917724609375,-0.062591552734375,0.0189208984375
1772789112209715000,20.41471484375,-0.9918060302734375,-0.0611114501953125,0.020172119140625
1772789112229748000,20.434748046875,-0.9886932373046875,-0.0628814697265625,0.0170135498046875
1772789112249781000,20.454781005859374,-0.9921875,-0.0653533935546875,0.0182647705078125
1772789112269814000,20.47481396484375,-0.9927978515625,-0.0672454833984375,0.0236053466796875
1772789112289846800,20.4948466796875,-0.9896087646484375,-0.0673675537109375,0.0240020751953125
1772789112309880000,20.514880126953123,-0.9901580810546875,-0.070526123046875,0.030242919921875
1772789112329912800,20.534912841796874,-0.99365234375,-0.076141357421875,0.031097412109375
1772789112349946000,20.554946044921873,-1.00018310546875,-0.0798797607421875,0.0333099365234375
1772789112369980000,20.57497998046875,-1.00347900390625,-0.080474853515625,0.0367279052734375
1772789112390013000,20.595012939453124,-1.003387451171875,-0.075714111328125,0.038330078125
1772789112410046000,20.6150458984375,-1.010986328125,-0.074615478515625,0.0317840576171875
1772789112430079000,20.635078857421874,-1.01544189453125,-0.078765869140625,0.021942138671875
1772789112450111700,20.65511181640625,-1.01788330078125,-0.0746307373046875,0.0146026611328125
1772789112470145000,20.67514501953125,-1.0137481689453125,-0.0645294189453125,0.0095062255859375
1772789112490177800,20.695177734375,-1.0154571533203125,-0.0579833984375,0.007110595703125
1772789112510211000,20.715211181640626,-1.013580322265625,-0.057464599609375,0.00469970703125
1772789112530243800,20.735243896484373,-1.0116119384765625,-0.0607757568359375,0.0009918212890625
1772789112550277000,20.755277099609376,-0.9990997314453125,-0.063812255859375,0.0001983642578125
1772789112570310000,20.775309814453124,-0.9925079345703125,-0.0605621337890625,-0.0001068115234375
1772789112590343000,20.795343017578126,-0.9858245849609375,-0.0556640625,0.007659912109375
1772789112610376000,20.8153759765625,-0.98126220703125,-0.054931640625,0.0119171142578125
1772789112630409000,20.835408935546877,-0.9862518310546875,-0.0622100830078125,0.0128021240234375
1772789112650442000,20.85544189453125,-0.989471435546875,-0.0637969970703125,0.015869140625
1772789112670475000,20.87547509765625,-0.9846649169921875,-0.059234619140625,0.017608642578125
1772789112690507800,20.8955078125,-0.98724365234375,-0.0579071044921875,0.0178985595703125
1772789112710541000,20.915541015625,-0.9943084716796875,-0.06414794921875,0.020416259765625
1772789112730573800,20.93557373046875,-1.00213623046875,-0.06805419921875,0.0183563232421875
1772789112750607000,20.955607177734375,-1.000152587890625,-0.0706329345703125,0.0194091796875
1772789112770640000,20.975639892578126,-1.0001373291015625,-0.0701446533203125,0.0180511474609375
1772789112790673000,20.9956728515625,-1.0087738037109375,-0.066650390625,0.019378662109375
1772789112810706000,21.015705810546876,-1.0163726806640625,-0.0615386962890625,0.02655029296875
1772789112830739000,21.035739013671876,-1.007568359375,-0.0635223388671875,0.026824951171875
1772789112850772000,21.05577197265625,-1.0120697021484375,-0.0693359375,0.0195465087890625
1772789112870805000,21.075804931640626,-1.0098419189453125,-0.0736846923828125,0.01434326171875
1772789112890838000,21.095838134765625,-1.0020904541015625,-0.07232666015625,0.0254974365234375
1772789112910871000,21.11587109375,-1.002532958984375,-0.0682373046875,0.035858154296875
1772789112930903800,21.13590380859375,-1.0025482177734375,-0.069091796875,0.02655029296875
1772789112950937000,21.15593701171875,-1.0030059814453125,-0.076141357421875,0.0229949951171875
1772789112970969900,21.175969970703125,-0.9996490478515625,-0.07989501953125,0.0261688232421875
1772789112991003100,21.196003173828124,-0.9996337890625,-0.0779571533203125,0.02215576171875
1772789113011036000,21.216035888671875,-0.9998321533203125,-0.0756378173828125,0.02276611328125
1772789113031069000,21.23606884765625,-0.9922027587890625,-0.07464599609375,0.022186279296875
1772789113051102000,21.25610205078125,-0.994720458984375,-0.074462890625,0.0157623291015625
1772789113071135000,21.276135009765625,-1.003814697265625,-0.0769500732421875,0.0160675048828125
1772789113091168000,21.29616796875,-0.997711181640625,-0.077972412109375,0.0141143798828125
1772789113111202000,21.3162021484375,-0.99200439453125,-0.077117919921875,0.011810302734375
1772789113131234800,21.33623486328125,-0.9945220947265625,-0.0733795166015625,0.0156097412109375
1772789113151268000,21.35626806640625,-0.998382568359375,-0.0758209228515625,0.020721435546875
1772789113171300900,21.37630078125,-0.996002197265625,-0.0797271728515625,0.0240325927734375
1772789113191334000,21.396333984375,-0.990264892578125,-0.0747528076171875,0.0245208740234375
1772789113211367200,21.4163671875,-0.9920501708984375,-0.073211669921875,0.0278472900390625
1772789113231400200,21.436400146484374,-0.99090576171875,-0.0809783935546875,0.021392822265625
1772789113251433200,21.45643310546875,-0.9937744140625,-0.0868988037109375,0.0204925537109375
1772789113271466200,21.47646630859375,-0.9992218017578125,-0.080291748046875,0.024566650390625
1772789113291499300,21.496499267578123,-1.004119873046875,-0.0711822509765625,0.0272674560546875
1772789113311532300,21.5165322265625,-1.0049285888671875,-0.0708160400390625,0.028564453125
1772789113331565000,21.53656494140625,-1.001007080078125,-0.0770263671875,0.0255126953125
1772789113351598300,21.556598388671876,-0.99737548828125,-0.0832366943359375,0.0277557373046875
1772789113371631000,21.576631103515624,-0.9966888427734375,-0.086944580078125,0.0301361083984375
1772789113391664400,21.596664306640626,-0.99444580078125,-0.0869293212890625,0.035858154296875
1772789113411697200,21.616697265625,-0.989837646484375,-0.0843353271484375,0.0411834716796875
1772789113431730200,21.636730224609376,-0.9918670654296875,-0.0860137939453125,0.0423126220703125
1772789113451763200,21.65676318359375,-0.995086669921875,-0.09173583984375,0.042083740234375
1772789113471796200,21.676796142578127,-0.99749755859375,-0.090576171875,0.04034423828125
1772789113491829200,21.696829345703126,-1.0008544921875,-0.0866241455078125,0.039703369140625
1772789113511862300,21.7168623046875,-0.9990997314453125,-0.082733154296875,0.0369720458984375
1772789113531895000,21.73689501953125,-1.0012969970703125,-0.08575439453125,0.029571533203125
1772789113551928300,21.75692822265625,-1.0026397705078125,-0.08709716796875,0.0274505615234375
1772789113571961000,21.776961181640626,-1.0010528564453125,-0.0847625732421875,0.0297393798828125
1772789113591994400,21.796994384765625,-1.00054931640625,-0.0801544189453125,0.0323028564453125
1772789113612027100,21.817027099609376,-0.9967803955078125,-0.079498291015625,0.0310516357421875
1772789113632060400,21.837060302734375,-0.9950103759765625,-0.080169677734375,0.031982421875
1772789113652093200,21.85709326171875,-0.9943695068359375,-0.08038330078125,0.0311279296875
1772789113672126200,21.877126220703126,-0.9951629638671875,-0.0789794921875,0.032684326171875
1772789113692159200,21.8971591796875,-0.9913482666015625,-0.0807647705078125,0.0295257568359375
1772789113712192300,21.917192138671876,-0.990875244140625,-0.0805511474609375,0.028106689453125
1772789113732225300,21.937225341796875,-0.9875030517578125,-0.081512451171875,0.0295562744140625
1772789113752258300,21.95725830078125,-0.99761962890625,-0.0838623046875,0.0315704345703125
1772789113772291000,21.977291015625,-0.9986724853515625,-0.0817718505859375,0.03277587890625
1772789113792324400,21.997324462890624,-0.9931793212890625,-0.077728271484375,0.035675048828125
1772789113812357000,22.017357177734375,-0.9948577880859375,-0.0785064697265625,0.036712646484375
1772789113832390400,22.037390380859375,-1.00341796875,-0.0854034423828125,0.036834716796875
1772789113852423200,22.057423095703125,-0.9971771240234375,-0.0880889892578125,0.036956787109375
1772789113872456200,22.077456298828125,-0.9923553466796875,-0.085540771484375,0.0386962890625
1772789113892489200,22.0974892578125,-1.0032806396484375,-0.08258056640625,0.04217529296875
1772789113912522200,22.117522216796875,-1.0099334716796875,-0.0769195556640625,0.044189453125
1772789113932555300,22.13755517578125,-1.0031585693359375,-0.0736236572265625,0.0424957275390625
1772789113952589300,22.15758935546875,-0.99609375,-0.0785675048828125,0.0380859375
1772789113972622000,22.1776220703125,-1.0037689208984375,-0.0882720947265625,0.0340576171875
1772789113992655400,22.1976552734375,-0.9988555908203125,-0.0919342041015625,0.03338623046875
1772789114012688100,22.217688232421875,-0.9918365478515625,-0.088897705078125,0.03167724609375
1772789114032721400,22.237721435546874,-0.994659423828125,-0.0836944580078125,0.034576416015625
1772789114052754200,22.257754150390625,-0.9967498779296875,-0.08282470703125,0.033294677734375
1772789114072787200,22.277787109375,-0.99432373046875,-0.082855224609375,0.0349273681640625
1772789114092820200,22.2978203125,-0.99151611328125,-0.08447265625,0.0343780517578125
1772789114112853200,22.317853271484374,-0.9928436279296875,-0.090118408203125,0.0303955078125
1772789114132886300,22.33788623046875,-0.9999847412109375,-0.0908660888671875,0.0303192138671875
1772789114152919300,22.357919189453124,-0.991180419921875,-0.0849761962890625,0.0326995849609375
1772789114172952000,22.3779521484375,-0.9931640625,-0.0828399658203125,0.0301971435546875
1772789114192985300,22.3979853515625,-0.99609375,-0.0892486572265625,0.0324859619140625
1772789114213018600,22.4180185546875,-0.996917724609375,-0.0895843505859375,0.0323028564453125
1772789114233051600,22.4380517578125,-0.9940948486328125,-0.08709716796875,0.03680419921875
1772789114253084700,22.458084716796876,-0.98876953125,-0.0882415771484375,0.04217529296875
1772789114273117400,22.478117431640626,-0.9963226318359375,-0.09283447265625,0.042877197265625
1772789114293150700,22.498150634765626,-0.9965362548828125,-0.094635009765625,0.0413665771484375
1772789114313183500,22.51818359375,-0.998565673828125,-0.0908660888671875,0.0429534912109375
1772789114333216800,22.538216796875,-0.9987945556640625,-0.086151123046875,0.0458984375
1772789114353249500,22.55824951171875,-0.995208740234375,-0.082672119140625,0.04278564453125
1772789114373282600,22.578282470703126,-0.99334716796875,-0.0868377685546875,0.042327880859375
1772789114393315600,22.598315673828125,-0.996368408203125,-0.093505859375,0.0424041748046875
1772789114413348600,22.6183486328125,-0.992889404296875,-0.0912628173828125,0.0413665771484375
1772789114433381600,22.638381591796875,-0.993865966796875,-0.08831787109375,0.0475921630859375
1772789114453414700,22.65841455078125,-0.9932861328125,-0.0876007080078125,0.0480194091796875
1772789114473447700,22.67844775390625,-0.997894287109375,-0.0858306884765625,0.050537109375
1772789114493480700,22.698480712890625,-0.997100830078125,-0.0851287841796875,0.054290771484375
1772789114513513500,22.718513427734376,-0.99798583984375,-0.0853729248046875,0.0563812255859375
1772789114533546800,22.738546630859375,-0.997833251953125,-0.0874176025390625,0.05889892578125
1772789114553579500,22.75857958984375,-1.0009613037109375,-0.0910186767578125,0.0598907470703125
1772789114573612800,22.77861279296875,-0.9948577880859375,-0.09466552734375,0.05572509765625
1772789114593645600,22.7986455078125,-0.995452880859375,-0.09686279296875,0.0583343505859375
1772789114613678600,22.8186787109375,-0.996795654296875,-0.0992431640625,0.0588531494140625
1772789114633711600,22.838711669921874,-0.99456787109375,-0.097991943359375,0.0522308349609375
1772789114653744600,22.85874462890625,-0.9935455322265625,-0.0956268310546875,0.049591064453125
1772789114673778400,22.8787783203125,-0.9921112060546875,-0.0897064208984375,0.0504913330078125
1772789114693811700,22.898811767578124,-0.9991607666015625,-0.085052490234375,0.04803466796875
1772789114713844500,22.918844482421875,-0.996490478515625,-0.083648681640625,0.04400634765625
1772789114733877800,22.938877685546874,-0.99859619140625,-0.082275390625,0.039398193359375
1772789114753910500,22.95891064453125,-0.9987030029296875,-0.08050537109375,0.0388946533203125
1772789114773943600,22.978943603515624,-1.0006256103515625,-0.082305908203125,0.0412750244140625
1772789114793976600,22.9989765625,-0.999176025390625,-0.089080810546875,0.0401153564453125
1772789114814009600,23.019009521484374,-0.995880126953125,-0.0935211181640625,0.04058837890625
1772789114834042600,23.039042724609374,-0.996673583984375,-0.0943756103515625,0.0468597412109375
1772789114854075600,23.05907568359375,-0.9925079345703125,-0.0919189453125,0.0545654296875
1772789114874108700,23.079108642578124,-0.9906463623046875,-0.09368896484375,0.05316162109375
1772789114894141700,23.0991416015625,-0.9895477294921875,-0.0943145751953125,0.0516510009765625
1772789114914174500,23.119174560546874,-0.99188232421875,-0.0931396484375,0.0492706298828125
1772789114934207700,23.139207763671877,-0.99664306640625,-0.090911865234375,0.05230712890625
1772789114954240500,23.159240478515624,-0.996917724609375,-0.09185791015625,0.0477294921875
1772789114974273800,23.179273681640623,-0.9957427978515625,-0.0915985107421875,0.0409393310546875
1772789114994306600,23.199306640625,-0.9990692138671875,-0.0930938720703125,0.0395355224609375
1772789115014339600,23.219339599609373,-1.000152587890625,-0.095062255859375,0.037109375
1772789115034372600,23.23937255859375,-0.9964447021484375,-0.0926513671875,0.03131103515625
1772789115054405600,23.259405517578124,-0.990020751953125,-0.089324951171875,0.0286102294921875
1772789115074438700,23.279438720703126,-0.9942474365234375,-0.0858154296875,0.0293121337890625
1772789115094471700,23.2994716796875,-0.9947662353515625,-0.0844573974609375,0.02886962890625
1772789115114504400,23.31950439453125,-0.9915313720703125,-0.08721923828125,0.02301025390625
1772789115134537700,23.339537841796876,-0.9905853271484375,-0.091522216796875,0.01861572265625
1772789115154570500,23.359570556640627,-0.9979248046875,-0.0875244140625,0.0200042724609375
1772789115174603800,23.379603759765626,-1.000152587890625,-0.0831146240234375,0.02606201171875
1772789115194636500,23.399636474609373,-0.995819091796875,-0.0820159912109375,0.0235137939453125
1772789115214669300,23.41966943359375,-0.998626708984375,-0.0856781005859375,0.021331787109375
1772789115234702300,23.439702392578123,-1.000762939453125,-0.0903167724609375,0.0220489501953125
1772789115254735000,23.459735107421874,-0.9964599609375,-0.08612060546875,0.0270233154296875
1772789115274768400,23.479768310546874,-0.991424560546875,-0.0840301513671875,0.0320587158203125
1772789115294801200,23.49980126953125,-0.9904327392578125,-0.0890350341796875,0.0329437255859375
1772789115314834400,23.51983447265625,-0.9926300048828125,-0.0933380126953125,0.0290679931640625
1772789115334867200,23.5398671875,-0.996002197265625,-0.093048095703125,0.0323486328125
1772789115354900500,23.559900390625,-0.9995269775390625,-0.0893707275390625,0.0343780517578125
1772789115374933200,23.579933349609377,-1.002105712890625,-0.0861968994140625,0.03533935546875
1772789115394967300,23.59996728515625,-1.0065460205078125,-0.0836334228515625,0.03289794921875
1772789115415000300,23.620000244140623,-1.0028076171875,-0.0843048095703125,0.0337066650390625
1772789115435033300,23.640033447265626,-0.9997711181640625,-0.0876922607421875,0.0294647216796875
1772789115455066400,23.66006640625,-0.9948577880859375,-0.0885772705078125,0.0263824462890625
1772789115475099400,23.680099365234376,-1.0002593994140625,-0.0848541259765625,0.0303497314453125
1772789115495132400,23.70013232421875,-0.9978790283203125,-0.0858001708984375,0.0328826904296875
1772789115515165400,23.72016552734375,-0.9875030517578125,-0.0882568359375,0.026336669921875
1772789115535198500,23.740198486328126,-0.9954071044921875,-0.092254638671875,0.0242462158203125
1772789115555231200,23.760231201171877,-1.0000762939453125,-0.0902557373046875,0.02874755859375
1772789115575264300,23.78026416015625,-0.999908447265625,-0.0867919921875,0.023468017578125
1772789115595297300,23.80029736328125,-0.997222900390625,-0.0820159912109375,0.021148681640625
1772789115615330300,23.820330322265626,-0.993255615234375,-0.0780181884765625,0.0187225341796875
1772789115635363300,23.84036328125,-1.0007781982421875,-0.0793304443359375,0.0220184326171875
1772789115655396000,23.86039599609375,-0.999725341796875,-0.0855255126953125,0.0213623046875
1772789115675429400,23.880429443359375,-0.9969024658203125,-0.086151123046875,0.0174560546875
1772789115695462100,23.900462158203126,-0.9892120361328125,-0.0773773193359375,0.01953125
1772789115715495400,23.920495361328125,-0.9922943115234375,-0.0729217529296875,0.023101806640625
1772789115735528200,23.940528076171876,-0.9943084716796875,-0.0756683349609375,0.0244293212890625
1772789115755561500,23.9605615234375,-0.992156982421875,-0.0790252685546875,0.0212554931640625
1772789115775594200,23.98059423828125,-0.9937896728515625,-0.0780029296875,0.02288818359375
1772789115795627300,24.000627197265626,-0.993804931640625,-0.077239990234375,0.0294952392578125
1772789115815658200,24.020658203125,-0.99835205078125,-0.0764923095703125,0.0304412841796875
1772789115835691300,24.040691162109376,-1.00262451171875,-0.07421875,0.0322113037109375
1772789115855724300,24.060724365234375,-0.9991455078125,-0.0776824951171875,0.0330963134765625
1772789115875757300,24.08075732421875,-0.9997100830078125,-0.0890350341796875,0.03082275390625
1772789115895790300,24.100790283203125,-1.0047607421875,-0.09539794921875,0.0290985107421875
1772789115915823000,24.120822998046876,-1.004638671875,-0.088592529296875,0.0273590087890625
1772789115935856400,24.1408564453125,-0.9991607666015625,-0.0789794921875,0.0261688232421875
1772789115955889200,24.16088916015625,-1.004058837890625,-0.073577880859375,0.0231170654296875
1772789115975922400,24.18092236328125,-1.0049591064453125,-0.0747528076171875,0.0176544189453125
1772789115995955200,24.200955078125,-1.008270263671875,-0.077545166015625,0.0114593505859375
1772789116015988200,24.22098828125,-1.004425048828125,-0.078277587890625,0.0115509033203125
1772789116036021200,24.241021240234375,-1.0051727294921875,-0.07220458984375,0.0091094970703125
1772789116056054300,24.26105419921875,-0.9999542236328125,-0.0647735595703125,0.012939453125
1772789116076087300,24.28108740234375,-0.997772216796875,-0.065460205078125,0.0158233642578125
1772789116096120300,24.301120361328124,-0.9963836669921875,-0.0700836181640625,0.014617919921875
1772789116116153300,24.3211533203125,-0.9921722412109375,-0.068939208984375,0.018829345703125
1772789116136186400,24.341186279296874,-0.9924163818359375,-0.0662841796875,0.026641845703125
1772789116156220400,24.361220458984373,-0.995758056640625,-0.069122314453125,0.0293121337890625
1772789116176252400,24.38125244140625,-0.9986572265625,-0.077178955078125,0.026763916015625
1772789116196289300,24.401289306640624,-0.9933929443359375,-0.0788116455078125,0.02264404296875
1772789116216322000,24.421322021484375,-0.99658203125,-0.0722198486328125,0.0234375
1772789116236355000,24.44135498046875,-1.001983642578125,-0.0660400390625,0.0263214111328125
1772789116256387800,24.461387939453125,-1.0017852783203125,-0.063262939453125,0.021636962890625
1772789116276421000,24.481421142578125,-1.0020599365234375,-0.061676025390625,0.0173492431640625
1772789116296454000,24.501453857421875,-1.0046539306640625,-0.0640716552734375,0.019439697265625
1772789116316487200,24.521487060546875,-1.0058441162109375,-0.065216064453125,0.0189971923828125
1772789116336520000,24.54152001953125,-0.997314453125,-0.0655517578125,0.0226593017578125
1772789116356553000,24.561552978515625,-0.9953765869140625,-0.06573486328125,0.0225372314453125
1772789116376586000,24.5815859375,-0.997467041015625,-0.070159912109375,0.0260467529296875
1772789116396618800,24.60161865234375,-0.9965057373046875,-0.075653076171875,0.0254058837890625
1772789116416652000,24.621652099609374,-0.9969329833984375,-0.0738372802734375,0.0267181396484375
1772789116436684800,24.641684814453125,-0.9952545166015625,-0.067596435546875,0.026702880859375
1772789116456718000,24.661718017578124,-0.9943389892578125,-0.0666961669921875,0.0227203369140625
1772789116476750800,24.681750732421875,-0.999114990234375,-0.0691680908203125,0.0223236083984375
1772789116496784000,24.701783935546874,-1.004547119140625,-0.0708770751953125,0.0197296142578125
1772789116516817000,24.72181689453125,-1.004058837890625,-0.068511962890625,0.0140533447265625
1772789116536850000,24.741849853515625,-1.0068817138671875,-0.0684356689453125,0.0132293701171875
1772789116556883000,24.761883056640624,-1.0091400146484375,-0.069488525390625,0.018035888671875
1772789116576916000,24.781916015625,-1.0101776123046875,-0.0713043212890625,0.0265960693359375
1772789116596948700,24.80194873046875,-1.00201416015625,-0.06781005859375,0.023406982421875
1772789116616982000,24.82198193359375,-1.0052642822265625,-0.07232666015625,0.017547607421875
1772789116637014800,24.842014892578124,-1.0074615478515625,-0.0751190185546875,0.0197601318359375
1772789116657048000,24.862048095703123,-1.004730224609375,-0.0677032470703125,0.0167388916015625
1772789116677082000,24.88208203125,-1.000579833984375,-0.0610809326171875,0.0142364501953125
1772789116697115000,24.902114990234374,-0.9986114501953125,-0.06024169921875,0.012603759765625
1772789116717148200,24.922148193359376,-1.001861572265625,-0.062896728515625,0.0066375732421875
1772789116737181000,24.942180908203124,-0.993560791015625,-0.06817626953125,0.0028533935546875
1772789116757214000,24.9622138671875,-0.988739013671875,-0.073455810546875,-0.0012969970703125
1772789116777247000,24.9822470703125,-0.982391357421875,-0.0725860595703125,0.0055694580078125
1772789116797280000,25.002280029296877,-0.986083984375,-0.071075439453125,0.0120849609375
1772789116817313000,25.02231298828125,-0.9881744384765625,-0.074615478515625,0.0147552490234375
1772789116837345800,25.042345703125,-0.9881744384765625,-0.07965087890625,0.0122222900390625
1772789116857379000,25.062379150390626,-0.9949188232421875,-0.0735931396484375,0.0135345458984375
1772789116877411800,25.082411865234373,-0.9904632568359375,-0.06658935546875,0.017547607421875
1772789116897444900,25.10244482421875,-0.9844207763671875,-0.07232666015625,0.01324462890625
1772789116917478000,25.122477783203124,-0.999725341796875,-0.0792083740234375,0.0068511962890625
1772789116937511000,25.142510986328126,-1.0030517578125,-0.0789794921875,0.010345458984375
1772789116957544000,25.1625439453125,-1.0010986328125,-0.073028564453125,0.0091094970703125
1772789116977577000,25.182576904296877,-1.007476806640625,-0.0710296630859375,0.00823974609375
1772789116997609700,25.202609619140624,-1.008819580078125,-0.0719757080078125,0.0069427490234375
1772789117017643000,25.22264306640625,-1.006744384765625,-0.0762176513671875,0.0069732666015625
1772789117037675800,25.24267578125,-1.0042266845703125,-0.079345703125,0.0091552734375
1772789117057709000,25.262708984375,-1.0008087158203125,-0.0786285400390625,0.0016326904296875
1772789117077741800,25.282741943359376,-0.99456787109375,-0.0738067626953125,0.000396728515625
1772789117097775000,25.302775146484375,-0.994903564453125,-0.0728912353515625,-0.00030517578125
1772789117117807900,25.322807861328126,-0.9966888427734375,-0.0718231201171875,0.0017852783203125
1772789117137841000,25.3428408203125,-1.0023040771484375,-0.0701904296875,0.001739501953125
1772789117157874000,25.3628740234375,-0.995269775390625,-0.0700836181640625,-0.0008544921875
1772789117177907000,25.382906982421876,-0.9947509765625,-0.0702056884765625,-0.001983642578125
1772789117197940000,25.40293994140625,-0.9990234375,-0.0635223388671875,0.002960205078125
1772789117217972700,25.42297265625,-0.9994659423828125,-0.0600738525390625,0.0053558349609375
1772789117238005800,25.443005859375,-0.992645263671875,-0.0635986328125,0.00634765625
1772789117258038800,25.463038818359376,-0.9898681640625,-0.0687408447265625,0.0053863525390625
1772789117278071800,25.48307177734375,-0.9949951171875,-0.0683135986328125,0.0060577392578125
1772789117298104800,25.503104736328126,-0.9965972900390625,-0.0635223388671875,0.0082550048828125
1772789117318137900,25.523137939453125,-0.997589111328125,-0.064544677734375,0.005767822265625
1772789117338171000,25.5431708984375,-1.0009918212890625,-0.0723724365234375,-0.00042724609375
1772789117358205000,25.563204833984376,-1.0047149658203125,-0.0714569091796875,-0.002899169921875
1772789117378238000,25.583238037109375,-1.00579833984375,-0.0648651123046875,0.0016326904296875
1772789117398270700,25.603270751953126,-1.0095367431640625,-0.0643310546875,0.00408935546875
1772789117418304000,25.623303955078125,-1.00933837890625,-0.06866455078125,0.0012969970703125
1772789117438336800,25.643336669921876,-1.0008087158203125,-0.065948486328125,0.003204345703125
1772789117458370000,25.6633701171875,-1.001220703125,-0.06170654296875,0.005645751953125
1772789117478402800,25.68340283203125,-1.0058746337890625,-0.06256103515625,0.0084075927734375
1772789117498436000,25.70343603515625,-1.0020294189453125,-0.06878662109375,0.00946044921875
