time,seconds_elapsed,z,y,x
1772790319530282000,0.082281982421875,-0.024806439876556396,-0.44532325863838196,-0.43678125739097595
1772790319550316000,0.10231591796875,0.09895160794258118,-0.22234949469566345,-0.21446681022644043
1772790319570350000,0.12235009765625,0.18102847039699554,0.056185800582170486,0.15910287201404572
1772790319590384000,0.142384033203125,0.18339814245700836,0.18136969208717346,0.4400929808616638
1772790319610418200,0.162418212890625,0.19071173667907715,0.19829870760440826,0.42580872774124146
1772790319630452200,0.1824521484375,0.22246219217777252,0.15980486571788788,0.22573089599609375
1772790319650486000,0.202486083984375,0.2770203948020935,0.1503084897994995,0.17532579600811005
1772790319670520000,0.22252001953125,0.35683509707450867,0.2679747939109802,0.22428512573242188
1772790319690554000,0.24255419921875,0.47440478205680847,0.3911833167076111,0.20749473571777344
1772790319710589200,0.262589111328125,0.5565791130065918,0.4884873330593109,0.11958467215299606
1772790319730623000,0.282623046875,0.5976265072822571,0.5799224972724915,0.029170872643589973
1772790319750657800,0.30265771484375,0.6301867365837097,0.6878221035003662,0.016390563920140266
1772790319770691800,0.32269189453125,0.6282514929771423,0.8464272618293762,0.028621546924114227
1772790319790725600,0.3427255859375,0.567717432975769,1.104569911956787,0.08627523481845856
1772790319810759700,0.362759765625,0.4604521095752716,1.4636517763137817,0.1437411904335022
1772790319830794000,0.3827939453125,0.3395908772945404,1.905558705329895,0.17991405725479126
1772790319850827800,0.402827880859375,0.20662826299667358,2.4201502799987793,0.22576941549777985
1772790319870861800,0.42286181640625,-0.05722535029053688,2.9759016036987305,0.363924503326416
1772790319890896000,0.442895751953125,-0.4102533459663391,3.7350027561187744,0.6414732336997986
1772790319910930000,0.462929931640625,-0.7492573857307434,4.811245441436768,1.1713018417358398
1772790319930963700,0.482963623046875,-1.11415433883667,6.086121559143066,1.8913636207580566
1772790319950997800,0.502997802734375,-1.5979037284851074,7.059898376464844,2.5253841876983643
1772790319971031800,0.52303173828125,-2.214106559753418,7.686642169952393,2.6903793811798096
1772790319991065900,0.54306591796875,-2.934025526046753,8.239996910095215,2.622690200805664
1772790320011100000,0.563099853515625,-3.7570345401763916,8.577743530273438,2.846209764480591
1772790320031134000,0.583134033203125,-4.822474956512451,8.1681489944458,3.2905349731445312
1772790320051167700,0.603167724609375,-5.757430076599121,6.445516109466553,3.188331127166748
1772790320071201800,0.623201904296875,-5.988242149353027,5.025053024291992,2.1399426460266113
1772790320091235800,0.64323583984375,-5.870042324066162,3.5334198474884033,1.0875693559646606
1772790320111269600,0.66326953125,-5.827793121337891,1.9272894859313965,1.0701431035995483
1772790320131303700,0.6833037109375,-5.674480438232422,0.9087518453598022,1.3680564165115356
1772790320151338000,0.703337890625,-5.583644390106201,0.4069204032421112,1.6786789894104004
1772790320171371800,0.723371826171875,-5.8911004066467285,0.17940890789031982,1.9779388904571533
1772790320191405800,0.74340576171875,-6.440248966217041,0.24409320950508118,2.253039836883545
1772790320211439900,0.76343994140625,-6.955873012542725,0.4956059455871582,2.590070962905884
1772790320231474000,0.783473876953125,-7.258749008178711,0.9413801431655884,3.2366132736206055
1772790320251507700,0.8035078125,-7.014578819274902,1.4013463258743286,3.9620447158813477
1772790320271541800,0.823541748046875,-6.434122085571289,1.8714144229888916,4.388313293457031
1772790320291575800,0.843575927734375,-5.772651195526123,2.2334930896759033,4.102659702301025
1772790320311610600,0.863610595703125,-4.654300212860107,2.0902774333953857,3.3965940475463867
1772790320331644700,0.883644775390625,-3.0032947063446045,1.1485590934753418,2.6936185359954834
1772790320351679000,0.903678955078125,-0.9683659672737122,-1.0793026685714722,1.8024693727493286
1772790320371713000,0.923713134765625,0.6592159271240234,-3.3790123462677,0.27626800537109375
1772790320391746800,0.943746826171875,1.676588535308838,-5.189733505249023,-1.6280583143234253
1772790320411780900,0.96378076171875,1.9483516216278076,-6.858837604522705,-3.111335277557373
1772790320431815000,0.98381494140625,1.6065891981124878,-8.154792785644531,-3.9668307304382324
1772790320451848700,1.0038486328125,0.8934108018875122,-8.848223686218262,-4.435392379760742
1772790320471882800,1.0238828125,0.06652454286813736,-8.834029197692871,-4.64557409286499
1772790320491916800,1.043916748046875,-0.38786551356315613,-8.206448554992676,-4.596114635467529
1772790320511950800,1.063950927734375,-0.44788217544555664,-6.928467273712158,-4.247326850891113
1772790320531985000,1.08398486328125,-0.2238408327102661,-5.188866138458252,-3.6275599002838135
1772790320552019000,1.10401904296875,0.09335865080356598,-3.2191712856292725,-2.853553056716919
1772790320572052700,1.124052734375,0.2069721519947052,-1.3158752918243408,-2.047266960144043
1772790320592086800,1.144086669921875,0.03840521723031998,0.4031479060649872,-1.3231672048568726
1772790320612120800,1.164120849609375,-0.3893865942955017,1.8625694513320923,-0.7019433379173279
1772790320632154600,1.184154541015625,-0.8746702075004578,3.0618577003479004,-0.0888114869594574
1772790320652188700,1.204188720703125,-1.1475775241851807,4.044619083404541,0.7500558495521545
1772790320672223000,1.224222900390625,-1.1174098253250122,4.5526604652404785,1.7291709184646606
1772790320692256800,1.2442568359375,-0.8705757856369019,4.572237968444824,2.5149645805358887
1772790320712290800,1.264290771484375,-0.6100519895553589,4.156989574432373,2.849008798599243
1772790320732324900,1.284324951171875,-0.465996116399765,3.3028371334075928,2.653003692626953
1772790320752358100,1.304358154296875,-0.43873244524002075,2.3800301551818848,2.020648717880249
1772790320772392000,1.324391845703125,-0.3584511876106262,1.670253872871399,1.0534762144088745
1772790320792426000,1.344426025390625,-0.030950115993618965,1.5497578382492065,-0.045985691249370575
1772790320812460300,1.364460205078125,0.3756014108657837,1.7081481218338013,-0.7869185209274292
1772790320832494000,1.384494140625,0.6155231595039368,1.766188383102417,-0.7369608879089355
1772790320852528000,1.404528076171875,0.9312644600868225,1.8829668760299683,-0.24608159065246582
1772790320872562200,1.424562255859375,1.4490584135055542,1.998984694480896,0.11265619844198227
1772790320892596000,1.444595947265625,2.0396080017089844,2.0374605655670166,0.19643229246139526
1772790320912630000,1.464630126953125,2.603475570678711,1.9911975860595703,0.07077743113040924
1772790320932664000,1.4846640625,3.0624887943267822,1.8947442770004272,-0.11687228083610535
1772790320952698000,1.504697998046875,3.3129725456237793,1.714795470237732,-0.18262191116809845
1772790320972732200,1.524732177734375,3.383599042892456,1.5226151943206787,-0.1100345030426979
1772790320992766200,1.54476611328125,3.3462071418762207,1.391928791999817,0.0071979695931077
1772790321012800300,1.56480029296875,3.271022081375122,1.353103518486023,0.09463812410831451
1772790321032834000,1.584833984375,3.168941020965576,1.3380992412567139,0.16172033548355103
1772790321052868000,1.6048681640625,3.0458192825317383,1.386497974395752,0.2368326485157013
1772790321072902100,1.624902099609375,2.883326768875122,1.495576024055481,0.371309757232666
1772790321092936000,1.64493603515625,2.6928179264068604,1.7067949771881104,0.555742084980011
1772790321112970200,1.66497021484375,2.484003782272339,1.902489423751831,0.7346140742301941
1772790321133004300,1.68500439453125,2.2902395725250244,2.0132744312286377,0.8475083112716675
1772790321153038000,1.7050380859375,2.193558931350708,2.0193519592285156,0.8709489107131958
1772790321173072100,1.725072021484375,2.201341152191162,1.9269407987594604,0.795875072479248
1772790321193106200,1.745106201171875,2.287731409072876,1.7359724044799805,0.641793966293335
1772790321213140000,1.765139892578125,2.364621162414551,1.4373583793640137,0.45777177810668945
1772790321233174000,1.785174072265625,2.3811471462249756,1.058759093284607,0.3008330464363098
1772790321253208000,1.8052080078125,2.2864811420440674,0.6158210635185242,0.13826517760753632
1772790321273242000,1.8252421875,2.080853223800659,0.1342785805463791,0.035658352077007294
1772790321293276200,1.845276123046875,1.7943774461746216,-0.33106520771980286,-0.024733109399676323
1772790321313310200,1.865310302734375,1.559728741645813,-0.7433834075927734,-0.10412032157182693
1772790321333344000,1.885343994140625,1.3891267776489258,-1.0763463973999023,-0.1255420595407486
1772790321353378000,1.9053779296875,1.1999675035476685,-1.37771737575531,-0.056750986725091934
1772790321373412000,1.925412109375,0.979674220085144,-1.6006323099136353,0.04446806013584137
1772790321393446100,1.945446044921875,0.6881412267684937,-1.7689669132232666,0.18515804409980774
1772790321413480000,1.96547998046875,0.34137335419654846,-1.8071770668029785,0.25037646293640137
1772790321433514200,1.98551416015625,0.025407925248146057,-1.7006618976593018,0.1605197638273239
1772790321453548300,2.00554833984375,-0.14414238929748535,-1.5093575716018677,-0.0004110964946448803
1772790321473582000,2.02558203125,-0.2669346332550049,-1.150840163230896,-0.2543898820877075
1772790321493617200,2.0456171875,-0.526077926158905,-0.7458524107933044,-0.507544755935669
1772790321513651200,2.065651123046875,-1.111876368522644,-0.4077121615409851,-0.4250727593898773
1772790321533685200,2.085685302734375,-1.9136241674423218,0.01966003328561783,0.12330423295497894
1772790321553719000,2.105718994140625,-2.601091146469116,0.4044317305088043,0.9236807823181152
1772790321573753000,2.125753173828125,-3.049370288848877,0.5136824250221252,1.6370158195495605
1772790321593787100,2.145787109375,-3.435879945755005,0.27222058176994324,1.8490005731582642
1772790321613821000,2.165821044921875,-3.8807530403137207,-0.2861732840538025,1.2649316787719727
1772790321633855200,2.185855224609375,-4.435157299041748,-0.9246744513511658,0.06605787575244904
1772790321653889300,2.20588916015625,-4.81687068939209,-1.1271157264709473,-1.3308429718017578
1772790321673923000,2.225923095703125,-5.090517044067383,-0.8432296514511108,-2.3978919982910156
1772790321693957000,2.24595703125,-5.00072717666626,-0.07382959872484207,-2.70072340965271
1772790321713991200,2.2659912109375,-4.248842716217041,1.2075756788253784,-2.1379244327545166
1772790321734025000,2.28602490234375,-3.102351665496826,2.5708391666412354,-0.9802827835083008
1772790321754059300,2.306059326171875,-1.185105323791504,2.5269055366516113,0.37766125798225403
1772790321774093300,2.32609326171875,0.7229101657867432,1.3697251081466675,1.2588282823562622
1772790321794127400,2.34612744140625,1.7941670417785645,0.5638916492462158,1.326015591621399
1772790321814161700,2.36616162109375,2.483508825302124,-0.15767636895179749,0.7688713073730469
1772790321834195500,2.386195556640625,2.694810628890991,-0.7352733016014099,-0.10800806432962418
1772790321854229500,2.4062294921875,2.5590806007385254,-1.5755428075790405,-0.9611034989356995
1772790321874263600,2.426263671875,2.0438382625579834,-2.6020779609680176,-1.5056499242782593
1772790321894297300,2.44629736328125,1.2888556718826294,-3.389758586883545,-1.8448289632797241
1772790321914331400,2.466331298828125,0.6036101579666138,-3.823930025100708,-2.1211225986480713
1772790321934365400,2.486365478515625,0.12382818758487701,-3.8059263229370117,-2.2372448444366455
1772790321954399200,2.506399169921875,-0.06809227168560028,-3.4761152267456055,-2.095623016357422
1772790321974433500,2.52643359375,-0.017430409789085388,-2.9362926483154297,-1.6731687784194946
1772790321994467600,2.546467529296875,0.051081616431474686,-2.2731359004974365,-1.062196135520935
1772790322014501400,2.56650146484375,0.04595978558063507,-1.5699796676635742,-0.46755388379096985
1772790322034535400,2.586535400390625,-0.08042814582586288,-0.904990553855896,-0.10282617062330246
1772790322054569500,2.606569580078125,-0.40457504987716675,-0.3299095630645752,0.12588892877101898
1772790322074603300,2.626603271484375,-0.8902935981750488,0.09233689308166504,0.23667743802070618
1772790322094637300,2.64663720703125,-1.2259265184402466,0.5296309590339661,0.21619971096515656
1772790322114671400,2.66667138671875,-1.404098629951477,0.9703579545021057,0.2741219699382782
1772790322134705700,2.68670556640625,-1.5450423955917358,1.445962905883789,0.47276002168655396
1772790322154739500,2.706739501953125,-1.6517794132232666,1.8976294994354248,0.7776678204536438
1772790322174773500,2.7267734375,-1.7278742790222168,2.1687135696411133,1.2602851390838623
1772790322194807600,2.7468076171875,-1.7522072792053223,2.2403011322021484,1.844871997833252
1772790322214841300,2.76684130859375,-1.512534737586975,2.1587681770324707,2.1358463764190674
1772790322234875400,2.78687548828125,-1.0342901945114136,2.048429489135742,1.8244149684906006
1772790322254909400,2.806909423828125,-0.6853090524673462,1.9420390129089355,1.262398362159729
1772790322274943200,2.826943115234375,-0.5731978416442871,1.7795767784118652,0.8524371385574341
1772790322294977500,2.8469775390625,-0.45113858580589294,1.4779002666473389,0.5643983483314514
1772790322315011600,2.867011474609375,-0.08952424675226212,1.068247675895691,0.18144544959068298
1772790322335045400,2.88704541015625,0.4893907308578491,0.625331461429596,-0.1983829140663147
1772790322355079400,2.907079345703125,1.0129212141036987,0.30318835377693176,-0.4619317054748535
1772790322375113500,2.927113525390625,1.3718814849853516,0.19638124108314514,-0.565567672252655
1772790322395147300,2.947147216796875,1.551800012588501,0.2010565847158432,-0.3716737627983093
1772790322415181300,2.967181396484375,1.5940415859222412,0.16729950904846191,0.05464155972003937
1772790322435215400,2.98721533203125,1.6218069791793823,0.2768273949623108,0.4702311158180237
1772790322455249700,3.007249755859375,1.6512186527252197,0.49605968594551086,0.7490919828414917
1772790322475283500,3.027283447265625,1.6592485904693604,0.7901022434234619,0.8870570063591003
1772790322495317500,3.0473173828125,1.5751852989196777,1.1527931690216064,0.8945785164833069
1772790322515351600,3.0673515625,1.4104479551315308,1.5768600702285767,0.7752841711044312
1772790322535385300,3.08738525390625,1.1836918592453003,2.065450429916382,0.613662838935852
1772790322555419400,3.10741943359375,1.0285897254943848,2.4798643589019775,0.4565849006175995
1772790322575453400,3.127453369140625,0.8958528637886047,2.7738966941833496,0.31717732548713684
1772790322595487200,3.1474873046875,0.7479985952377319,3.0096545219421387,0.24531294405460358
1772790322615521500,3.167521484375,0.6834205985069275,3.105335235595703,0.1854148954153061
1772790322635555600,3.1875556640625,0.852609395980835,2.9781689643859863,0.07322866469621658
1772790322655589400,3.20758935546875,1.2695705890655518,2.54284405708313,-0.014854960143566132
1772790322675623400,3.22762353515625,1.820809245109558,1.8483549356460571,-0.04785533249378204
1772790322695657500,3.247657470703125,2.3385515213012695,1.0563477277755737,-0.028507649898529053
1772790322715691300,3.267691162109375,2.651195526123047,0.28037697076797485,-0.0585198774933815
1772790322735725300,3.287725341796875,2.7483463287353516,-0.42182642221450806,-0.17034773528575897
1772790322755759400,3.30775927734375,2.680752754211426,-1.0583573579788208,-0.2880023717880249
1772790322775793400,3.32779345703125,2.502788782119751,-1.560880422592163,-0.3384862542152405
1772790322795827500,3.347827392578125,2.2994384765625,-1.928993821144104,-0.3488827347755432
1772790322815861200,3.367861328125,2.1070563793182373,-2.1216652393341064,-0.3374795615673065
1772790322835895300,3.387895263671875,1.8901605606079102,-2.1445586681365967,-0.2695021629333496
1772790322855929300,3.407929443359375,1.6694676876068115,-2.008791208267212,-0.13541345298290253
1772790322875963100,3.427963134765625,1.429855227470398,-1.766916275024414,0.02113156020641327
1772790322895997200,3.4479970703125,1.1111118793487549,-1.50377357006073,0.20988842844963074
1772790322916031500,3.468031494140625,0.6498571038246155,-1.2202471494674683,0.38899949193000793
1772790322936065300,3.488065185546875,0.11388356983661652,-0.9246822595596313,0.5362436175346375
1772790322956099300,3.508099365234375,-0.3704204261302948,-0.6003286242485046,0.5742738842964172
1772790322976133400,3.52813330078125,-0.7859601974487305,-0.08973987400531769,0.39474186301231384
1772790322996167400,3.54816748046875,-1.1831437349319458,0.45477747917175293,0.13858157396316528
1772790323016201200,3.568201171875,-1.5809816122055054,0.882045567035675,-0.03874015063047409
1772790323036235300,3.5882353515625,-1.960426688194275,1.1994972229003906,0.025820177048444748
1772790323056269300,3.608269287109375,-2.16821026802063,1.4220114946365356,0.4393670856952667
1772790323076303400,3.628303466796875,-2.3957977294921875,1.4755312204360962,1.1728816032409668
1772790323096337400,3.64833740234375,-2.7818892002105713,1.2495677471160889,1.7352131605148315
1772790323116371500,3.668371337890625,-3.2740986347198486,0.8723846077919006,1.5992116928100586
1772790323136405200,3.6884052734375,-3.791239023208618,0.3551569879055023,0.8624194860458374
1772790323156439300,3.708439208984375,-4.087771892547607,0.09330686926841736,-0.16792847216129303
1772790323176473300,3.728473388671875,-3.8841960430145264,0.17946434020996094,-1.04043447971344
1772790323196507100,3.748507080078125,-3.187411069869995,0.6529623866081238,-1.4252053499221802
1772790323216541200,3.768541259765625,-2.2541725635528564,1.2893190383911133,-1.2507776021957397
1772790323236575500,3.788575439453125,-1.142455816268921,1.5815767049789429,-0.7015225887298584
1772790323256609300,3.808609375,0.050659116357564926,1.361901879310608,-0.23254704475402832
1772790323276643300,3.828643310546875,0.9675360918045044,1.042851209640503,-0.20131294429302216
1772790323296677400,3.848677490234375,1.4400906562805176,0.5990069508552551,-0.44821304082870483
1772790323316711200,3.868711181640625,1.5156744718551636,0.026528123766183853,-0.725964367389679
1772790323336745200,3.8887451171875,1.3899439573287964,-0.6818029284477234,-0.959362804889679
1772790323356779300,3.908779296875,1.1467546224594116,-1.287335753440857,-1.1417793035507202
1772790323376813300,3.928813232421875,0.8209436535835266,-1.81321382522583,-1.1875332593917847
1772790323396847400,3.948847412109375,0.33450376987457275,-2.245309352874756,-1.0792498588562012
1772790323416881400,3.96888134765625,-0.22283686697483063,-2.3520288467407227,-0.8255353569984436
1772790323436915500,3.98891552734375,-0.6861039400100708,-2.22182297706604,-0.5043894052505493
1772790323456949200,4.00894921875,-0.9109047055244446,-1.8990027904510498,-0.2445935159921646
1772790323476983300,4.0289833984375,-0.8696579933166504,-1.3736042976379395,-0.05773068591952324
1772790323497017300,4.049017333984375,-0.6660981774330139,-0.7314409613609314,0.19108955562114716
1772790323517051100,4.069051025390625,-0.5163350105285645,-0.04198107123374939,0.5447227358818054
1772790323537085200,4.089085205078125,-0.4534741938114166,0.6063467860221863,0.9330509305000305
1772790323557119500,4.109119384765625,-0.47252678871154785,1.092936396598816,1.1949180364608765
1772790323577153300,4.1291533203125,-0.47911307215690613,1.5020085573196411,1.3244774341583252
1772790323597187300,4.149187255859375,-0.4212053418159485,1.7714191675186157,1.4384270906448364
1772790323617221400,4.169221435546875,-0.25319159030914307,1.8711837530136108,1.526481032371521
1772790323637255200,4.189255126953125,-0.010535262525081635,1.7812812328338623,1.5870962142944336
1772790323657289200,4.209289306640625,0.17206980288028717,1.5451374053955078,1.6003398895263672
1772790323677323300,4.2293232421875,0.25768452882766724,1.212269902229309,1.4801138639450073
1772790323697357300,4.249357421875,0.26163962483406067,0.8066549301147461,1.1544486284255981
1772790323717391400,4.269391357421875,0.32295170426368713,0.36965399980545044,0.5937596559524536
1772790323737425400,4.28942529296875,0.5182191729545593,0.0015509594231843948,-0.08553115278482437
1772790323757459700,4.309459716796875,0.56944739818573,-0.23734916746616364,-0.5381786227226257
1772790323777493800,4.32949365234375,0.4778398871421814,-0.48344892263412476,-0.6683690547943115
1772790323797527800,4.34952783203125,0.33223992586135864,-0.5923680067062378,-0.6642657518386841
1772790323817561600,4.3695615234375,0.30579674243927,-0.6339220404624939,-0.651296079158783
1772790323837595600,4.389595703125,0.4866909980773926,-0.5871220827102661,-0.6453602313995361
1772790323857630700,4.409630615234375,0.7668780088424683,-0.4205053448677063,-0.5794609785079956
1772790323877664800,4.429664794921875,1.0265491008758545,-0.1615961790084839,-0.43259280920028687
1772790323897698600,4.449698486328125,1.206096887588501,0.11578532308340073,-0.1805451363325119
1772790323917732600,4.469732666015625,1.2722878456115723,0.37924009561538696,0.15037284791469574
1772790323937767000,4.489766845703125,1.2578849792480469,0.6859068870544434,0.46311646699905396
1772790323957800700,4.50980078125,1.2236578464508057,1.000713586807251,0.7255335450172424
1772790323977834800,4.529834716796875,1.1940985918045044,1.3114464282989502,0.9952103495597839
1772790323997868800,4.549868896484375,1.1702239513397217,1.5404608249664307,1.2848068475723267
1772790324017902600,4.569902587890625,1.1375657320022583,1.66702139377594,1.4660395383834839
1772790324037936600,4.5899365234375,1.0946334600448608,1.7326631546020508,1.4581302404403687
1772790324057970700,4.609970703125,1.010160207748413,1.742377758026123,1.3255860805511475
1772790324078004700,4.630004638671875,0.830532431602478,1.6637452840805054,1.1516162157058716
1772790324098038800,4.650038818359375,0.6091803312301636,1.5671725273132324,1.021862506866455
1772790324118072800,4.67007275390625,0.4806865155696869,1.4400395154953003,0.9078028202056885
1772790324138107000,4.69010693359375,0.5123505592346191,1.3267598152160645,0.7859280109405518
1772790324158140700,4.710140625,0.6629202365875244,1.197674036026001,0.6815599799156189
1772790324178174700,4.7301748046875,0.9119636416435242,1.0368149280548096,0.578353762626648
1772790324198208800,4.750208740234375,1.2019906044006348,0.8188401460647583,0.4922478497028351
1772790324218242600,4.77024267578125,1.4217349290847778,0.5197823643684387,0.4535350501537323
1772790324238276600,4.790276611328125,1.5260688066482544,0.17300356924533844,0.4414523243904114
1772790324258311000,4.810310791015625,1.5128828287124634,-0.1605776846408844,0.42125627398490906
1772790324278344700,4.8303447265625,1.4029062986373901,-0.4033152163028717,0.42326679825782776
1772790324298378800,4.850378662109375,1.2062816619873047,-0.6183081865310669,0.4174749553203583
1772790324318412800,4.870412841796875,0.9605739712715149,-0.7486010193824768,0.3841244876384735
1772790324338446600,4.890446533203125,0.7277612090110779,-0.8199692368507385,0.34280529618263245
1772790324358480600,4.910480712890625,0.5087466239929199,-0.7839336395263672,0.3135392963886261
1772790324378514700,4.9305146484375,0.2874453067779541,-0.5862612128257751,0.27857840061187744
1772790324398548700,4.950548828125,0.06534407287836075,-0.33113402128219604,0.22704198956489563
1772790324418582800,4.970582763671875,-0.19971834123134613,-0.03158359229564667,0.20215383172035217
1772790324438616800,4.990616943359375,-0.48070383071899414,0.17482544481754303,0.20496809482574463
1772790324458651000,5.01065087890625,-0.6324502229690552,0.29251986742019653,0.20424766838550568
1772790324478684700,5.0306845703125,-0.6983082294464111,0.3493495285511017,0.24376434087753296
1772790324498718700,5.05071875,-0.6247337460517883,0.3988155722618103,0.14862903952598572
1772790324518752800,5.070752685546875,-0.48615241050720215,0.385504812002182,-0.15978579223155975
1772790324538786600,5.09078662109375,-0.4941224157810211,0.27513474225997925,-0.39255639910697937
1772790324558820600,5.110820556640625,-0.6979751586914062,-0.0068860044702887535,-0.30662503838539124
1772790324578855000,5.13085498046875,-1.0248216390609741,-0.39232364296913147,-0.06996174901723862
1772790324598888700,5.150888671875,-1.2474639415740967,-0.7249054908752441,-0.020294899120926857
1772790324618922800,5.1709228515625,-1.325022578239441,-0.9403671026229858,-0.11740278452634811
1772790324638956800,5.190956787109375,-1.325904369354248,-1.116635799407959,-0.2375045120716095
1772790324658990600,5.210990478515625,-1.3228840827941895,-1.203796625137329,-0.4504746198654175
1772790324679024600,5.231024658203125,-1.3461672067642212,-1.1077983379364014,-0.7964993119239807
1772790324699058700,5.25105859375,-1.3317021131515503,-0.8481975793838501,-1.1702834367752075
1772790324719092500,5.271092529296875,-1.2485520839691162,-0.47147074341773987,-1.4096863269805908
1772790324739126800,5.291126708984375,-1.12428617477417,-0.04172831028699875,-1.4280364513397217
1772790324759160600,5.31116064453125,-1.009900689125061,0.49087926745414734,-1.211398720741272
1772790324779194600,5.331194580078125,-0.8766440153121948,0.917422354221344,-0.868608832359314
1772790324799228700,5.351228759765625,-0.6924341917037964,1.168295979499817,-0.50867760181427
1772790324819262500,5.371262451171875,-0.5150079131126404,1.108656883239746,-0.17577995359897614
1772790324839296500,5.391296630859375,-0.34992143511772156,0.7857028841972351,0.07767316699028015
1772790324859330600,5.41133056640625,-0.18138179183006287,0.34615495800971985,0.20821374654769897
1772790324879364600,5.431364501953125,-0.06017633527517319,-0.06932062655687332,0.2566719055175781
1772790324899398700,5.451398681640625,-0.04850165545940399,-0.3693743944168091,0.28632238507270813
1772790324919432700,5.4714326171875,-0.07410713285207748,-0.6390098929405212,0.29393547773361206
1772790324939466800,5.491466796875,-0.12105779349803925,-0.9106259942054749,0.3653064966201782
1772790324959500500,5.51150048828125,-0.13707776367664337,-1.071577548980713,0.4267127811908722
1772790324979534600,5.53153466796875,-0.1566406786441803,-1.0728355646133423,0.37373343110084534
1772790324999568600,5.551568603515625,-0.1438225656747818,-0.9945144653320312,0.236191987991333
1772790325019602400,5.5716025390625,-0.1334739774465561,-0.8827354907989502,0.10321710258722305
1772790325039636700,5.59163671875,-0.06778138130903244,-0.7715983986854553,0.06326103955507278
1772790325059670800,5.6116708984375,-0.045903682708740234,-0.7823784947395325,0.12205120921134949
1772790325079704600,5.63170458984375,-0.08143678307533264,-0.8741323351860046,0.11988565325737
1772790325099738600,5.651738525390625,-0.1728983074426651,-0.829685389995575,-0.004428498912602663
1772790325119772700,5.671772705078125,-0.3343825340270996,-0.7236144542694092,-0.15527312457561493
1772790325139806500,5.691806396484375,-0.6967701315879822,-0.5584728717803955,-0.16039937734603882
1772790325159840500,5.711840576171875,-0.8671004176139832,-0.3831087052822113,0.0850084125995636
1772790325179874600,5.73187451171875,-0.8131788372993469,-0.27003464102745056,0.5033104419708252
1772790325199908600,5.75190869140625,-0.6978458166122437,0.0025646518915891647,0.8795498609542847
1772790325219942700,5.771942626953125,-0.5867449045181274,0.31609249114990234,1.027787446975708
1772790325239976700,5.791976806640625,-0.46394336223602295,0.6984185576438904,0.805880606174469
1772790325260010500,5.812010498046875,-0.399697870016098,1.0534933805465698,0.3566451668739319
1772790325280044500,5.83204443359375,-0.3706756830215454,1.2636148929595947,-0.03227353096008301
1772790325300078600,5.85207861328125,-0.4813697934150696,1.3559635877609253,-0.11708877980709076
1772790325320112600,5.872112548828125,-0.5814362168312073,1.2846755981445312,0.019189003854990005
1772790325340146400,5.892146484375,-0.4800051748752594,1.019851565361023,0.11573221534490585
1772790325360180700,5.9121806640625,-0.17356501519680023,0.7188255786895752,0.13414710760116577
1772790325380214800,5.93221484375,0.3094574511051178,0.3473166227340698,0.11529156565666199
1772790325400248600,5.95224853515625,0.7279582619667053,0.1433616727590561,0.12139531970024109
1772790325420282600,5.97228271484375,0.9885009527206421,0.08840769529342651,0.19498281180858612
1772790325440316700,5.992316650390625,1.1848002672195435,0.2037704586982727,0.2833528518676758
1772790325460350500,6.0123505859375,1.2862207889556885,0.5130797028541565,0.39233842492103577
1772790325480384500,6.032384521484375,1.330194354057312,0.9461812376976013,0.5634045004844666
1772790325500418600,6.05241845703125,1.3434029817581177,1.4973562955856323,0.802497386932373
1772790325520452600,6.07245263671875,1.4099925756454468,2.121037006378174,1.1223008632659912
1772790325540486700,6.092486572265625,1.5198627710342407,2.7957816123962402,1.4349490404129028
1772790325560520700,6.112520751953125,1.6300731897354126,3.3267853260040283,1.7628329992294312
1772790325580554500,6.132554443359375,1.7375463247299194,3.585507392883301,2.1407053470611572
1772790325600588500,6.152588623046875,1.7703838348388672,3.6225836277008057,2.3696141242980957
1772790325620622600,6.17262255859375,1.7302331924438477,3.4836626052856445,2.3344831466674805
1772790325640656600,6.19265673828125,1.6080242395401,3.127232551574707,2.012648582458496
1772790325660690400,6.2126904296875,1.5298420190811157,2.4854559898376465,1.4992866516113281
1772790325680724700,6.232724853515625,1.5374690294265747,1.5717737674713135,0.8942360281944275
1772790325700758800,6.2527587890625,1.6078053712844849,0.637373685836792,0.24640244245529175
1772790325720792600,6.27279248046875,1.7792991399765015,-0.21138855814933777,-0.393996000289917
1772790325740826600,6.29282666015625,2.0121572017669678,-0.9423058032989502,-0.9565904140472412
1772790325760860400,6.3128603515625,2.1761314868927,-1.6051852703094482,-1.3363150358200073
1772790325780894500,6.33289453125,2.2341549396514893,-2.173694133758545,-1.5319231748580933
1772790325800928300,6.35292822265625,2.1952896118164062,-2.636277914047241,-1.5831502676010132
1772790325820962300,6.37296240234375,2.01839017868042,-2.973144769668579,-1.5234850645065308
1772790325840996600,6.39299658203125,1.6066595315933228,-3.0505757331848145,-1.4004850387573242
1772790325861030400,6.413030517578125,1.1295623779296875,-2.8350374698638916,-1.2443194389343262
1772790325881064400,6.433064453125,0.799669623374939,-2.4551897048950195,-1.0179352760314941
1772790325901098500,6.453098388671875,0.6223869919776917,-2.0091047286987305,-0.6821860671043396
1772790325921132300,6.47313232421875,0.5261518359184265,-1.5969939231872559,-0.3088720440864563
1772790325941166300,6.493166259765625,0.45660021901130676,-1.3308079242706299,-0.20211590826511383
1772790325961200400,6.513200439453125,0.27839016914367676,-1.1174317598342896,-0.5846627354621887
1772790325981234400,6.533234375,-0.07059184461832047,-1.1139546632766724,-1.1182132959365845
1772790326001268500,6.5532685546875,-0.6759650111198425,-1.318259358406067,-1.524495244026184
1772790326021302500,6.573302490234375,-1.367435097694397,-1.4794530868530273,-1.9464917182922363
1772790326041336600,6.593336669921875,-2.1413888931274414,-1.3870943784713745,-2.3939921855926514
1772790326061370400,6.613370361328125,-2.796447992324829,-1.099411129951477,-2.746565818786621
1772790326081404400,6.633404296875,-3.224921941757202,-0.5849179029464722,-2.8494129180908203
1772790326101438500,6.6534384765625,-3.4926819801330566,0.0795665979385376,-2.630894422531128
1772790326121472300,6.67347216796875,-3.598438024520874,0.9267416000366211,-2.214864730834961
1772790326141506600,6.693506591796875,-3.544870376586914,1.9737145900726318,-1.698621392250061
1772790326161540600,6.71354052734375,-3.326659917831421,3.1210808753967285,-1.1101727485656738
1772790326181574400,6.733574462890625,-2.7865684032440186,4.369659900665283,-0.21281082928180695
1772790326201608400,6.7536083984375,-1.8421132564544678,5.0403666496276855,0.9964728951454163
1772790326221642500,6.773642578125,-0.6569892764091492,4.418757915496826,1.8528354167938232
1772790326241676300,6.79367626953125,0.2765311002731323,2.9664957523345947,1.872677206993103
1772790326261710300,6.81371044921875,0.7750067114830017,1.450782060623169,0.890245795249939
1772790326281744400,6.833744384765625,1.1299983263015747,-0.13565704226493835,-0.938948392868042
1772790326301778400,6.8537783203125,1.2881170511245728,-2.0259292125701904,-2.466552972793579
1772790326321812500,6.8738125,1.2345178127288818,-3.568882703781128,-3.2614784240722656
1772790326341846500,6.893846435546875,1.0224639177322388,-4.543720722198486,-3.5409884452819824
1772790326361880600,6.913880615234375,0.5604930520057678,-5.135686874389648,-3.4379165172576904
1772790326381914400,6.933914306640625,-0.012299107387661934,-5.352147102355957,-3.0181398391723633
1772790326401948400,6.953948486328125,-0.540825605392456,-5.177408695220947,-2.330497980117798
1772790326421982500,6.973982421875,-1.0495225191116333,-4.602238655090332,-1.6484297513961792
1772790326442016300,6.994016357421875,-1.2445839643478394,-3.637282609939575,-1.2385739088058472
1772790326462050600,7.014050537109375,-1.2292475700378418,-2.419105052947998,-1.0528080463409424
1772790326482084600,7.034084716796875,-1.2341846227645874,-1.1608248949050903,-0.8237994313240051
1772790326502118400,7.054118408203125,-1.2682148218154907,0.06548161804676056,-0.4866701662540436
1772790326522152400,7.07415234375,-1.3776123523712158,1.1668956279754639,-0.027558157220482826
1772790326542186500,7.0941865234375,-1.5844498872756958,2.1566085815429688,0.5224071741104126
1772790326562220300,7.11422021484375,-1.8749995231628418,3.069549798965454,1.1724553108215332
1772790326582254300,7.13425439453125,-2.124389886856079,3.9216084480285645,1.979865550994873
1772790326602288400,7.154288330078125,-2.0253255367279053,4.38477087020874,3.0029451847076416
1772790326622322400,7.174322509765625,-1.5964138507843018,3.740295886993408,3.9575393199920654
1772790326642356500,7.1943564453125,-1.2123217582702637,2.055047035217285,4.241109371185303
1772790326662390500,7.214390625,-0.8180691003799438,-0.2660619020462036,3.7489922046661377
1772790326682424600,7.234424560546875,-0.6487933397293091,-2.095386028289795,2.607267141342163
1772790326702458400,7.254458251953125,-0.38876956701278687,-2.8814034461975098,1.0628643035888672
1772790326722492400,7.274492431640625,-0.06567125022411346,-3.1520650386810303,-0.17288188636302948
1772790326742526200,7.294526123046875,0.2641611099243164,-3.110015630722046,-0.8490151762962341
1772790326762560300,7.314560302734375,0.5502083897590637,-2.5577001571655273,-1.0915791988372803
1772790326782594300,7.33459423828125,0.8317938446998596,-1.7752187252044678,-0.9843661189079285
1772790326802628400,7.35462841796875,1.1149922609329224,-0.7817262411117554,-0.7262548208236694
1772790326822662100,7.374662109375,1.4182387590408325,0.45381930470466614,-0.5223700404167175
1772790326842696200,7.3946962890625,1.639183521270752,1.6892822980880737,-0.4887700080871582
1772790326862730200,7.414730224609375,1.728664517402649,2.852041006088257,-0.5630163550376892
1772790326882764300,7.434764404296875,1.6236307621002197,3.7900173664093018,-0.6042209267616272
1772790326902798000,7.454798095703125,1.3668482303619385,4.5730509757995605,-0.46741822361946106
1772790326922832100,7.47483203125,1.1375014781951904,5.301992416381836,-0.15589381754398346
1772790326942866400,7.494866455078125,0.919074535369873,5.768318176269531,0.4219246804714203
1772790326962900200,7.514900146484375,0.749402642250061,5.894270896911621,1.188731074333191
1772790326982934300,7.534934326171875,0.7425269484519958,5.688934803009033,1.9441003799438477
1772790327002968300,7.55496826171875,0.8927778601646423,5.274209976196289,2.5498225688934326
1772790327023002000,7.575002197265625,1.1642075777053833,4.759078502655029,2.8094260692596436
1772790327043036200,7.5950361328125,1.487325668334961,4.106060028076172,2.688271999359131
1772790327063070200,7.6150703125,1.7844635248184204,3.387141227722168,2.251314401626587
1772790327083104300,7.635104248046875,2.0153956413269043,2.636136531829834,1.5675054788589478
1772790327103138300,7.65513818359375,2.1924173831939697,1.7352467775344849,0.8020930886268616
1772790327123172400,7.67517236328125,2.25716233253479,0.7653945088386536,0.06408314406871796
1772790327143206100,7.6952060546875,2.298130989074707,-0.19245585799217224,-0.6499963402748108
1772790327163240200,7.715240234375,2.3701295852661133,-1.0689351558685303,-1.389930248260498
1772790327183274200,7.735274169921875,2.5155367851257324,-1.878331184387207,-2.0755395889282227
1772790327203308000,7.75530810546875,2.6330795288085938,-2.547417640686035,-2.6289732456207275
1772790327223342000,7.775342041015625,2.618267297744751,-3.191734790802002,-2.8963255882263184
1772790327243376000,7.795376220703125,2.4500112533569336,-3.707911968231201,-2.846128225326538
1772790327263410400,7.815410400390625,2.1982414722442627,-3.9757115840911865,-2.5626020431518555
1772790327283444200,7.8354443359375,1.9208722114562988,-3.873622179031372,-2.1380152702331543
1772790327303478300,7.855478271484375,1.7715742588043213,-3.4341957569122314,-1.6848597526550293
1772790327323512300,7.87551220703125,1.686637282371521,-2.9312291145324707,-1.3339602947235107
1772790327343546000,7.895546142578125,1.436509370803833,-2.5103671550750732,-0.951180100440979
1772790327363580200,7.915580078125,0.9739816188812256,-2.169212579727173,-0.4606967568397522
1772790327383614200,7.9356142578125,0.28120601177215576,-1.8473448753356934,0.0578332282602787
1772790327403648300,7.955648193359375,-0.65535968542099,-1.4918521642684937,0.43919137120246887
1772790327423682300,7.975682373046875,-1.6122946739196777,-1.2749598026275635,0.5964038372039795
1772790327443715300,7.99571533203125,-2.4712584018707275,-1.0777205228805542,0.6133540272712708
1772790327463749000,8.0157490234375,-3.0607926845550537,-0.7197068929672241,0.48410603404045105
1772790327483783200,8.035783203125,-3.2387707233428955,-0.2900182008743286,0.1587008237838745
1772790327503817200,8.055817138671875,-3.2567379474639893,0.41883164644241333,-0.4179459810256958
1772790327523851300,8.075851318359375,-3.3060386180877686,1.2646862268447876,-0.9154354929924011
1772790327543885300,8.09588525390625,-3.409773349761963,2.0425760746002197,-1.1901037693023682
1772790327563919400,8.11591943359375,-3.5193874835968018,2.630218982696533,-1.2117631435394287
1772790327583953200,8.135953125,-3.537198781967163,2.8726539611816406,-0.982127845287323
1772790327603987200,8.1559873046875,-3.5072779655456543,2.6506619453430176,-0.5290923714637756
1772790327624021200,8.176021240234375,-3.0998780727386475,2.5559732913970947,-0.3028647303581238
1772790327644055000,8.196054931640624,-2.169538736343384,2.2253544330596924,-0.41208815574645996
1772790327664088300,8.21608837890625,-1.102751612663269,1.7123100757598877,-0.6960311532020569
1772790327684122400,8.236122314453125,-0.18788723647594452,1.0267603397369385,-0.880720853805542
1772790327704156200,8.25615625,0.5494691729545593,0.18722674250602722,-1.011923909187317
1772790327724190200,8.276190185546875,0.9848569631576538,-0.8083921074867249,-1.1395500898361206
1772790327744225000,8.29622509765625,1.007082462310791,-1.7744102478027344,-1.3002504110336304
1772790327764259000,8.316259033203124,0.7793989181518555,-2.5674760341644287,-1.529488444328308
1772790327784293000,8.336293212890626,0.5738825798034668,-3.1754016876220703,-1.8814342021942139
1772790327804327000,8.356326904296875,0.3603626489639282,-3.6409900188446045,-2.2152864933013916
1772790327824361000,8.37636083984375,0.05216824263334274,-3.886073112487793,-2.329653739929199
1772790327844395300,8.396395263671875,-0.37341147661209106,-3.810884475708008,-2.238676071166992
1772790327864433200,8.41643310546875,-0.8715643286705017,-3.4181604385375977,-2.073744058609009
1772790327884467200,8.43646728515625,-1.3625408411026,-2.6218345165252686,-1.80189049243927
1772790327904501000,8.4565009765625,-1.7801247835159302,-1.4055333137512207,-1.2654156684875488
1772790327924535000,8.47653515625,-2.0598011016845703,-0.17223118245601654,-0.4635722041130066
1772790327944569000,8.496569091796875,-2.166368007659912,0.8303302526473999,0.4618990123271942
1772790327964603000,8.516602783203124,-2.074528217315674,1.4192067384719849,1.3433570861816406
1772790327984637000,8.536636962890626,-1.7537009716033936,1.5112438201904297,2.0605170726776123
1772790328004671000,8.5566708984375,-1.3946142196655273,1.2668451070785522,2.2657504081726074
1772790328024705300,8.576705322265624,-1.0976901054382324,0.8359957337379456,1.7739057540893555
1772790328044739000,8.596739013671876,-0.9639506340026855,0.31242579221725464,0.7651256322860718
1772790328064773000,8.616773193359375,-1.1062182188034058,-0.4324701726436615,-0.27967920899391174
1772790328084807200,8.63680712890625,-1.3921815156936646,-0.9878602027893066,-0.870306670665741
1772790328104841000,8.656841064453126,-1.4242568016052246,-1.2538130283355713,-1.0764005184173584
1772790328124875000,8.676875,-1.0931353569030762,-1.2927743196487427,-1.0144915580749512
1772790328144909000,8.696908935546874,-0.5180715918540955,-1.2082326412200928,-0.7382289171218872
1772790328164943000,8.716943115234375,0.10525377094745636,-1.1231003999710083,-0.3611396253108978
1772790328184977200,8.73697705078125,0.585906445980072,-1.0011839866638184,-0.021150659769773483
1772790328205011200,8.75701123046875,0.9394010901451111,-0.773590624332428,0.13828137516975403
1772790328225045000,8.777044921875,1.2506293058395386,-0.37479642033576965,0.12729112803936005
1772790328245079000,8.7970791015625,1.4461430311203003,0.2553264796733856,0.05757277458906174
1772790328265113000,8.817113037109374,1.4042726755142212,1.0567530393600464,0.05258665978908539
1772790328285147000,8.83714697265625,1.327556848526001,1.8676954507827759,0.08039319515228271
1772790328305181000,8.857180908203125,1.3316805362701416,2.6212689876556396,0.22018897533416748
1772790328325215000,8.877215087890624,1.421676754951477,3.20408296585083,0.4864978492259979
1772790328345249000,8.8972490234375,1.5727835893630981,3.623231887817383,0.7799356579780579
1772790328365283000,8.917282958984375,1.7242581844329834,3.810912847518921,0.9908679723739624
1772790328385317000,8.937317138671874,1.8123892545700073,3.7062458992004395,1.01111900806427
1772790328405351200,8.95735107421875,1.9211920499801636,3.2958691120147705,0.7636631727218628
1772790328425384000,8.977384033203125,2.0590908527374268,2.660999059677124,0.32650870084762573
1772790328445418200,8.997418212890626,2.149348497390747,1.8628888130187988,-0.17274004220962524
1772790328465452000,9.0174521484375,2.1703848838806152,0.9837920069694519,-0.7361313104629517
1772790328485486000,9.037486083984374,2.2044193744659424,0.13017769157886505,-1.3640921115875244
1772790328505520000,9.05752001953125,2.2282536029815674,-0.603827953338623,-1.8256995677947998
1772790328525554000,9.077553955078125,2.1802656650543213,-1.1888728141784668,-1.9487457275390625
1772790328545588000,9.097587890625,2.1064248085021973,-1.5973515510559082,-1.819017767906189
1772790328565622000,9.1176220703125,2.066149950027466,-1.7694852352142334,-1.584859848022461
1772790328585656000,9.137656005859375,2.045881748199463,-1.7431995868682861,-1.3451117277145386
1772790328605690000,9.157690185546874,1.9387582540512085,-1.5383384227752686,-1.1076112985610962
1772790328625724200,9.17772412109375,1.7088738679885864,-1.2695035934448242,-0.8666272759437561
1772790328645758200,9.19775830078125,1.4636696577072144,-1.0152376890182495,-0.624162495136261
1772790328665792000,9.2177919921875,1.2864575386047363,-0.7795000672340393,-0.4082924425601959
1772790328685826000,9.237825927734375,1.1627349853515625,-0.567685067653656,-0.22070510685443878
1772790328705860000,9.257860107421875,1.09359872341156,-0.34979650378227234,-0.11622137576341629
1772790328725894000,9.277893798828124,1.0408275127410889,-0.1403210610151291,-0.2513279914855957
1772790328745927200,9.29792724609375,0.8240931630134583,-0.04817734286189079,-0.5126640200614929
1772790328765961200,9.317961181640625,0.346122145652771,-0.13893550634384155,-0.6488423943519592
1772790328785995000,9.3379951171875,-0.23688919842243195,-0.24985145032405853,-0.5653319954872131
1772790328806029000,9.358029052734375,-0.7936772108078003,-0.45132365822792053,-0.38547736406326294
1772790328826063000,9.37806298828125,-1.3807933330535889,-0.719234049320221,-0.15547844767570496
1772790328846097000,9.398096923828126,-1.9695253372192383,-0.9365651607513428,-0.021562160924077034
1772790328866131000,9.418130859375,-2.495500087738037,-1.0082298517227173,-0.0625661164522171
1772790328886165200,9.438165283203125,-3.049785852432251,-0.9015858173370361,-0.20474544167518616
1772790328906199000,9.458198974609376,-3.59706449508667,-0.6648073196411133,-0.42977315187454224
1772790328926233000,9.478233154296875,-3.8857579231262207,-0.23052535951137543,-0.6552373766899109
1772790328946267100,9.49826708984375,-3.9329628944396973,0.37895283102989197,-0.7037103176116943
1772790328966301200,9.51830126953125,-3.8349344730377197,1.0842660665512085,-0.5147727131843567
1772790328986335000,9.5383349609375,-3.663787364959717,1.795283555984497,-0.054769933223724365
1772790329006369000,9.558369140625,-3.439732789993286,2.3822593688964844,0.6671372056007385
1772790329026403000,9.578403076171876,-3.0814545154571533,2.635984420776367,1.4827744960784912
1772790329046437000,9.59843701171875,-2.584867477416992,2.473712682723999,2.1124484539031982
1772790329066471200,9.61847119140625,-1.9286401271820068,1.8571208715438843,2.411975622177124
1772790329086505200,9.638505126953126,-1.1783753633499146,0.8432445526123047,2.413794994354248
1772790329106539000,9.6585390625,-0.4804438054561615,-0.48329591751098633,2.0869293212890625
1772790329126573000,9.678572998046874,0.01147368736565113,-1.7938625812530518,1.4277324676513672
1772790329146607000,9.698607177734376,0.23115289211273193,-2.913304328918457,0.521988034248352
1772790329166641000,9.718640869140625,0.16634467244148254,-3.8958420753479004,-0.4556986689567566
1772790329186675000,9.738675048828124,0.011460760608315468,-4.585341930389404,-1.334327220916748
1772790329206709200,9.758709228515626,-0.15550509095191956,-4.837765216827393,-1.9226385354995728
1772790329226743000,9.778742919921875,-0.3033525347709656,-4.676609992980957,-2.1892571449279785
1772790329246777000,9.798777099609374,-0.28154483437538147,-4.096423149108887,-2.167961835861206
1772790329266811100,9.81881103515625,-0.19160479307174683,-3.2031238079071045,-1.9169186353683472
1772790329286845200,9.83884521484375,-0.14474792778491974,-2.2137253284454346,-1.4651554822921753
1772790329306879000,9.85887890625,-0.19797033071517944,-1.1907004117965698,-0.8982083201408386
1772790329326913000,9.8789130859375,-0.3428576588630676,-0.24624620378017426,-0.33483952283859253
1772790329346947000,9.898947021484375,-0.5368900895118713,0.5466386675834656,0.11222784221172333
1772790329366981000,9.918981201171874,-0.7180315256118774,1.1576937437057495,0.45997971296310425
1772790329387015200,9.93901513671875,-0.8490225672721863,1.633838176727295,0.7497668266296387
1772790329407049200,9.95904931640625,-0.8819108605384827,1.9703258275985718,0.9535647630691528
1772790329427083000,9.9790830078125,-0.8105179071426392,2.1180777549743652,1.0489753484725952
1772790329447117000,9.999116943359375,-0.6869899034500122,2.1142358779907227,1.035134196281433
1772790329467151000,10.019151123046875,-0.46935704350471497,2.068324327468872,0.741518497467041
1772790329487185000,10.039184814453124,-0.16846321523189545,2.0918824672698975,0.15154649317264557
1772790329507219200,10.05921923828125,-0.010144679807126522,2.032160997390747,-0.3700120449066162
1772790329527253200,10.079253173828125,-0.04810279607772827,1.8992925882339478,-0.49351662397384644
1772790329547287000,10.099287109375,-0.0802932158112526,1.886680245399475,-0.3555298149585724
1772790329567320000,10.119320068359375,0.11541970819234848,1.9785218238830566,-0.1486557424068451
1772790329587355100,10.139355224609375,0.5766352415084839,2.051934003829956,0.1073780357837677
1772790329607388000,10.159387939453126,1.1299675703048706,2.0521509647369385,0.3670986592769623
1772790329627422200,10.179422119140625,1.6933220624923706,2.0256638526916504,0.5900322198867798
1772790329647456300,10.199456298828125,2.128248453140259,1.969264268875122,0.7372736930847168
1772790329667490000,10.219489990234376,2.403510093688965,1.884340763092041,0.7572765946388245
1772790329687524000,10.239524169921875,2.546135187149048,1.8165019750595093,0.6240556836128235
1772790329707558100,10.25955810546875,2.6140942573547363,1.8089479207992554,0.29696017503738403
1772790329727592000,10.279592041015626,2.7022523880004883,1.8666819334030151,-0.1833115816116333
1772790329747626500,10.29962646484375,2.7557380199432373,1.8842933177947998,-0.5997350215911865
1772790329767660300,10.319660400390624,2.7543442249298096,1.8265093564987183,-0.821621298789978
1772790329787694300,10.3396943359375,2.7879958152770996,1.6973917484283447,-0.9250438213348389
1772790329807728600,10.359728759765625,2.9387528896331787,1.457321286201477,-1.020056962966919
1772790329827762400,10.379762451171874,3.1759021282196045,1.0782219171524048,-1.1331727504730225
1772790329847796500,10.39979638671875,3.3444299697875977,0.5979692339897156,-1.2029547691345215
1772790329867830500,10.41983056640625,3.395024299621582,0.034597259014844894,-1.1904613971710205
1772790329887864300,10.4398642578125,3.323028326034546,-0.5850643515586853,-1.102017879486084
1772790329907898400,10.4598984375,3.064908981323242,-1.0914851427078247,-0.8970675468444824
1772790329927932400,10.479932373046875,2.5974931716918945,-1.2906595468521118,-0.5997734069824219
1772790329947966500,10.499966552734374,2.0427844524383545,-1.2593905925750732,-0.24916422367095947
1772790329968000500,10.52000048828125,1.6038638353347778,-0.9549954533576965,0.06487153470516205
1772790329988034600,10.54003466796875,1.3165498971939087,-0.47381725907325745,0.36068958044052124
1772790330008068400,10.560068359375,1.1781989336013794,0.02092546597123146,0.5983383059501648
1772790330028102400,10.580102294921875,1.1253173351287842,0.3997519314289093,0.6606821417808533
1772790330048136400,10.600136474609375,1.052905797958374,0.6812077164649963,0.39095377922058105
1772790330068170500,10.62017041015625,0.7606265544891357,0.7386261820793152,-0.20515362918376923
1772790330088204300,10.640204345703125,0.2641126811504364,0.4828694760799408,-0.6012213230133057
1772790330108238300,10.66023828125,-0.1691923886537552,0.171824648976326,-0.6927788853645325
1772790330128272600,10.680272705078124,-0.5426449179649353,-0.11969701945781708,-0.5888816118240356
1772790330148306400,10.700306396484375,-0.9834269881248474,-0.4193679392337799,-0.351656973361969
1772790330168340500,10.720340576171875,-1.3742539882659912,-0.670088529586792,-0.1966320425271988
1772790330188374500,10.74037451171875,-1.6825751066207886,-0.8513938784599304,-0.16392457485198975
1772790330208408300,10.760408203125,-1.9037041664123535,-0.9463324546813965,-0.29617494344711304
1772790330228442400,10.7804423828125,-2.034402847290039,-0.9309693574905396,-0.5852684378623962
1772790330248476400,10.800476318359374,-2.1457698345184326,-0.8870564699172974,-0.9587515592575073
1772790330268510500,10.820510498046875,-2.3313987255096436,-0.8447673320770264,-1.301317572593689
1772790330288544500,10.84054443359375,-2.7724361419677734,-0.7777149081230164,-1.5040066242218018
1772790330308578600,10.86057861328125,-3.367794990539551,-0.5224812030792236,-1.5059667825698853
1772790330328612400,10.8806123046875,-3.9075868129730225,-0.15508821606636047,-1.2910258769989014
1772790330348646400,10.900646484375,-4.286010265350342,0.28523531556129456,-0.8779136538505554
1772790330368680400,10.920680419921876,-4.470884799957275,0.633444607257843,-0.3446451723575592
1772790330388714200,10.94071435546875,-4.520545959472656,0.7838062644004822,0.23525650799274445
1772790330408748300,10.960748291015625,-4.432221412658691,0.7225371599197388,0.8172444701194763
1772790330428782300,10.9807822265625,-4.264547824859619,0.44954749941825867,1.3329534530639648
1772790330448816600,11.000816650390625,-4.1612982749938965,0.08193723857402802,1.616640329360962
1772790330468849400,11.020849365234374,-4.049981594085693,-0.3201752007007599,1.6799490451812744
1772790330488883500,11.040883544921876,-3.7961649894714355,-0.658627450466156,1.5739887952804565
1772790330508917200,11.060917236328125,-3.3353264331817627,-0.9785527586936951,1.4001131057739258
1772790330528951300,11.080951416015624,-2.61796498298645,-1.3740031719207764,1.1748417615890503
1772790330548985600,11.100985595703126,-1.7916232347488403,-1.8627355098724365,0.8391630053520203
1772790330569019400,11.121019287109375,-1.1120390892028809,-2.3810009956359863,0.3312532603740692
1772790330589053400,11.141053466796874,-0.6983656883239746,-2.9465811252593994,-0.2600458562374115
1772790330609087500,11.16108740234375,-0.6209256649017334,-3.439438819885254,-0.822726309299469
1772790330629121500,11.18112158203125,-0.7330196499824524,-3.6810665130615234,-1.332872986793518
1772790330649155300,11.2011552734375,-0.7723816633224487,-3.5880260467529297,-1.5955530405044556
1772790330669189400,11.221189453125,-0.7080162167549133,-3.0925076007843018,-1.604707956314087
1772790330689223400,11.241223388671875,-0.4065241813659668,-2.1597206592559814,-1.531572937965393
1772790330709257500,11.261257568359374,-0.13931116461753845,-0.9509326219558716,-1.2881569862365723
1772790330729291500,11.28129150390625,0.05574733391404152,0.2321256399154663,-0.8007234930992126
1772790330749325800,11.301325927734375,0.287077933549881,1.2200987339019775,-0.16361480951309204
1772790330769359600,11.321359619140624,0.6781339049339294,1.9354647397994995,0.3983379304409027
1772790330789393700,11.3413935546875,1.1377872228622437,2.314803123474121,0.7598881125450134
1772790330809427700,11.361427734375,1.5634950399398804,2.331695079803467,0.855954110622406
1772790330829461500,11.38146142578125,1.883718490600586,2.102018356323242,0.6807133555412292
1772790330849495600,11.40149560546875,2.101541042327881,1.7638120651245117,0.30576562881469727
1772790330869529600,11.421529541015625,2.210453748703003,1.376463770866394,-0.11365537345409393
1772790330889564000,11.44156396484375,2.3000810146331787,1.0803313255310059,-0.40800347924232483
1772790330909597700,11.46159765625,2.46012282371521,0.9220889806747437,-0.5044925808906555
1772790330929631700,11.4816318359375,2.724520444869995,0.8711275458335876,-0.4438289403915405
1772790330949665800,11.501665771484374,2.9982216358184814,0.8288881778717041,-0.2413223385810852
1772790330969699600,11.521699462890625,3.238534688949585,0.7971024513244629,0.08045440167188644
1772790330989733600,11.541733642578125,3.443119764328003,0.8399631381034851,0.4296838045120239
1772790331009767700,11.561767578125,3.626254081726074,0.9512952566146851,0.6800089478492737
1772790331029801700,11.5818017578125,3.7089099884033203,1.1079093217849731,0.8678877949714661
1772790331049835800,11.601835693359375,3.7509872913360596,1.2922924757003784,0.9882799386978149
1772790331069869800,11.621869873046874,3.838557004928589,1.3684650659561157,0.9624142050743103
1772790331089903600,11.641903564453125,3.975389242172241,1.3371258974075317,0.8302810192108154
1772790331109937700,11.661937744140625,4.087650775909424,1.1474038362503052,0.6452124714851379
1772790331129971700,11.6819716796875,4.130718231201172,0.8251539468765259,0.42468640208244324
1772790331150005500,11.702005615234375,4.079798698425293,0.3259468674659729,0.2068784534931183
1772790331170039600,11.72203955078125,3.889650583267212,-0.2562505900859833,0.05128275230526924
1772790331190073900,11.742073974609376,3.517223596572876,-0.8096269369125366,0.0032557975500822067
1772790331210107600,11.762107666015625,3.0008835792541504,-1.2113118171691895,-0.03302745893597603
1772790331230140700,11.782140625,2.499439239501953,-1.42889404296875,-0.12301474809646606
1772790331250175700,11.80217578125,2.0880930423736572,-1.4588627815246582,-0.16244956851005554
1772790331270208500,11.82220849609375,1.7821087837219238,-1.1576260328292847,-0.07119155675172806
1772790331290242600,11.84224267578125,1.5588933229446411,-0.6135586500167847,0.1492931991815567
1772790331310276900,11.86227685546875,1.2940548658370972,-0.02962404116988182,0.4160845875740051
1772790331330310700,11.882310546875,0.9002894163131714,0.4332875609397888,0.6237659454345703
1772790331350344700,11.9023447265625,0.3708747923374176,0.7059009671211243,0.6896097660064697
1772790331370378800,11.922378662109375,-0.18407770991325378,0.7371498942375183,0.6647361516952515
1772790331390412500,11.94241259765625,-0.6903038024902344,0.6277639269828796,0.5242781639099121
1772790331410446600,11.962446533203124,-1.1188873052597046,0.5140179395675659,0.06635530292987823
1772790331430480600,11.982480712890625,-1.5468217134475708,0.44195830821990967,-0.5437703132629395
1772790331450511600,12.00251171875,-2.1080799102783203,0.11868713796138763,-0.8223924040794373
1772790331470545700,12.022545654296875,-2.7746009826660156,-0.3074414134025574,-0.8422554135322571
1772790331490579700,12.042579833984375,-3.430232048034668,-0.6495028138160706,-0.8510472774505615
1772790331510613800,12.06261376953125,-3.9243788719177246,-0.8508749008178711,-0.89134281873703
1772790331530647800,12.082647705078125,-4.210089683532715,-0.958672046661377,-0.9933245778083801
1772790331550681600,12.102681640625,-4.326961994171143,-0.990237832069397,-1.1251622438430786
1772790331570715600,12.122715576171874,-4.29159688949585,-0.9012429714202881,-1.3411563634872437
1772790331590749700,12.142749755859375,-4.123068332672119,-0.6828413009643555,-1.6523044109344482
1772790331610783500,12.162783447265625,-4.017411231994629,-0.3308967053890228,-1.756821632385254
1772790331630817500,12.182817626953126,-4.061645030975342,0.09779038280248642,-1.4750971794128418
1772790331650851800,12.202851806640625,-4.067907810211182,0.6693638563156128,-0.8999360203742981
1772790331670885600,12.2228857421875,-3.852872133255005,1.272698163986206,-0.2454732060432434
1772790331690919700,12.242919677734376,-3.2702627182006836,1.6166609525680542,0.30322057008743286
1772790331710953700,12.26295361328125,-2.4201207160949707,1.4964878559112549,0.6777883768081665
1772790331730986500,12.282986572265624,-1.4863042831420898,0.8440762758255005,0.7554739117622375
1772790331751020300,12.303020263671876,-0.7014923095703125,-0.14479094743728638,0.498125284910202
1772790331771054300,12.323054443359375,-0.2082291692495346,-1.325749158859253,-0.04648086801171303
1772790331791088000,12.343088134765624,-0.006442469544708729,-2.483463764190674,-0.7254443764686584
1772790331811122200,12.3631220703125,-0.11499953269958496,-3.5203747749328613,-1.3044700622558594
1772790331831156200,12.38315625,-0.5719901919364929,-4.2801432609558105,-1.7226347923278809
1772790331851190000,12.40318994140625,-1.1863702535629272,-4.664094924926758,-2.068833112716675
1772790331871225000,12.42322509765625,-1.6780202388763428,-4.702916145324707,-2.328782558441162
1772790331891259100,12.443259033203125,-1.8733314275741577,-4.403773784637451,-2.4132511615753174
1772790331911293200,12.463293212890624,-1.7660026550292969,-3.7675485610961914,-2.284226179122925
1772790331931327200,12.4833271484375,-1.5543423891067505,-2.8569517135620117,-1.8991203308105469
1772790331951361300,12.503361328125,-1.4238629341125488,-1.8583937883377075,-1.313072681427002
1772790331971395300,12.523395263671874,-1.3868789672851562,-0.810762345790863,-0.6455197930335999
1772790331991429000,12.54342919921875,-1.3221869468688965,0.08887707442045212,0.06026049330830574
1772790332011463200,12.563463134765625,-1.2799649238586426,0.891234815120697,0.6578920483589172
1772790332031497200,12.583497314453124,-1.1750071048736572,1.5002800226211548,1.1290361881256104
1772790332051531000,12.603531005859375,-0.9517061710357666,1.7934074401855469,1.4722124338150024
1772790332071565000,12.62356494140625,-0.48351845145225525,1.7947585582733154,1.5316919088363647
1772790332091599000,12.64359912109375,-0.06763210892677307,1.6176034212112427,1.3176113367080688
1772790332111633200,12.663633056640625,0.20570488274097443,1.1489288806915283,0.9713395237922668
1772790332131667200,12.683667236328125,0.3893008232116699,0.4673442542552948,0.6100714206695557
1772790332151701200,12.703701171875,0.5834037661552429,-0.17532245814800262,0.19482116401195526
1772790332171735300,12.7237353515625,0.9239510893821716,-0.6857351064682007,-0.2733575999736786
1772790332191769000,12.74376904296875,1.3026885986328125,-1.0812190771102905,-0.6259019374847412
1772790332211803100,12.76380322265625,1.578128457069397,-1.333268642425537,-0.7861802577972412
1772790332231837200,12.783837158203125,1.6515421867370605,-1.3851572275161743,-0.79710453748703
1772790332251871200,12.803871337890625,1.6000216007232666,-1.2286161184310913,-0.7033843398094177
1772790332271905300,12.8239052734375,1.588465690612793,-0.7877098917961121,-0.505683958530426
1772790332291939300,12.843939208984375,1.653815507888794,-0.10762340575456619,-0.2389046549797058
1772790332311973000,12.86397314453125,1.7465455532073975,0.767916202545166,0.08230110257863998
1772790332332007200,12.884007080078124,1.751974105834961,1.6847951412200928,0.5184842944145203
1772790332352041200,12.904041259765625,1.680046558380127,2.576885938644409,1.1030054092407227
1772790332372075000,12.924074951171875,1.599424958229065,3.39241886138916,1.7131174802780151
1772790332392109000,12.944109130859376,1.6765236854553223,4.144160270690918,2.17925763130188
1772790332412143000,12.96414306640625,1.9048384428024292,4.720974922180176,2.4797656536102295
1772790332432177200,12.98417724609375,2.249781847000122,4.953795433044434,2.5793802738189697
1772790332452211200,13.004211181640626,2.676172971725464,4.880415439605713,2.3635988235473633
1772790332472245200,13.024245361328125,3.1288154125213623,4.5308837890625,1.8727599382400513
1772790332492279300,13.044279296875,3.5195605754852295,3.848872184753418,1.1756298542022705
1772790332512313000,13.06431298828125,3.729696273803711,2.8495395183563232,0.3652034401893616
1772790332532347100,13.08434716796875,3.7447328567504883,1.6369019746780396,-0.4667341411113739
1772790332552381200,13.104381103515625,3.586613416671753,0.2961626648902893,-1.1778385639190674
1772790332572414200,13.124414306640626,3.292670726776123,-0.9826786518096924,-1.7055524587631226
1772790332592448300,13.1444482421875,2.8378400802612305,-1.9857821464538574,-2.0103952884674072
1772790332612482000,13.16448193359375,2.4887545108795166,-2.5897083282470703,-2.1404590606689453
1772790332632516000,13.18451611328125,2.305600881576538,-2.729083299636841,-1.9465951919555664
1772790332652550100,13.204550048828125,2.1363513469696045,-2.4036927223205566,-1.3592183589935303
1772790332672584200,13.224584228515624,1.9199399948120117,-1.7090030908584595,-0.5700902342796326
1772790332692618200,13.2446181640625,1.6686762571334839,-1.002523422241211,0.11055949330329895
1772790332712652300,13.26465234375,1.372626543045044,-0.518191397190094,0.47736215591430664
1772790332732686300,13.284686279296874,1.1109423637390137,-0.21788665652275085,0.5848786234855652
1772790332752720400,13.304720458984375,1.0021780729293823,-0.02547254040837288,0.31659996509552
1772790332772754400,13.32475439453125,0.8174843788146973,0.09765226393938065,-0.09554123133420944
1772790332792788200,13.344788330078124,0.36374229192733765,0.005272991023957729,-0.12108080089092255
1772790332812822300,13.364822265625,-0.29223302006721497,-0.19711866974830627,0.3167824149131775
1772790332832856300,13.384856201171875,-1.0416285991668701,-0.38144633173942566,0.9225706458091736
1772790332852890400,13.404890380859374,-1.6471937894821167,-0.4959219694137573,1.2998385429382324
1772790332872924400,13.42492431640625,-2.084080934524536,-0.6209293603897095,1.3382655382156372
1772790332892958500,13.44495849609375,-2.4899988174438477,-0.8471445441246033,1.1288317441940308
1772790332912992300,13.4649921875,-2.922555446624756,-1.1320409774780273,0.7246918678283691
1772790332933026300,13.4850263671875,-3.26072096824646,-1.2938241958618164,0.17445454001426697
1772790332953060400,13.505060302734375,-3.484506607055664,-1.2512704133987427,-0.44029539823532104
1772790332973094400,13.525094482421874,-3.598203659057617,-0.916181743144989,-1.0235681533813477
1772790332993128200,13.545128173828125,-3.640458822250366,-0.3619242310523987,-1.4445699453353882
1772790333013162500,13.56516259765625,-3.664705514907837,0.3028229773044586,-1.5177916288375854
1772790333033196500,13.585196533203124,-3.6440584659576416,0.8903736472129822,-1.1337453126907349
1772790333053230300,13.605230224609375,-3.436333417892456,1.2434636354446411,-0.4610162377357483
1772790333073264400,13.625264404296875,-3.0497701168060303,1.2372366189956665,0.21942690014839172
1772790333093298400,13.64529833984375,-2.491405963897705,0.8395057320594788,0.7097473740577698
1772790333113332200,13.665332275390625,-1.8681567907333374,0.21901506185531616,0.9681845307350159
1772790333133366300,13.6853662109375,-1.3377999067306519,-0.4452708661556244,0.99587482213974
1772790333153400300,13.705400390625,-0.9212157130241394,-1.0552926063537598,0.8444468975067139
1772790333173434400,13.725434326171875,-0.6828501224517822,-1.5765221118927002,0.5350357890129089
1772790333193467400,13.74546728515625,-0.6115449070930481,-2.011399984359741,0.11600348353385925
1772790333213501400,13.76550146484375,-0.7118144631385803,-2.316258668899536,-0.31948938965797424
1772790333233535200,13.78553515625,-0.9174163341522217,-2.5021936893463135,-0.6825920939445496
1772790333253569300,13.8055693359375,-1.1531615257263184,-2.493809938430786,-0.9445077776908875
1772790333273603300,13.825603271484376,-1.4148197174072266,-2.338693141937256,-1.0472450256347656
1772790333293637400,13.845637451171875,-1.6649513244628906,-2.0822086334228516,-0.9846065640449524
1772790333313671400,13.86567138671875,-1.823757290840149,-1.6948022842407227,-0.7928637266159058
1772790333333705500,13.88570556640625,-1.7466660737991333,-1.103121280670166,-0.49840232729911804
1772790333353739300,13.9057392578125,-1.4390904903411865,-0.3836246430873871,-0.20243805646896362
1772790333373773300,13.925773193359374,-1.0031969547271729,0.4865707457065582,-0.018566759303212166
1772790333393807400,13.945807373046875,-0.7309057712554932,1.235926628112793,0.27563828229904175
1772790333413841200,13.965841064453125,-0.5871829986572266,1.7715039253234863,0.772568941116333
1772790333433875200,13.985875244140624,-0.33666375279426575,2.1243207454681396,1.2504796981811523
1772790333453909500,14.005909423828125,0.1689608097076416,2.1705265045166016,1.4694243669509888
1772790333473943300,14.025943359375,0.8866731524467468,1.8754537105560303,1.3845728635787964
1772790333493977300,14.045977294921874,1.6011732816696167,1.3536982536315918,1.0150667428970337
1772790333514011400,14.066011474609375,2.177830457687378,0.7009158730506897,0.4087618291378021
1772790333534045400,14.08604541015625,2.5882880687713623,-0.017370296642184258,-0.33894166350364685
1772790333554079200,14.106079345703124,2.8561108112335205,-0.6583496928215027,-1.0541917085647583
1772790333574113300,14.12611328125,3.003488779067993,-1.1699130535125732,-1.5818113088607788
1772790333594147300,14.146147216796875,3.0867083072662354,-1.5083824396133423,-1.8810728788375854
1772790333614181400,14.166181396484374,3.1403167247772217,-1.6178768873214722,-1.897990107536316
1772790333634215400,14.18621533203125,3.1736509799957275,-1.5040150880813599,-1.5838172435760498
1772790333654249500,14.20624951171875,3.1851956844329834,-1.1398638486862183,-1.0155988931655884
1772790333674283300,14.226283203125,3.2481985092163086,-0.6372872591018677,-0.3712979257106781
1772790333694317300,14.2463173828125,3.3724889755249023,-0.11174193024635315,0.16141246259212494
1772790333714351400,14.266351318359375,3.461644411087036,0.3359391987323761,0.5007980465888977
1772790333734385200,14.28638525390625,3.4392664432525635,0.665252685546875,0.7101010084152222
1772790333754418400,14.30641845703125,3.2983169555664062,0.8289920091629028,0.7868686318397522
1772790333774452500,14.326452392578124,3.069334030151367,0.8867130875587463,0.6998410820960999
1772790333794486300,14.346486328125,2.7535808086395264,0.8628585338592529,0.5001871585845947
1772790333814520300,14.366520263671875,2.35705304145813,0.7389639616012573,0.2988842725753784
1772790333834554400,14.386554443359374,1.8946772813796997,0.48520249128341675,0.14777562022209167
1772790333854588200,14.406588134765625,1.4438672065734863,0.18468065559864044,-0.02417595311999321
1772790333874622500,14.42662255859375,1.013724684715271,-0.1428806036710739,-0.22203052043914795
1772790333894656500,14.446656494140624,0.5155352354049683,-0.45468658208847046,-0.37113624811172485
1772790333914690300,14.466690185546875,-0.08402759581804276,-0.7162582874298096,-0.43894168734550476
1772790333934724400,14.486724365234375,-0.7231272459030151,-0.816304624080658,-0.46381625533103943
1772790333954758400,14.50675830078125,-1.353135108947754,-0.7749305963516235,-0.4343382716178894
1772790333974792200,14.526792236328125,-1.8698062896728516,-0.5749790668487549,-0.31486776471138
1772790333994826200,14.546826171875,-2.2154836654663086,-0.2242785543203354,-0.16936184465885162
1772790334014860300,14.5668603515625,-2.4267003536224365,0.22251445055007935,-0.02723555639386177
1772790334034894600,14.58689453125,-2.6156301498413086,0.7283344268798828,0.12583062052726746
1772790334054928400,14.606928466796875,-2.8667550086975098,1.2221893072128296,0.3277420997619629
1772790334074962400,14.62696240234375,-3.137718915939331,1.7068946361541748,0.6353346109390259
1772790334094996500,14.64699658203125,-3.3701930046081543,2.190373659133911,1.0976532697677612
1772790334115030300,14.6670302734375,-3.511145830154419,2.573631763458252,1.679147481918335
1772790334135064300,14.687064208984374,-3.468871831893921,2.718036651611328,2.2691056728363037
1772790334155098400,14.707098388671875,-3.148153781890869,2.5389864444732666,2.7448606491088867
1772790334175132200,14.727132080078125,-2.626295804977417,1.9843474626541138,2.9568581581115723
1772790334195166500,14.74716650390625,-1.9805150032043457,1.206108570098877,2.7186079025268555
1772790334215200500,14.767200439453125,-1.365190863609314,0.5424425601959229,1.7073842287063599
1772790334235234300,14.787234375,-0.6774963140487671,-0.05168367549777031,-0.046447884291410446
1772790334255268400,14.807268310546876,-0.3611939251422882,-1.353129506111145,-1.426550269126892
1772790334275302400,14.827302490234375,-0.4178614020347595,-2.9628496170043945,-2.229367256164551
1772790334295335200,14.847335205078124,-0.6139870285987854,-4.381227970123291,-2.6444242000579834
1772790334315369500,14.867369384765626,-0.8232309222221375,-5.51943826675415,-2.7577130794525146
1772790334335403500,14.887403564453125,-0.9467389583587646,-6.200096130371094,-2.686542510986328
1772790334355437300,14.907437255859374,-1.0351821184158325,-6.37278413772583,-2.510219097137451
1772790334375471400,14.927471435546876,-1.017348289489746,-5.893937587738037,-2.256303310394287
1772790334395505400,14.94750537109375,-0.8123303651809692,-4.869424343109131,-1.9115257263183594
1772790334415539200,14.967539306640624,-0.44359537959098816,-3.4766507148742676,-1.4884862899780273
1772790334435573200,14.9875732421875,0.04096990078687668,-1.821397304534912,-1.1410075426101685
1772790334455607300,15.007607177734375,0.5991334319114685,-0.1032935231924057,-1.0218724012374878
1772790334475641300,15.027641357421874,1.0587197542190552,1.249654769897461,-1.0377944707870483
1772790334495675400,15.04767529296875,1.1662979125976562,2.01106595993042,-0.9169941544532776
1772790334515709400,15.06770947265625,0.956475019454956,2.2428035736083984,-0.6163876056671143
1772790334535743200,15.0877431640625,0.6362934112548828,1.9740092754364014,-0.23450309038162231
1772790334555777300,15.10777734375,0.40088847279548645,1.378110647201538,0.11919763684272766
1772790334575811300,15.127811279296875,0.32413414120674133,0.6426295042037964,0.3662303686141968
1772790334595845400,15.147845458984374,0.27252253890037537,-0.07937926799058914,0.47925156354904175
1772790334615879400,15.16787939453125,0.15415938198566437,-0.6788122057914734,0.4377988874912262
1772790334635913500,15.18791357421875,0.006669727619737387,-1.0832998752593994,0.2690660059452057
1772790334655947500,15.207947509765624,-0.18756188452243805,-1.3050943613052368,0.0010899882763624191
1772790334675981300,15.227981201171875,-0.31602513790130615,-1.2787847518920898,-0.23007991909980774
1772790334696015400,15.248015380859375,-0.3237917423248291,-1.089962124824524,-0.3292974829673767
1772790334716049400,15.26804931640625,-0.27143093943595886,-0.772190272808075,-0.261027455329895
1772790334736083200,15.288083251953125,-0.217394158244133,-0.39096659421920776,-0.10323823988437653
1772790334756118300,15.3081181640625,-0.19541776180267334,-0.022483622655272484,0.02869422733783722
1772790334776152000,15.328152099609374,-0.2358824461698532,0.2914716899394989,0.05715545266866684
1772790334796185300,15.348185302734375,-0.293274849653244,0.605124831199646,0.02672201208770275
1772790334816219400,15.368219482421875,-0.38138315081596375,0.8269132375717163,0.05205158144235611
1772790334836253200,15.388253173828126,-0.4764220416545868,0.9971432089805603,0.2230043113231659
1772790334856287200,15.408287353515625,-0.5312961935997009,1.0254665613174438,0.4850969612598419
1772790334876321300,15.4283212890625,-0.5371294617652893,0.9208394289016724,0.6729295253753662
1772790334896355000,15.44835498046875,-0.49315813183784485,0.7645819783210754,0.6261703968048096
1772790334916389000,15.46838916015625,-0.31072553992271423,0.7564595937728882,0.16018277406692505
1772790334936423400,15.48842333984375,-0.18117587268352509,0.8799039721488953,-0.4333685040473938
1772790334956457200,15.508457275390626,-0.2834162712097168,0.952629804611206,-0.6693464517593384
1772790334976491300,15.5284912109375,-0.4517477750778198,1.0571452379226685,-0.5526686906814575
1772790334996525300,15.548525390625,-0.5036298036575317,1.2722152471542358,-0.30044516921043396
1772790335016559000,15.56855908203125,-0.35604122281074524,1.5409103631973267,0.01282621268182993
1772790335036593200,15.58859326171875,0.04169140011072159,1.6539268493652344,0.3727169334888458
1772790335056627200,15.608627197265625,0.5067115426063538,1.6267321109771729,0.7584630250930786
1772790335076661000,15.628660888671876,0.9210598468780518,1.5915004014968872,1.1222538948059082
1772790335096695300,15.6486953125,1.272480845451355,1.6018015146255493,1.3914273977279663
1772790335116729300,15.668729248046875,1.5390355587005615,1.6583751440048218,1.541792869567871
1772790335136763400,15.688763427734376,1.7521473169326782,1.827574372291565,1.6427141427993774
1772790335156797200,15.708797119140625,1.927565574645996,2.163675546646118,1.7897812128067017
1772790335176831200,15.728831298828124,2.125509262084961,2.630918025970459,1.9642102718353271
1772790335196865300,15.748865234375,2.3285701274871826,3.16789174079895,2.1304826736450195
1772790335216899000,15.768899169921875,2.517660140991211,3.649672269821167,2.2642822265625
1772790335236933000,15.78893310546875,2.6746556758880615,3.891345262527466,2.3440699577331543
1772790335256966100,15.808966064453125,2.731008529663086,3.954963207244873,2.260126829147339
1772790335277000200,15.829000244140625,2.745042562484741,3.873356819152832,1.9210081100463867
1772790335297034200,15.8490341796875,2.7287771701812744,3.706345796585083,1.4539519548416138
1772790335317068300,15.869068359375,2.7571959495544434,3.4215173721313477,1.1261080503463745
1772790335337102000,15.88910205078125,2.7099149227142334,2.9627416133880615,0.9830905199050903
1772790335357136100,15.90913623046875,2.554576873779297,2.4183032512664795,0.946337878704071
1772790335377170400,15.92917041015625,2.4278903007507324,1.8748706579208374,0.7976089715957642
1772790335397204200,15.949204345703125,2.1756999492645264,1.579737663269043,0.26506999135017395
1772790335417238300,15.96923828125,1.826728105545044,1.233994483947754,-0.35006290674209595
1772790335437272300,15.989272216796875,1.5034608840942383,0.9055484533309937,-0.7233026623725891
1772790335457305000,16.00930517578125,1.2960097789764404,0.6857882142066956,-0.8801183700561523
1772790335477339400,16.02933935546875,1.0589396953582764,0.620140790939331,-0.8899637460708618
1772790335497373200,16.049373291015623,0.9349162578582764,0.25978851318359375,-0.7132318615913391
1772790335517407200,16.0694072265625,0.8338907957077026,-0.0912909284234047,-0.5099985003471375
1772790335537441300,16.089441162109374,0.7353296279907227,-0.35906898975372314,-0.19411295652389526
1772790335557475300,16.109475341796873,0.6732291579246521,-0.5220770239830017,0.19213223457336426
1772790335577509000,16.129509033203124,0.41828271746635437,-0.5749568343162537,0.3968166410923004
1772790335597543200,16.149543212890624,0.024860378354787827,-0.6403988003730774,0.41388052701950073
1772790335617577200,16.1695771484375,-0.2101915180683136,-0.7827120423316956,0.19453726708889008
1772790335637610200,16.1896103515625,-0.4874040186405182,-0.8278158903121948,-0.024316322058439255
1772790335657644300,16.209644287109374,-0.8293051719665527,-0.9384390115737915,-0.1373242288827896
1772790335677678000,16.229677978515625,-1.137978196144104,-1.1616190671920776,-0.08691699802875519
1772790335697712000,16.249712158203124,-1.3037109375,-1.4269393682479858,0.03029872104525566
1772790335717746200,16.26974609375,-1.5107375383377075,-1.5345911979675293,0.21084603667259216
1772790335737780200,16.2897802734375,-1.7217950820922852,-1.596717357635498,0.443901002407074
1772790335757814000,16.30981396484375,-1.8976378440856934,-1.6422256231307983,0.6443275809288025
1772790335777848000,16.32984814453125,-2.0223889350891113,-1.5201226472854614,0.7649211883544922
1772790335797886000,16.349885986328125,-2.05134916305542,-1.2620272636413574,0.7405477166175842
1772790335817919000,16.3699189453125,-2.0292983055114746,-0.8923099040985107,0.5235983729362488
1772790335837953000,16.389953125,-2.039440870285034,-0.40167295932769775,0.184903085231781
1772790335857986800,16.40998681640625,-2.0858356952667236,0.20731791853904724,-0.17064937949180603
1772790335878021000,16.430021240234375,-2.1516129970550537,0.9168683886528015,-0.4123196601867676
1772790335898055200,16.45005517578125,-2.0847604274749756,1.5283904075622559,-0.4839074909687042
1772790335918089000,16.4700888671875,-1.8630303144454956,1.791802167892456,-0.3687798082828522
1772790335938123000,16.490123046875,-1.5604383945465088,1.6226121187210083,-0.1648038625717163
1772790335958157000,16.510156982421876,-1.2156851291656494,1.0375447273254395,-0.026820778846740723
1772790335978190800,16.53019091796875,-0.8659008145332336,0.3055770993232727,-0.11342218518257141
1772790335998225000,16.550224853515626,-0.572731077671051,-0.3784922659397125,-0.34117603302001953
1772790336018259000,16.570259033203126,-0.36977747082710266,-0.966863214969635,-0.5372318029403687
1772790336038293000,16.59029296875,-0.27856287360191345,-1.447945237159729,-0.6211602687835693
1772790336058327000,16.6103271484375,-0.29041972756385803,-1.7282793521881104,-0.6223497986793518
1772790336078361000,16.630361083984376,-0.30596551299095154,-1.7846877574920654,-0.5570651292800903
1772790336098395000,16.650394775390627,-0.24208469688892365,-1.6732475757598877,-0.3859075605869293
1772790336118429000,16.670428955078126,-0.21124032139778137,-1.2827813625335693,-0.05228907987475395
1772790336138463000,16.690462890625,-0.2557232677936554,-0.7349448204040527,0.3113647699356079
1772790336158496800,16.710496826171877,-0.31774598360061646,-0.15556009113788605,0.5662424564361572
1772790336178530800,16.73053076171875,-0.42785215377807617,0.2902125418186188,0.6254212260246277
1772790336198565000,16.750565185546876,-0.6067840456962585,0.6144605278968811,0.4931624233722687
1772790336218599200,16.77059912109375,-0.7625513076782227,0.7356651425361633,0.22178879380226135
1772790336238633000,16.790633056640626,-0.9226341843605042,0.8249611854553223,0.0031517869792878628
1772790336258667000,16.8106669921875,-1.078065037727356,0.856343686580658,-0.07318342477083206
1772790336278699800,16.83069970703125,-1.1223540306091309,0.8460522294044495,-0.004647812340408564
1772790336298733800,16.85073388671875,-1.0541822910308838,0.7686660885810852,0.1975271850824356
1772790336318768000,16.87076806640625,-0.8772255182266235,0.5339623093605042,0.44115564227104187
1772790336338802000,16.890802001953126,-0.5483481287956238,0.14683163166046143,0.5876852869987488
1772790336358836000,16.9108359375,-0.25920456647872925,-0.2206284999847412,0.3861967921257019
1772790336378870000,16.9308701171875,0.0004600612446665764,-0.49457427859306335,-0.1693749576807022
1772790336398904000,16.950904052734376,-0.0467338040471077,-0.7238669991493225,-0.738274097442627
1772790336418937900,16.970937744140624,-0.1768868863582611,-0.9191368222236633,-1.2846264839172363
1772790336438972000,16.990971923828123,-0.15737193822860718,-0.9330945014953613,-1.675007939338684
1772790336459006000,17.011005859375,0.21172530949115753,-0.8549551963806152,-1.7996118068695068
1772790336479040000,17.0310400390625,0.8420959711074829,-0.5768304467201233,-1.7308259010314941
1772790336499074000,17.051073974609373,1.449371576309204,-0.24966222047805786,-1.423537015914917
1772790336519108000,17.071108154296876,1.8915464878082275,0.03517385572195053,-0.9174308180809021
1772790336539142000,17.091141845703124,2.1260688304901123,0.25884509086608887,-0.37867218255996704
1772790336559176000,17.111176025390623,2.2879936695098877,0.385831743478775,0.025869350880384445
1772790336579210000,17.1312099609375,2.537458896636963,0.462785929441452,0.23835046589374542
1772790336599243800,17.151243896484374,2.8035383224487305,0.4879038333892822,0.3199586570262909
1772790336619278000,17.171278076171873,2.811566114425659,0.700670063495636,0.4912216365337372
1772790336639312100,17.19131201171875,2.0888009071350098,1.273471713066101,0.778103768825531
1772790336659346000,17.211345947265624,1.3085416555404663,1.9165469408035278,0.927742063999176
1772790336679379000,17.23137890625,0.9517038464546204,2.51879620552063,1.0079851150512695
1772790336699413000,17.2514130859375,1.0011961460113525,3.009206771850586,1.1847074031829834
1772790336719446800,17.27144677734375,1.320529818534851,3.3768293857574463,1.4556626081466675
1772790336739481000,17.291481201171877,1.72311270236969,3.596377372741699,1.755014419555664
1772790336759515000,17.311514892578124,2.0922229290008545,3.6618003845214844,1.9629637002944946
1772790336779549000,17.331548828125,2.4053728580474854,3.5539822578430176,1.974082589149475
1772790336799582700,17.351582763671875,2.7159202098846436,3.2554402351379395,1.7724529504776
1772790336819616800,17.37161669921875,2.955230712890625,2.7679903507232666,1.4397002458572388
1772790336839650800,17.39165087890625,2.9458470344543457,2.0752615928649902,1.1111199855804443
1772790336859684600,17.4116845703125,2.7795329093933105,1.394588589668274,0.7897060513496399
1772790336879718700,17.43171875,2.4170243740081787,0.7334513664245605,0.43908050656318665
1772790336899753000,17.4517529296875,1.6976051330566406,0.10550811141729355,0.13500599563121796
1772790336919786800,17.471786865234375,1.0363099575042725,-0.36959630250930786,-0.1805829405784607
1772790336939820800,17.49182080078125,0.6786375641822815,-0.7970500588417053,-0.4842618703842163
1772790336959854800,17.511854736328125,0.5264440178871155,-1.2685463428497314,-0.5977042317390442
1772790336979889000,17.531888916015625,0.4831790030002594,-1.7166765928268433,-0.44578075408935547
1772790336999922700,17.551922607421876,0.4114221930503845,-2.094306230545044,-0.1282416433095932
1772790337019956700,17.571956787109375,0.3010050356388092,-2.3651297092437744,0.17847535014152527
1772790337039990800,17.59199072265625,0.17408350110054016,-2.510476589202881,0.3638564348220825
1772790337060023800,17.61202392578125,0.05164043605327606,-2.483783483505249,0.4520345628261566
1772790337080057900,17.632057861328125,0.0727277621626854,-2.2988226413726807,0.3759966790676117
1772790337100091600,17.652091552734376,0.08173175156116486,-1.9661039113998413,0.11191868782043457
1772790337120125700,17.672125732421875,-0.32961931824684143,-1.4131582975387573,0.03996679559350014
1772790337140159700,17.69215966796875,-0.8959603309631348,-0.7974439859390259,0.1357966661453247
1772790337160194000,17.712194091796874,-1.2175225019454956,-0.18871024250984192,0.4673770070075989
1772790337180227800,17.732227783203125,-1.2820210456848145,0.33075299859046936,1.0820372104644775
1772790337200262000,17.752261962890625,-1.2013673782348633,0.396440327167511,1.8842357397079468
1772790337220296000,17.7722958984375,-1.3373180627822876,-0.007914116606116295,2.5459237098693848
1772790337240329700,17.792329833984375,-1.9379476308822632,-1.0018830299377441,2.454967498779297
1772790337260363800,17.81236376953125,-2.2010037899017334,-1.6778062582015991,1.299897313117981
1772790337280397800,17.832397705078126,-2.240236282348633,-2.1077888011932373,-0.6577997803688049
1772790337300431600,17.852431640625,-2.3676648139953613,-2.3813822269439697,-2.4182443618774414
1772790337320466000,17.8724658203125,-2.476306676864624,-1.9643198251724243,-3.4990978240966797
1772790337340500000,17.8925,-2.341752529144287,-1.1367852687835693,-3.895273208618164
1772790337360533800,17.91253369140625,-1.9395196437835693,-0.09263388812541962,-3.648331642150879
1772790337380567800,17.93256787109375,-1.4018067121505737,0.7698991298675537,-2.8781964778900146
1772790337400601900,17.952601806640626,-0.8663448691368103,1.3459669351577759,-1.892808198928833
1772790337420634600,17.972634521484373,-0.3943876326084137,1.813344120979309,-1.0671398639678955
1772790337440669000,17.9926689453125,0.031650833785533905,2.0222926139831543,-0.5224965214729309
1772790337460703000,18.012702880859376,0.3507775366306305,1.9386883974075317,-0.13776157796382904
1772790337480736800,18.03273681640625,0.47877052426338196,1.6027143001556396,0.22886639833450317
1772790337500770800,18.052770751953126,0.43977686762809753,1.062516450881958,0.5870382189750671
1772790337520804900,18.072804931640626,0.25055932998657227,0.47421714663505554,0.8127023577690125
1772790337540838700,18.092838623046877,-0.015478665009140968,-0.05935706943273544,0.8714497089385986
1772790337560872700,18.112872802734376,-0.34246769547462463,-0.48799604177474976,0.8690444231033325
1772790337580906800,18.13290673828125,-0.5965073704719543,-0.9014419913291931,0.9041028022766113
1772790337600940800,18.15294091796875,-0.7982376217842102,-1.270264983177185,0.9313317537307739
1772790337620974800,18.172974853515626,-0.9078853726387024,-1.4011954069137573,0.8934954404830933
1772790337641009000,18.1930087890625,-0.9639684557914734,-1.3694214820861816,0.8061174154281616
1772790337661042700,18.213042724609377,-1.0111454725265503,-1.104352593421936,0.7049679160118103
1772790337681076700,18.23307666015625,-1.0881139039993286,-0.6862815022468567,0.6079766750335693
1772790337701110800,18.25311083984375,-1.1267656087875366,-0.1220313161611557,0.3766702115535736
1772790337721144800,18.273144775390627,-1.0210187435150146,0.49051856994628906,0.09857840090990067
1772790337741178600,18.2931787109375,-0.8083466291427612,1.015715479850769,-0.08036638051271439
1772790337761213200,18.313213134765626,-0.5698957443237305,1.3494707345962524,-0.20713971555233002
1772790337781246000,18.333245849609376,-0.21589143574237823,1.4630687236785889,-0.17578227818012238
1772790337801280000,18.353280029296876,0.26491227746009827,1.081152319908142,0.1306300312280655
1772790337821314000,18.37331396484375,0.49930474162101746,0.25942012667655945,0.7667638659477234
1772790337841348000,18.39334814453125,0.39604437351226807,-0.755028247833252,1.3275680541992188
1772790337861382000,18.4133818359375,0.2218252420425415,-1.3059651851654053,1.3000792264938354
1772790337881416200,18.433416259765625,0.4219623804092407,-1.1949578523635864,0.6566760540008545
1772790337901450200,18.4534501953125,0.9641164541244507,-0.24509674310684204,-0.22389401495456696
1772790337921484000,18.473484130859376,1.4244160652160645,0.8410251140594482,-0.6743212342262268
1772790337941518000,18.49351806640625,1.7248347997665405,1.5617053508758545,-0.6244015693664551
1772790337961552100,18.51355224609375,1.8053035736083984,2.034562110900879,-0.4431321620941162
1772790337981586000,18.5335859375,1.7622926235198975,2.3444950580596924,-0.23420821130275726
1772790338001620000,18.553619873046873,1.7387279272079468,2.4851553440093994,0.012108715251088142
1772790338021654000,18.573654052734376,1.7366560697555542,2.489680528640747,0.2706843614578247
1772790338041688000,18.59368798828125,1.773633599281311,2.38474440574646,0.5245643854141235
1772790338061722000,18.61372216796875,1.748305082321167,2.18892502784729,0.692197322845459
1772790338081756200,18.633756103515626,1.6113795042037964,1.9902929067611694,0.7541836500167847
1772790338101789000,18.653788818359374,1.3961559534072876,1.6890232563018799,0.7563357353210449
1772790338121823000,18.673822998046877,1.1637827157974243,1.3218156099319458,0.6389753818511963
1772790338141857000,18.69385693359375,1.0288339853286743,0.9258516430854797,0.35629555583000183
1772790338161891000,18.71389111328125,1.0362576246261597,0.604714035987854,0.047580916434526443
1772790338181925000,18.733925048828127,1.1408631801605225,0.38138049840927124,-0.1626226156949997
1772790338201959200,18.753959228515626,1.314470648765564,0.27481570839881897,-0.250563383102417
1772790338221993000,18.773992919921874,1.5080934762954712,0.13865678012371063,-0.3002178370952606
1772790338242027000,18.794027099609377,1.6734181642532349,-0.013563464395701885,-0.39036300778388977
1772790338262061000,18.81406103515625,1.7389557361602783,-0.2213440090417862,-0.5227530002593994
1772790338282094800,18.8340947265625,1.6986932754516602,-0.4604629576206207,-0.6502958536148071
1772790338302129200,18.854129150390627,1.5548858642578125,-0.6292704343795776,-0.8013857007026672
1772790338322163200,18.8741630859375,1.398990511894226,-0.7861371636390686,-0.9239183068275452
1772790338342197000,18.894197021484374,1.263518214225769,-0.9998350143432617,-0.9429647326469421
1772790338362231000,18.91423095703125,1.0642898082733154,-1.1413377523422241,-0.909486711025238
1772790338382265000,18.93426513671875,0.7467480897903442,-1.1081589460372925,-0.8378753066062927
1772790338402299100,18.954299072265623,0.37913453578948975,-1.0068027973175049,-0.7563251256942749
1772790338422332200,18.974332275390626,0.10947452485561371,-0.8756458163261414,-0.6608242988586426
1772790338442366200,18.9943662109375,-0.03473662585020065,-0.7513425350189209,-0.5110073685646057
1772790338462400000,19.01439990234375,-0.05676399543881416,-0.6554872989654541,-0.3105463981628418
1772790338482434000,19.03443408203125,0.01633819006383419,-0.5778516530990601,-0.2696791887283325
1772790338502468000,19.054468017578124,-0.0513724610209465,-0.44344019889831543,-0.36904972791671753
1772790338522502000,19.074501953125,-0.534551739692688,-0.4345915913581848,-0.1678050011396408
1772790338542536000,19.094535888671874,-1.2092148065567017,-0.4574916660785675,0.20576979219913483
1772790338562570000,19.114570068359374,-1.7917386293411255,-0.5708267092704773,0.39151984453201294
1772790338582604300,19.134604248046877,-2.1749000549316406,-0.7342697978019714,0.32715144753456116
1772790338602638000,19.15463818359375,-2.425482749938965,-0.9589769244194031,0.17339035868644714
1772790338622672100,19.174672119140624,-2.6515281200408936,-1.2057690620422363,-0.017413798719644547
1772790338642706200,19.1947060546875,-2.8312575817108154,-1.342451572418213,-0.3325429856777191
1772790338662740000,19.214739990234374,-2.9742491245269775,-1.228196144104004,-0.670661449432373
1772790338682774000,19.23477392578125,-3.039334774017334,-0.8865739703178406,-0.8146623969078064
1772790338702808000,19.25480810546875,-2.994904041290283,-0.3629457354545593,-0.7227277755737305
1772790338722841000,19.274841064453124,-2.8072547912597656,0.284472793340683,-0.5250422954559326
1772790338742875100,19.294875244140623,-2.3706929683685303,0.9650601148605347,-0.3429211378097534
1772790338762909000,19.314908935546875,-1.6591293811798096,1.5961610078811646,-0.1284034550189972
1772790338782943000,19.33494287109375,-0.9163872003555298,1.8367016315460205,0.2280038595199585
1772790338802976800,19.354976806640625,-0.3569539189338684,1.6170921325683594,0.5324268341064453
1772790338823010800,19.3750107421875,0.006723519880324602,1.2484782934188843,0.5717746615409851
1772790338843045000,19.395045166015624,0.240849569439888,0.8176812529563904,0.35257792472839355
1772790338863079000,19.415078857421875,0.3452962040901184,0.36960113048553467,0.018245235085487366
1772790338883113000,19.435113037109375,0.3106337785720825,-0.09475520253181458,-0.3410245478153229
1772790338903147000,19.45514697265625,0.1441602259874344,-0.47351694107055664,-0.6485069990158081
1772790338923180800,19.475180908203125,-0.07039977610111237,-0.8756430745124817,-0.8272765874862671
1772790338943214800,19.49521484375,-0.3246369957923889,-1.2914140224456787,-0.9416389465332031
1772790338963249000,19.515248779296876,-0.5901691913604736,-1.4824410676956177,-1.0933781862258911
1772790338983283000,19.535282958984375,-0.8016806244850159,-1.4799621105194092,-1.2116049528121948
1772790339003317000,19.55531689453125,-0.9217330813407898,-1.5125457048416138,-1.197813630104065
1772790339023351000,19.57535107421875,-1.040744423866272,-1.5383268594741821,-1.0540854930877686
1772790339043383800,19.5953837890625,-1.1802572011947632,-1.5084797143936157,-0.8469985723495483
1772790339063417900,19.61541796875,-1.3080151081085205,-1.49383544921875,-0.6504054665565491
1772790339083452000,19.635451904296875,-1.3954682350158691,-1.3350298404693604,-0.4724898636341095
1772790339103485700,19.655485595703126,-1.3336081504821777,-0.9235447645187378,-0.33798620104789734
1772790339123520000,19.67552001953125,-1.2379975318908691,-0.48697733879089355,-0.13376188278198242
1772790339143554000,19.695553955078125,-1.1207159757614136,-0.1402067095041275,0.10835457593202591
1772790339163588000,19.715588134765625,-0.831417977809906,0.11294972896575928,0.1741628348827362
1772790339183622000,19.735621826171876,-0.4657869040966034,0.4571937620639801,0.12944810092449188
1772790339203656000,19.755656005859375,-0.19958454370498657,0.5265856385231018,0.20319898426532745
1772790339223690000,19.77568994140625,0.038220807909965515,0.32493332028388977,0.2580094635486603
1772790339243723800,19.795723876953126,0.27349475026130676,0.01567312888801098,0.10811816900968552
1772790339263757800,19.8157578125,0.5532970428466797,-0.2851543128490448,-0.1649637371301651
1772790339283792100,19.835792236328125,0.8797777891159058,-0.5313087105751038,-0.35778895020484924
1772790339303826000,19.855825927734376,1.129417896270752,-0.6877481341362,-0.3653640151023865
1772790339323859000,19.87585888671875,1.287359356880188,-0.5919181704521179,-0.22802326083183289
1772790339343892700,19.895892822265626,1.3801319599151611,-0.2824957072734833,0.006588063668459654
1772790339363926800,19.9159267578125,1.4570800065994263,0.1408539116382599,0.2426835000514984
1772790339383961000,19.935961181640625,1.502705454826355,0.5767658948898315,0.4319950342178345
1772790339403995100,19.9559951171875,1.5311468839645386,1.018306851387024,0.6333771347999573
1772790339424029000,19.97602880859375,1.5924537181854248,1.464928150177002,0.8873537182807922
1772790339444063000,19.99606298828125,1.6660760641098022,1.995704174041748,1.2303720712661743
1772790339464097000,20.016096923828126,1.7891514301300049,2.445814847946167,1.5673136711120605
1772790339484130800,20.036130859375,1.922131061553955,2.6885604858398438,1.7844399213790894
1772790339504164900,20.056164794921877,2.0470879077911377,2.7135889530181885,1.815848708152771
1772790339524199000,20.076198974609376,2.0580928325653076,2.577920436859131,1.6210682392120361
1772790339544233000,20.09623291015625,2.011535406112671,2.312653064727783,1.2221542596817017
1772790339564267000,20.11626708984375,1.926816463470459,1.8885031938552856,0.6993867754936218
1772790339584301000,20.136301025390626,1.933120608329773,1.3432241678237915,0.18451645970344543
1772790339604334800,20.1563349609375,1.984460473060608,0.7051994800567627,-0.20654988288879395
1772790339624367900,20.176367919921876,2.0334458351135254,0.13150380551815033,-0.45607784390449524
1772790339644402000,20.19640185546875,2.075333833694458,-0.2722490429878235,-0.5981412529945374
1772790339664436000,20.21643603515625,2.119378089904785,-0.5210103988647461,-0.6272857189178467
1772790339684470000,20.236469970703126,2.1485092639923096,-0.6337845921516418,-0.5608487725257874
1772790339704504000,20.256504150390626,2.132850408554077,-0.7163650393486023,-0.4495549499988556
1772790339724537900,20.276537841796873,2.073934555053711,-0.8047974109649658,-0.33036884665489197
1772790339744572000,20.296572021484376,1.9166301488876343,-0.8800361156463623,-0.22638870775699615
1772790339764605000,20.31660498046875,1.6310919523239136,-0.8643033504486084,-0.1744227260351181
1772790339784639200,20.33663916015625,1.2693296670913696,-0.7364599704742432,-0.18648585677146912
1772790339804673300,20.35667333984375,0.8884141445159912,-0.5248733162879944,-0.2115052342414856
1772790339824707000,20.37670703125,0.5568983554840088,-0.34847092628479004,-0.20496802031993866
1772790339844741000,20.3967412109375,0.2501607835292816,-0.2882675230503082,-0.13449914753437042
1772790339864775200,20.416775146484376,-0.05721735209226608,-0.2939417362213135,-0.012666936963796616
1772790339884809000,20.43680908203125,-0.3709184527397156,-0.3103793263435364,0.03872440755367279
1772790339904842200,20.45684228515625,-0.7331569790840149,-0.22568421065807343,-0.08682230859994888
1772790339924876300,20.476876220703126,-1.062107801437378,-0.028992556035518646,-0.09951463341712952
1772790339944910000,20.49691015625,-1.7715702056884766,-0.058663081377744675,0.31507134437561035
1772790339964944100,20.516944091796876,-2.3686299324035645,-0.06757993251085281,0.8195492625236511
1772790339984978200,20.536978271484376,-2.875910997390747,-0.17159831523895264,1.0804429054260254
1772790340005012000,20.557011962890623,-3.1765074729919434,-0.22818391025066376,1.0312494039535522
1772790340025046000,20.5770458984375,-3.348353624343872,-0.2928392291069031,0.8357046842575073
1772790340045080000,20.597080078125,-3.4337875843048096,-0.3689861297607422,0.6667516231536865
1772790340065114000,20.617114013671873,-3.372770309448242,-0.40603476762771606,0.4869111478328705
1772790340085148200,20.637148193359376,-3.1432926654815674,-0.35294264554977417,0.3463142216205597
1772790340105182200,20.65718212890625,-2.8251469135284424,-0.17961321771144867,0.2741991877555847
1772790340125216000,20.677216064453123,-2.391084671020508,0.062360458076000214,0.2914574146270752
1772790340145250000,20.69725,-1.8025261163711548,0.3432482182979584,0.366535484790802
1772790340165283300,20.717283447265626,-1.1222621202468872,0.465556263923645,0.36121341586112976
1772790340185317000,20.737317138671877,-0.41851115226745605,0.3406827747821808,0.09654116630554199
1772790340205348000,20.75734814453125,0.20804685354232788,-0.003117373213171959,-0.41761907935142517
1772790340225382100,20.777382080078127,0.6368049383163452,-0.3658663332462311,-1.0107767581939697
1772790340245416200,20.797416259765626,0.913616955280304,-0.69989413022995,-1.5373995304107666
1772790340265450000,20.817449951171874,1.0734260082244873,-0.9834630489349365,-1.9298369884490967
1772790340285484000,20.837484130859377,1.065109372138977,-1.2432842254638672,-2.094020128250122
1772790340305518000,20.85751806640625,0.9229159355163574,-1.4297816753387451,-2.004870653152466
1772790340325551000,20.877551025390623,0.6107136011123657,-1.6006066799163818,-1.7174327373504639
1772790340345585200,20.897585205078126,0.12838159501552582,-1.676279067993164,-1.3471657037734985
1772790340365619200,20.917619140625,-0.35847023129463196,-1.5774989128112793,-0.9988622069358826
1772790340385653000,20.937653076171873,-0.7765061855316162,-1.4188951253890991,-0.6794878244400024
1772790340405687000,20.95768701171875,-1.071097493171692,-1.1625337600708008,-0.34301355481147766
1772790340425721000,20.97772119140625,-1.2980873584747314,-0.840274453163147,0.034849658608436584
1772790340445755000,20.9977548828125,-1.4211407899856567,-0.4602355659008026,0.40657851099967957
1772790340465789200,21.0177890625,-1.4293022155761719,-0.035481683909893036,0.7175084352493286
1772790340485823200,21.0378232421875,-1.349985957145691,0.286300927400589,0.9122613668441772
1772790340505857000,21.05785693359375,-1.2006810903549194,0.5655876994132996,0.8638394474983215
1772790340525891000,21.07789111328125,-1.0005625486373901,0.8844683170318604,0.5834794640541077
1772790340545925000,21.097925048828124,-0.8904491662979126,1.1560479402542114,0.25373727083206177
1772790340565959200,21.117959228515623,-0.8514865040779114,1.2189899682998657,0.031325988471508026
1772790340585992200,21.1379921875,-0.7499358654022217,1.0385383367538452,-0.10426255315542221
1772790340606026200,21.158026123046874,-0.5733642578125,0.6047453880310059,-0.13696786761283875
1772790340626064100,21.178064208984374,-0.4052087068557739,-0.0348772369325161,-0.16573446989059448
1772790340646098200,21.19809814453125,-0.2133682817220688,-0.704738199710846,-0.3823143243789673
1772790340666132200,21.21813232421875,-0.07917487621307373,-1.1805858612060547,-0.7496563196182251
1772790340686165000,21.2381650390625,-0.13306824862957,-1.492942452430725,-0.9294149279594421
1772790340706199300,21.25819921875,-0.28187495470046997,-1.581220030784607,-0.9292199611663818
1772790340726233000,21.278233154296874,-0.329731285572052,-1.4114079475402832,-0.9086851477622986
1772790340746267100,21.29826708984375,-0.15854689478874207,-1.0783836841583252,-0.8911170363426208
1772790340766301400,21.318301513671877,0.18606321513652802,-0.6916972398757935,-0.7608184814453125
1772790340786335200,21.338335205078124,0.5712917447090149,-0.32812970876693726,-0.4714137613773346
1772790340806369300,21.358369384765624,0.8784284591674805,-0.01754840463399887,-0.10738404840230942
1772790340826403300,21.3784033203125,1.1245330572128296,0.24948513507843018,0.1595114767551422
1772790340846437400,21.398437255859374,1.3610507249832153,0.5154099464416504,0.2357647567987442
1772790340866471200,21.41847119140625,1.5629209280014038,0.7673431038856506,0.2024734765291214
1772790340886505500,21.43850537109375,1.6965444087982178,0.9826553463935852,0.18683898448944092
1772790340906539500,21.45853955078125,1.7755699157714844,1.2283004522323608,0.19748081266880035
1772790340926573300,21.4785732421875,1.7881659269332886,1.442806601524353,0.2532731592655182
1772790340946607400,21.498607421875,1.6695433855056763,1.61090087890625,0.3483034670352936
1772790340966640000,21.51864013671875,1.401977300643921,1.6740851402282715,0.49373525381088257
1772790340986674400,21.53867431640625,1.0786851644515991,1.5086839199066162,0.5142943263053894
1772790341006708500,21.55870849609375,0.9002060294151306,1.1752780675888062,0.30598199367523193
1772790341026742500,21.578742431640624,0.9959909319877625,0.6716083288192749,0.0778403952717781
1772790341046776300,21.5987763671875,1.356790542602539,0.21304933726787567,0.02705884538590908
1772790341066810400,21.618810302734374,1.8252003192901611,-0.10701406747102737,0.2351740300655365
1772790341086844400,21.638844482421874,2.2427995204925537,-0.2581937611103058,0.6151195764541626
1772790341106878200,21.658878173828125,2.4975619316101074,-0.3177359700202942,0.9751670360565186
1772790341126912300,21.678912353515624,2.5778110027313232,-0.31221523880958557,1.1694272756576538
1772790341146946300,21.6989462890625,2.497659206390381,-0.29309597611427307,1.2180330753326416
1772790341166980400,21.71898046875,2.355134963989258,-0.2903853952884674,1.1737136840820312
1772790341187014400,21.739014404296874,2.1917243003845215,-0.32380712032318115,1.1414986848831177
1772790341207047400,21.75904736328125,2.007722854614258,-0.2977234125137329,1.1831679344177246
1772790341227081200,21.779081298828125,1.8477154970169067,-0.2775992155075073,1.2808613777160645
1772790341247115300,21.799115234375,1.6560537815093994,-0.17473196983337402,1.3098182678222656
1772790341267149600,21.819149658203123,1.314859390258789,0.023991530761122704,1.2004684209823608
1772790341287183400,21.839183349609375,0.9258404970169067,0.12110134214162827,0.9602314829826355
1772790341307217400,21.859217529296874,0.5888606905937195,0.16778582334518433,0.6588519215583801
1772790341327251500,21.87925146484375,0.29881852865219116,0.18425476551055908,0.4269886612892151
1772790341347285200,21.89928515625,-0.0029139607213437557,0.22794969379901886,0.33352401852607727
1772790341367319300,21.9193193359375,-0.3414600193500519,0.27095896005630493,0.39904510974884033
1772790341387353300,21.939353271484375,-0.7376420497894287,0.3609892725944519,0.6162331700325012
1772790341407387100,21.95938720703125,-1.1499139070510864,0.4333297312259674,0.8429831862449646
1772790341427421400,21.97942138671875,-1.4212429523468018,0.49003317952156067,0.8448190689086914
1772790341447454500,21.999454345703125,-1.5990221500396729,0.5651928782463074,0.3760130703449249
1772790341467488300,22.01948828125,-1.9898638725280762,0.7055694460868835,-0.11043673753738403
1772790341487522300,22.039522216796875,-2.4492087364196777,0.7494797110557556,-0.1634359061717987
1772790341507556400,22.059556396484375,-2.79994535446167,0.7547214031219482,0.10977039486169815
1772790341527590400,22.07959033203125,-3.0517337322235107,0.7826826572418213,0.39456915855407715
1772790341547624400,22.09962451171875,-3.249387741088867,0.7812150716781616,0.5416232943534851
1772790341567658500,22.119658447265625,-3.356339931488037,0.6762146353721619,0.5867642164230347
1772790341587692300,22.1396923828125,-3.342421054840088,0.4256812632083893,0.5140951871871948
1772790341607726300,22.159726318359375,-3.13993763923645,0.1627293825149536,0.2047051340341568
1772790341627760400,22.179760498046875,-2.756418466567993,0.0735638365149498,-0.22082608938217163
1772790341647794200,22.199794189453126,-2.160062313079834,0.04314837604761124,-0.48202529549598694
1772790341667827500,22.219827392578125,-1.4093046188354492,0.06217820942401886,-0.5295900702476501
1772790341687861500,22.239861572265625,-0.5983731150627136,0.09906045347452164,-0.5254189968109131
1772790341707895300,22.259895263671876,0.216201514005661,0.051589515060186386,-0.667169451713562
1772790341727929300,22.279929443359375,0.9271953701972961,-0.0900394544005394,-0.9864192008972168
1772790341747963400,22.29996337890625,1.4257228374481201,-0.3612939417362213,-1.3384233713150024
1772790341767997400,22.31999755859375,1.7290875911712646,-0.6614028811454773,-1.6562238931655884
1772790341788031500,22.340031494140625,1.7814029455184937,-0.9954696893692017,-1.822495698928833
1772790341808065500,22.3600654296875,1.6214126348495483,-1.37654709815979,-1.7069001197814941
1772790341828099600,22.380099609375,1.3706239461898804,-1.6993517875671387,-1.4339237213134766
1772790341848133600,22.400133544921875,1.071946382522583,-1.8992573022842407,-1.1404595375061035
1772790341868167400,22.42016748046875,0.76405268907547,-2.010866165161133,-0.8490496277809143
1772790341888200400,22.440200439453125,0.42595136165618896,-2.0923430919647217,-0.5477349162101746
1772790341908234200,22.460234130859376,0.09350672364234924,-2.0555102825164795,-0.23212432861328125
1772790341928268500,22.4802685546875,-0.18208831548690796,-1.9067144393920898,0.09841541945934296
1772790341948302600,22.500302490234375,-0.42412060499191284,-1.646711826324463,0.4846131205558777
1772790341968336600,22.520336669921875,-0.6438601613044739,-1.2849340438842773,0.9504926204681396
1772790341988370400,22.540370361328126,-0.8955680131912231,-0.8554630875587463,1.4411054849624634
1772790342008404500,22.560404541015625,-1.2146580219268799,-0.37909483909606934,1.7176927328109741
1772790342028438500,22.5804384765625,-1.38991379737854,0.16596898436546326,1.6212244033813477
1772790342048472300,22.600472412109376,-1.2186450958251953,0.6136429309844971,1.298124074935913
1772790342068506400,22.62050634765625,-0.8740298748016357,0.9407851696014404,1.0141433477401733
1772790342088540700,22.640540771484375,-0.5885177254676819,1.1486884355545044,0.9644368886947632
1772790342108573400,22.660573486328126,-0.5209527611732483,0.8852717280387878,1.1381988525390625
1772790342128607500,22.680607421875,-0.8294129967689514,0.31677719950675964,1.221314787864685
1772790342148641500,22.7006416015625,-1.0894057750701904,-0.2770483195781708,0.7892324328422546
1772790342168675300,22.72067529296875,-1.029952049255371,-0.5618195533752441,-0.11428376287221909
1772790342188709400,22.74070947265625,-0.876395583152771,-0.5620339512825012,-1.035791039466858
1772790342208743700,22.76074365234375,-0.8019809722900391,-0.4255225360393524,-1.624211311340332
1772790342228777500,22.780777587890626,-0.748102605342865,-0.16577711701393127,-1.616381287574768
1772790342248811500,22.8008115234375,-0.6061805486679077,0.23907805979251862,-1.2395631074905396
1772790342268845600,22.820845458984376,-0.29869428277015686,0.8219767212867737,-0.7813012003898621
1772790342288879400,22.84087939453125,0.162094846367836,1.419527292251587,-0.3630591630935669
1772790342308913400,22.860913330078127,0.609421968460083,1.7885411977767944,0.07318174093961716
1772790342328946700,22.88094677734375,0.9402751326560974,1.8901413679122925,0.5261477828025818
1772790342348980500,22.90098046875,1.186055302619934,1.8250508308410645,0.9008866548538208
1772790342369014500,22.9210146484375,1.4029405117034912,1.6645065546035767,1.0943264961242676
1772790342389048600,22.941048583984376,1.5366435050964355,1.5413178205490112,1.1145579814910889
1772790342409082400,22.961082275390623,1.618011713027954,1.5491646528244019,1.0617893934249878
1772790342429116400,22.981116455078126,1.6474833488464355,1.6456619501113892,1.0107884407043457
1772790342449150500,23.001150390625,1.6445366144180298,1.8100380897521973,0.9711124300956726
1772790342469184500,23.0211845703125,1.653233528137207,2.017380952835083,0.9101657867431641
1772790342489218600,23.041218505859376,1.6683322191238403,2.2135066986083984,0.8656095862388611
1772790342509252600,23.061252685546876,1.6293470859527588,2.2898364067077637,0.8832833766937256
1772790342529285400,23.081285400390627,1.5687843561172485,2.1831536293029785,0.9730956554412842
1772790342549319400,23.1013193359375,1.6122374534606934,2.1214864253997803,1.0127307176589966
1772790342569353500,23.121353515625,1.725826621055603,1.9670796394348145,0.971098005771637
1772790342589387500,23.141387451171877,1.8444966077804565,1.7364801168441772,0.8684787750244141
1772790342609421600,23.161421630859376,1.9671562910079956,1.4017372131347656,0.7012116312980652
1772790342629455600,23.18145556640625,2.033965587615967,0.956222653388977,0.47496122121810913
1772790342649489400,23.201489501953127,2.003260612487793,0.4323432743549347,0.20725981891155243
1772790342669523500,23.2215234375,1.8978122472763062,-0.09213399142026901,-0.070271335542202
1772790342689557500,23.2415576171875,1.774100422859192,-0.5755099654197693,-0.31219106912612915
1772790342709591300,23.26159130859375,1.6602510213851929,-1.004736065864563,-0.44129273295402527
1772790342729625300,23.281625244140624,1.519360899925232,-1.3555488586425781,-0.45882171392440796
1772790342749658600,23.30165869140625,1.3748606443405151,-1.6067864894866943,-0.4406570792198181
1772790342769692700,23.321692626953126,1.168634057044983,-1.8209614753723145,-0.38207492232322693
1772790342789726500,23.3417265625,0.8268908858299255,-1.9634493589401245,-0.3256547451019287
1772790342809760500,23.361760498046873,0.5190547108650208,-1.9892770051956177,-0.39311811327934265
1772790342829794600,23.381794677734376,0.3024226427078247,-1.9773030281066895,-0.56769859790802
1772790342849828600,23.40182861328125,0.08493013679981232,-1.9354430437088013,-0.7448828220367432
1772790342869862700,23.421862548828123,0.05699806660413742,-1.6639602184295654,-0.9072439670562744
1772790342889896700,23.441896728515626,0.17752040922641754,-1.2820051908493042,-1.026462435722351
1772790342909930500,23.461930419921874,0.050875499844551086,-0.9141620993614197,-0.8203922510147095
1772790342929964500,23.481964599609373,-0.3261011242866516,-0.5696061849594116,-0.2694351375102997
1772790342949997600,23.50199755859375,-0.8335773944854736,-0.24790403246879578,0.4788510799407959
1772790342970031600,23.522031494140624,-1.4234503507614136,-0.04766437038779259,1.1291903257369995
1772790342990065700,23.542065673828127,-1.9416979551315308,0.02016415446996689,1.4206033945083618
1772790343010099700,23.562099609375,-2.3315494060516357,0.03449398651719093,1.3414489030838013
1772790343030133500,23.582133544921874,-2.636575222015381,-0.06591811776161194,1.0012476444244385
1772790343050167600,23.60216748046875,-2.833339214324951,-0.14465349912643433,0.5251063704490662
1772790343070201600,23.62220166015625,-2.9145874977111816,-0.10370446741580963,0.03731326758861542
1772790343090235400,23.6422353515625,-2.8862597942352295,0.1259227842092514,-0.48919573426246643
1772790343110269400,23.66226953125,-2.6485931873321533,0.6537018418312073,-0.9631062746047974
1772790343130303700,23.6823037109375,-2.2854831218719482,1.3026773929595947,-1.1943857669830322
1772790343150336500,23.70233642578125,-1.884851336479187,1.852540373802185,-1.1488168239593506
1772790343170370600,23.72237060546875,-1.473774790763855,2.1549813747406006,-0.968524694442749
1772790343190404600,23.742404541015624,-1.0969793796539307,2.0268666744232178,-0.783438503742218
1772790343210438400,23.7624384765625,-0.6741968393325806,1.4828033447265625,-0.7159546613693237
1772790343230472400,23.782472412109374,-0.1820244938135147,0.6527454853057861,-0.7960308194160461
1772790343250506800,23.8025068359375,0.2951262295246124,-0.24006275832653046,-0.9894993305206299
1772790343270540500,23.82254052734375,0.6751902103424072,-1.012410283088684,-1.235528826713562
1772790343290574600,23.84257470703125,0.882881224155426,-1.7491289377212524,-1.4459642171859741
1772790343310608600,23.862608642578124,0.8158665895462036,-2.499332904815674,-1.555880069732666
1772790343330642400,23.882642333984375,0.5414864420890808,-3.057541847229004,-1.4900175333023071
1772790343350675500,23.902675537109374,0.17444013059139252,-3.3401095867156982,-1.294100284576416
1772790343370709800,23.922709716796874,-0.1882915049791336,-3.2795324325561523,-1.124154806137085
1772790343390743600,23.94274365234375,-0.48811075091362,-2.9013984203338623,-0.9979756474494934
1772790343410777600,23.962777587890624,-0.7991319298744202,-2.359480381011963,-0.8373172283172607
1772790343430811600,23.982811767578124,-1.051045298576355,-1.6576200723648071,-0.617321252822876
1772790343450845400,24.002845458984375,-1.1335541009902954,-0.8713587522506714,-0.3619254231452942
1772790343470879500,24.02287939453125,-1.106495976448059,-0.06317586451768875,-0.10350407660007477
1772790343490913500,24.04291357421875,-1.0684312582015991,0.6016440987586975,0.05989748239517212
1772790343510947600,24.062947509765625,-1.1122803688049316,1.177484154701233,0.1920335739850998
1772790343530980600,24.082980712890624,-1.2076553106307983,1.5911790132522583,0.3865687847137451
1772790343551014700,24.1030146484375,-1.332048773765564,1.8193471431732178,0.7111564874649048
1772790343571048400,24.12304833984375,-1.404104232788086,1.6888163089752197,1.138464331626892
1772790343591082500,24.14308251953125,-1.3322937488555908,1.2343372106552124,1.4446301460266113
1772790343611116500,24.163116455078125,-1.0864325761795044,0.6105494499206543,1.3509238958358765
1772790343631150600,24.183150634765624,-0.8169919848442078,-0.038138195872306824,0.8179625272750854
1772790343651184600,24.2031845703125,-0.6598889827728271,-0.5066701769828796,0.09294969588518143
1772790343671218700,24.22321875,-0.48606446385383606,-0.7909700870513916,-0.5781626105308533
1772790343691252500,24.24325244140625,-0.2530175447463989,-0.861609160900116,-1.052714228630066
1772790343711286500,24.26328662109375,0.025049561634659767,-0.8616266250610352,-1.2096909284591675
1772790343731319600,24.283319580078125,0.38974449038505554,-0.8386389017105103,-1.1877946853637695
1772790343751353600,24.303353515625,0.7337703704833984,-0.8190526962280273,-1.0528115034103394
1772790343771388200,24.32338818359375,0.9507505893707275,-0.8111801147460938,-0.7829629778862
1772790343791422000,24.343421875,1.0283583402633667,-0.7488353252410889,-0.37744787335395813
1772790343811456000,24.3634560546875,1.1001533269882202,-0.5890937447547913,0.0426550917327404
1772790343831490000,24.383489990234374,1.2324541807174683,-0.2800498604774475,0.3415619134902954
1772790343851523800,24.40352392578125,1.355530858039856,0.22532682120800018,0.550472617149353
1772790343871558000,24.423557861328124,1.388651728630066,0.8438376188278198,0.7946843504905701
1772790343891591200,24.443591064453123,1.3641548156738281,1.5755858421325684,1.115275263786316
1772790343911625000,24.463625,1.32171630859375,2.3305366039276123,1.4417297840118408
1772790343931659000,24.483658935546874,1.291001319885254,3.00107479095459,1.7060766220092773
1772790343951693000,24.503693115234373,1.3299198150634766,3.52822208404541,1.930114984512329
1772790343971726800,24.523726806640624,1.4227641820907593,3.8695788383483887,2.074937105178833
1772790343991761000,24.543760986328124,1.5388894081115723,3.9307503700256348,2.077444076538086
1772790344011795000,24.563794921875,1.654052734375,3.704637289047241,1.9326251745224
1772790344031829000,24.5838291015625,1.767853021621704,3.2260565757751465,1.6278928518295288
1772790344051863000,24.603863037109374,1.8871665000915527,2.546328067779541,1.1780365705490112
1772790344071897000,24.62389697265625,1.9878790378570557,1.7032867670059204,0.6531192064285278
1772790344091929900,24.643929931640624,2.0648505687713623,0.863864541053772,0.09776519238948822
1772790344111964000,24.6639638671875,2.0949432849884033,0.06902797520160675,-0.43403908610343933
1772790344131998000,24.683998046875,2.116844415664673,-0.6027562022209167,-0.8336897492408752
1772790344152032000,24.704031982421874,2.10817551612854,-1.152163028717041,-1.0661945343017578
1772790344172066000,24.724066162109374,2.072704315185547,-1.5726186037063599,-1.1325517892837524
1772790344192100000,24.74410009765625,2.0013792514801025,-1.857130765914917,-1.08353590965271
1772790344212130000,24.764130126953123,1.8631559610366821,-2.0062482357025146,-0.9675973653793335
1772790344232163800,24.784163818359374,1.6087974309921265,-2.053406238555908,-0.7910138368606567
1772790344252198000,24.804197998046874,1.2268435955047607,-1.9185458421707153,-0.60148024559021
1772790344272232000,24.82423193359375,0.8055920004844666,-1.6014715433120728,-0.4468398690223694
1772790344292266000,24.844265869140624,0.4478219449520111,-1.2141610383987427,-0.3475618064403534
1772790344312300000,24.864300048828124,0.17991913855075836,-0.7697377800941467,-0.2201976776123047
1772790344332334000,24.884333984375,0.04240543395280838,-0.31156033277511597,-0.048190128058195114
1772790344352367900,24.904367919921874,-0.05233731493353844,0.0657505989074707,-0.023700404912233353
1772790344372402000,24.92440185546875,-0.33273452520370483,0.3133624792098999,0.005553339142352343
1772790344392435200,24.944435302734377,-0.7688348889350891,0.37517455220222473,0.20457804203033447
1772790344412469000,24.964468994140624,-1.2552162408828735,0.3682836592197418,0.4658563435077667
1772790344432503000,24.9845029296875,-1.725942611694336,0.2658681273460388,0.5856711268424988
1772790344452537000,25.004537109375,-2.0898537635803223,0.10444824397563934,0.5243547558784485
1772790344472571000,25.02457080078125,-2.4029340744018555,-0.1307567059993744,0.4264247715473175
1772790344492605000,25.04460498046875,-2.703476667404175,-0.36108899116516113,0.3593083322048187
1772790344512639000,25.064638916015625,-3.04799485206604,-0.4872663617134094,0.2697422504425049
1772790344532672800,25.0846728515625,-3.3411834239959717,-0.41047289967536926,0.1438022404909134
