time,seconds_elapsed,z,y,x
1772790385757674200,0.06467431640625,-0.058173372027277945,-0.5121013811200857,-0.6130581752758473
1772790385777707300,0.084707275390625,0.8373702770739794,-0.8480372170388698,-0.1359116415504366
1772790385797741000,0.104740966796875,1.7312948005408049,-1.2315443669497965,0.1558314168985933
1772790385817774000,0.124774169921875,1.3803916971147059,-1.2143722828745842,0.883200738748163
1772790385837807000,0.14480712890625,-0.03572480885386467,-0.882671892568469,1.5090411656424403
1772790385857841000,0.1648408203125,-0.538746226939559,-0.6166174021273851,1.1405587125144898
1772790385877874200,0.184874267578125,-1.2465174796760081,-0.06418985583782195,0.41151572183165697
1772790385897908200,0.204908203125,-1.724274692645669,0.36376901473999024,-0.14663180953990668
1772790385917941000,0.22494091796875,-1.9861814157575368,0.7362158414542674,-0.37095826865695414
1772790385937975300,0.244975341796875,-2.50990601465404,1.2669184626698493,-0.6179485046006739
1772790385958008000,0.265008056640625,-1.8981126716822385,1.1860983745485543,-0.9064403061687946
1772790385978042000,0.2850419921875,-0.7061486199706792,0.5068827696889638,-0.9517517124049365
1772790385998075100,0.3050751953125,-0.26561609902381894,0.15308277577757834,-0.8173864965789019
1772790386018108200,0.325108154296875,-0.325924729514122,0.02932078703045845,-0.5304773245597257
1772790386038142200,0.34514208984375,-0.5275403577923774,0.09226502672135829,-0.20769067387562243
1772790386058175000,0.365175048828125,-0.7890016752243042,0.2599117499023676,0.111101427279599
1772790386078209300,0.385209228515625,-0.5336263997077941,0.5269967524349689,0.14875614475011825
1772790386098242000,0.405241943359375,-0.31843583506345746,0.9053560180634259,0.20860092058833687
1772790386118276000,0.425276123046875,-0.39464579904079433,1.246176703414321,0.49387456382755185
1772790386138309000,0.44530908203125,-0.15621464406251906,1.4440525606423615,0.562507151353173
1772790386158343200,0.46534326171875,0.5420131197810173,1.2411702734291552,0.5401438918430358
1772790386178376200,0.485376220703125,0.9903700507432222,1.0575789621412754,0.5610216985683888
1772790386198409000,0.505408935546875,1.3212491877943278,0.7850625822097063,0.46672765023745594
1772790386218443300,0.525443359375,1.0574112043589352,0.6439058065474033,0.42342502654045816
1772790386238476000,0.54547607421875,0.8417056759297847,0.5654319892913102,0.5407898981289938
1772790386258510000,0.565510009765625,0.9777379481852054,0.4565969360411167,0.657443479643017
1772790386278543000,0.585543212890625,0.7818535570353269,0.4752794246792793,0.4668278957415372
1772790386298577200,0.6055771484375,0.8649246389538049,0.30326866106987,0.29661915831910446
1772790386318610200,0.625610107421875,1.054707206097245,-0.01785655920803547,0.09005790859851985
1772790386338644000,0.64564404296875,1.3542495401203631,-0.4463263019174337,-0.0035217443853616712
1772790386358677200,0.66567724609375,1.54655607278347,-0.7231231356471777,0.07170702653490006
1772790386378710000,0.6857099609375,1.8084961136430502,-1.0775199264079331,0.34790483492556956
1772790386398744000,0.705744140625,1.68896781694293,-1.0941145028561352,0.4874199443280697
1772790386418777000,0.725777099609375,0.9492986201643944,-0.9034475540935992,0.44197475564442573
1772790386438811100,0.74581103515625,0.8721627735137939,-0.6319008959770203,0.13603884812667966
1772790386458844200,0.76584423828125,1.1018968272954226,-0.4989361945986747,-0.2506616544654593
1772790386478878000,0.7858779296875,1.0485480989456175,-0.4826163434386253,-0.42189120456930246
1772790386498911200,0.8059111328125,0.9130202690809964,-0.4473322640895843,-0.43568997628651557
1772790386518944000,0.825944091796875,0.8020061182260513,-0.2524111650139093,-0.566183611376211
1772790386538978000,0.84597802734375,0.9437357253402471,-0.14370353753566742,-0.8568667124435305
1772790386559011300,0.86601123046875,1.0182938304573297,-0.12024258244931697,-0.9328360725980251
1772790386579045000,0.886045166015625,0.8220446976482868,-0.12292203079164027,-0.8508047820560634
1772790386599078100,0.906078125,0.9846388136148452,-0.20907003593742846,-0.8028574743583798
1772790386619112000,0.92611181640625,1.1829986549675464,-0.21899463310241699,-0.6470995610874146
1772790386639145200,0.946145263671875,1.5751906311154364,-0.08914134174287319,-0.7114576861642301
1772790386659179300,0.96617919921875,2.2487504021704194,0.05182487978339195,-1.1128706412523983
1772790386679212000,0.9862119140625,3.3658985746115446,0.16537877824902533,-1.5858207462012768
1772790386699245300,1.006245361328125,4.269811992651224,0.42075756089687344,-1.62285795282796
1772790386719279000,1.026279052734375,4.538866249430179,0.5588450121164321,-1.7969803017638624
1772790386739312000,1.04631201171875,4.702267005604505,0.8373720306396484,-2.110256854368001
1772790386759346000,1.066345947265625,4.445662480553985,1.5348761563837527,-2.430194472296536
1772790386779379200,1.086379150390625,4.1383915981054304,2.307907816798985,-2.438485623040795
1772790386799412000,1.106411865234375,4.536107890632748,2.5636755987644193,-2.651287246721983
1772790386819446000,1.126446044921875,4.926183313018083,4.089660592684149,-2.251811543306708
1772790386839479300,1.146479248046875,4.586414767068624,4.563687094692885,-1.784566372001171
1772790386859513000,1.16651318359375,3.2788322855770584,5.066202024561166,0.43000294362604613
1772790386879546000,1.186546142578125,0.5115276728853583,4.700514024457335,3.260797447192669
1772790386899580200,1.206580078125,-2.3760393959999084,2.498412268476188,7.042863916823268
1772790386919613200,1.22661328125,-5.678936447775364,0.4011392527133226,9.790961432480811
1772790386939646200,1.246646240234375,-7.533046311601996,1.1369707710251211,9.554982931351661
1772790386959680000,1.266679931640625,-8.49180308046341,2.7634713181391355,7.358199447783828
1772790386979713300,1.28671337890625,-8.519715754261613,3.751800510704517,5.942243100813031
1772790386999747000,1.3067470703125,-8.552855807319283,3.1407188231334087,4.735840189382434
1772790387019780000,1.326780029296875,-7.844157502865791,1.205907529129088,3.5716789213538167
1772790387039814100,1.346814208984375,-5.806805287319421,-0.10204992315471172,2.5574685608178376
1772790387059847200,1.36684716796875,-3.4437212344825268,-0.2840872829988599,1.672887619757652
1772790387079880200,1.386880126953125,-1.8347323786616325,-0.3387655063867569,0.7338608027607202
1772790387099914000,1.4069140625,-1.1433505351901054,-0.139299165096879,-0.036459552869200704
1772790387119947300,1.426947265625,-0.9324170434683561,-0.14780483537465333,-0.6615759032726287
1772790387139981000,1.44698095703125,-0.5170949516236781,-0.22042218168750405,-0.8184586558550596
1772790387160014000,1.46701416015625,0.07055529921650885,-0.2584288178682327,-0.9225286866605281
1772790387180048100,1.487048095703125,0.40575697564184665,-0.35968978260233997,-1.261025897499919
1772790387200081200,1.5070810546875,0.9019760202363133,-0.16410229203980414,-1.9119553190737961
1772790387220114200,1.5271142578125,1.3765309300333262,-0.06569924662061967,-2.974344896367192
1772790387240148000,1.54714794921875,1.478658594599366,-0.038653921108320353,-4.232402591711282
1772790387260181200,1.56718115234375,1.7730749639108776,0.6072542382374405,-4.97883821388483
1772790387280215300,1.58721533203125,2.538194828288257,1.6111540710307657,-5.259332148566842
1772790387300248000,1.607248046875,3.461810433402657,3.657169923895597,-5.866333581086993
1772790387320281000,1.627281005859375,4.500101342228055,5.604803874593973,-7.933654818439483
1772790387340315100,1.647315185546875,5.672594385272264,7.247669865575432,-8.817248502027988
1772790387360348200,1.66734814453125,6.178458333307504,8.884542169100046,-8.924964195859431
1772790387380382000,1.6873818359375,5.975676583859324,9.202296451640128,-8.200198553702235
1772790387400415200,1.707415283203125,5.708657632300257,10.005793100684881,-7.260067574855685
1772790387420449300,1.72744921875,5.074712663275003,12.562972323167322,-5.29670940080285
1772790387440482000,1.74748193359375,3.525836623111367,15.944618502008915,-2.262759053778648
1772790387460515300,1.767515380859375,1.033853218638897,18.901175812751053,2.008613612318039
1772790387480549000,1.787549072265625,-0.6500177135564387,21.035023239934443,6.950906933137774
1772790387500582100,1.80758203125,-1.2245134453997015,21.16614085214138,11.198775389528274
1772790387520616000,1.827615966796875,-0.0793573220923543,16.060324610072374,12.97147246003747
1772790387540649200,1.847649169921875,1.3906611621946097,9.918955359709262,12.820507991588116
1772790387560682000,1.867681884765625,2.033497293683886,3.4834833360284563,10.4607802634418
1772790387580716000,1.887716064453125,2.970053044392168,0.7267413261443376,9.002042759364842
1772790387600749300,1.907749267578125,3.570576513069868,-0.07030746193528174,7.977492791122198
1772790387620783000,1.927783203125,4.876267481726408,-0.22181845835149286,8.069429901063442
1772790387640816000,1.947816162109375,6.127490362614393,-0.5232885455667973,8.094157515084744
1772790387660849200,1.96784912109375,5.72726471761465,-1.3335703247070312,7.397897836443781
1772790387680883200,1.98788330078125,4.579924236005544,-1.5650748952925204,6.673347298341989
1772790387700916000,2.007916015625,3.8454701435267924,-1.0905822370767593,6.117374626791477
1772790387720950000,2.027949951171875,3.0089024150073524,-0.9693120651453733,5.611199128589034
1772790387740983300,2.0479833984375,2.3983728083610534,-0.8650351135909556,5.18300235760212
1772790387761016000,2.06801611328125,1.7148831794440744,-1.0516127472132444,4.592535880297422
1772790387781050000,2.088050048828125,0.9650175828218459,-1.536324601626396,3.962067355211079
1772790387801083100,2.108083251953125,0.39732634336166084,-2.2656904310554267,3.4765120357111092
1772790387821117000,2.128116943359375,-0.0884568666100502,-2.8837948568701743,3.2109853685364125
1772790387841150000,2.14814990234375,-0.38486915897913276,-3.3441391627460715,3.1142814825847744
1772790387861184000,2.16818408203125,-0.4865781597416848,-3.3942917254030704,2.9484242731690404
1772790387881217000,2.188217041015625,-0.4462357010245323,-3.2952240329295397,3.0875542191788554
1772790387901249800,2.208249755859375,-0.2684030993938446,-3.234491039547324,2.9488661717176434
1772790387921283800,2.228283935546875,0.1780546468835324,-3.09930398594439,2.6981723320156332
1772790387941317000,2.248317138671875,0.5667662335697561,-2.7781571383565664,2.703885741226375
1772790387961351000,2.268350830078125,0.8752432038724421,-2.6124749932467934,2.6226801609188315
1772790387981384000,2.288384033203125,1.1059795665644108,-2.641020119729638,2.389772153276205
1772790388001417000,2.3084169921875,1.5057470925331116,-2.445938277134299,2.5824238461151716
1772790388021451000,2.328450927734375,1.7389853550434111,-2.3640958602279425,2.8324557147771117
1772790388041483800,2.34848388671875,2.046267343407869,-2.016330470305681,3.0770778333500024
1772790388061518000,2.36851806640625,2.349654077899456,-1.561492945152521,3.3352339717566966
1772790388081551000,2.388551025390625,2.627936766272783,-1.1936287700533865,3.2950463382750748
1772790388101584000,2.408583984375,2.6386300097227093,-1.1428653820216654,2.7745252115949985
1772790388121618000,2.428617919921875,2.600338272990286,-1.4999638329565523,2.301527175851166
1772790388141651000,2.44865087890625,2.179932302010059,-1.8777514361768959,2.4368831562802193
1772790388161685000,2.46868505859375,1.8182513455905018,-1.5084171885251998,3.179361857521534
1772790388181717800,2.4887177734375,1.2681411363326012,-0.6036030222535133,3.9872921050995584
1772790388201751000,2.5087509765625,0.5599370451368392,0.09394961880743503,4.673121867401898
1772790388221785000,2.52878515625,-0.17806553360372782,0.15151450354754925,4.991044199985265
1772790388241817900,2.54881787109375,-1.0311515584647655,-0.5294879847288131,5.2718485157907
1772790388261852000,2.568851806640625,-1.3754713379777967,-1.4049649973571299,5.408921821531653
1772790388281885000,2.588885009765625,-1.5243825271591542,-1.8781927502036093,5.69630726929307
1772790388301918000,2.60891796875,-1.5335808558762072,-2.1162258457750083,5.602032071793079
1772790388321951700,2.62895166015625,-1.5958733536601066,-2.0917261952906845,5.2735658411026
1772790388341985000,2.648985107421875,-1.8087097563937304,-1.7633458893179892,4.759031679877639
1772790388362019000,2.66901904296875,-1.9447040347263216,-1.1231249087631703,4.277596362917125
1772790388382051800,2.6890517578125,-2.1570614217713473,-0.06316928061842918,3.9762551627784966
1772790388402085000,2.709085205078125,-2.4129963769972322,1.1792138757318258,3.7425656493693586
1772790388422119000,2.729118896484375,-2.599570503488183,2.429565819004178,3.5167683505147695
1772790388442152000,2.74915185546875,-2.795360494352877,3.3731384627372023,3.130985072365403
1772790388462186000,2.76918603515625,-2.959221853776276,4.004078989249468,2.7230741335600612
1772790388482219000,2.789218994140625,-3.400160909697413,4.394603908967971,2.057480226817727
1772790388502251800,2.809251708984375,-3.9161698196500536,4.217983605736494,1.4529314481467008
1772790388522285800,2.829285888671875,-4.065456418015063,4.007130778035521,1.1367220569610594
1772790388542319000,2.849319091796875,-4.200975187790394,3.756882928535342,0.7763175502181052
1772790388562353000,2.869352783203125,-4.296188835184275,3.486729186081886,0.26601415843069554
1772790388582386000,2.889385986328125,-4.2687049081921575,3.274514130116999,-0.30997137357890603
1772790388602419000,2.9094189453125,-4.056319464096426,3.2688214714333412,-0.9519798220723867
1772790388622453000,2.929452880859375,-3.7810312813639637,3.2468586459502577,-1.6408482214182614
1772790388642486000,2.949486083984375,-3.3719039525061842,3.5324414282038807,-2.1744705294728277
1772790388662519800,2.969519775390625,-3.0832059608414766,3.858272341954708,-2.719648250764608
1772790388682553000,2.989552978515625,-2.5980039848238228,4.30096525580585,-2.8734324528098103
1772790388702585900,3.0095859375,-1.883154464264214,4.842023266819119,-2.9536241798996925
1772790388722620000,3.029619873046875,-0.9301552360162139,5.486629330590367,-3.21353592980206
1772790388742653000,3.04965283203125,0.15134353089481592,6.060273267909884,-3.7062750233262776
1772790388762687000,3.06968701171875,1.1867409102357924,6.444225823500752,-4.328718355128169
1772790388782720000,3.089719970703125,1.9649390135034919,6.353716700536013,-4.896559159126878
1772790388802753000,3.1097529296875,2.5170693304121494,5.933845274823904,-5.43641773122251
1772790388822787600,3.12978759765625,2.9207880782246587,5.514793348801136,-5.55868802010715
1772790388842820400,3.1498203125,3.3858184960901734,5.698117533585429,-4.879628482592105
1772790388862854400,3.1698544921875,3.6057658998727797,6.530315960979461,-4.163430177772045
1772790388882887700,3.1898876953125,3.2792467115968464,7.7227838705599305,-3.4419477950692174
1772790388902920400,3.20992041015625,2.9919623861223457,9.004503596520424,-2.517096218419075
1772790388922954500,3.22995458984375,2.908182863673568,9.928176777040958,-2.03697870605886
1772790388942987500,3.249987548828125,2.983198064908385,9.185021491712332,-2.221476026275754
1772790388963021600,3.270021484375,3.6479169423818587,7.367945181250572,-2.1307067910701036
1772790388983054600,3.2900546875,4.184198825034499,5.696349354869127,-1.3650883295208216
1772790389003087600,3.310087646484375,4.051505341812968,4.033873239010572,-0.5955348666101694
1772790389023121700,3.33012158203125,3.526642094275355,2.391077975177765,0.4155991552203893
1772790389043154400,3.350154541015625,2.9260721561074257,1.807509440693259,2.089873260900378
1772790389063188500,3.3701884765625,2.0460113228201866,1.8301608329623937,3.999072559264302
1772790389083221500,3.390221435546875,0.4538577203355729,1.3978420136094092,5.3108314496576785
1772790389103254500,3.410254638671875,-1.4465433545447886,0.7346469847023487,6.303070216882229
1772790389123288600,3.43028857421875,-3.1716730565845963,0.7829401832282543,7.517668125206232
1772790389143321600,3.450321533203125,-4.352023535130917,-0.016574118182063103,8.106105142509938
1772790389163355600,3.470355712890625,-4.921440502405166,-1.0137252073675393,8.054909208279847
1772790389183388400,3.490388427734375,-5.147899480038881,-0.9526455925047397,7.935754421067237
1772790389203421700,3.510421630859375,-5.42138558178544,-0.6829922007888555,6.9169579017847775
1772790389223455500,3.53045556640625,-5.719925460767746,0.4169511543512344,5.617362911915778
1772790389243488500,3.550488525390625,-6.208247906893491,1.369216223105788,3.2237253153830765
1772790389263522600,3.5705224609375,-6.256425370085239,1.9473726694136857,0.8705266967445612
1772790389283555600,3.5905556640625,-6.133292911413312,1.6993617851853369,-1.0558388404756784
1772790389303588600,3.610588623046875,-5.740565513214468,1.4781687652558086,-2.414582184883952
1772790389323622400,3.630622314453125,-5.386045388334989,1.0472469532191753,-3.039011722066998
1772790389343655700,3.65065576171875,-5.08111551605463,0.5204413394421339,-3.140623253804445
1772790389363689500,3.670689453125,-4.732773787549138,0.2592225985944271,-2.789790877526998
1772790389383722500,3.690722412109375,-4.425676215840876,0.17014613878130913,-2.3906588729828595
1772790389403755500,3.710755615234375,-4.071939350293577,0.29357553457319735,-2.2852637310534716
1772790389423789600,3.73078955078125,-3.7926702812314033,1.1084154154092072,-2.075667625415325
1772790389443822600,3.750822509765625,-3.952566244155168,2.382338203883171,-1.631568936419487
1772790389463856400,3.7708564453125,-4.279395813554525,3.9494004736006256,-0.8538964644610881
1772790389483889700,3.7908896484375,-4.40005282202363,4.864127546599507,0.35588147636055945
1772790389503922400,3.81092236328125,-4.350193689355254,5.009007142177224,2.5936846603199837
1772790389523956500,3.83095654296875,-3.2955244771808383,4.218981969124078,5.109125220486521
1772790389543989500,3.850989501953125,-0.540640954644978,2.376447976800799,9.367797979485989
1772790389564022500,3.8710224609375,3.8960166739374396,-0.40624738950729367,14.29836871380806
1772790389584056600,3.891056640625,8.861696715563536,-2.2746517361462115,12.93148531756401
1772790389604089600,3.911089599609375,11.337355008178948,-1.8267150764226912,11.297323442041874
1772790389624123600,3.93112353515625,11.487157447111606,-2.7627082248121497,10.577497594374417
1772790389644156400,3.951156494140625,11.497658967381716,-4.966158180531859,9.082555973494053
1772790389664189700,3.971189697265625,11.248825660854576,-5.438127457749843,7.231023851200938
1772790389684223500,3.991223388671875,10.004188003575802,-5.2210588242739435,4.678427280333638
1772790389704255500,4.01125537109375,8.031671540555358,-4.651812829652428,2.7272461585476995
1772790389724289500,4.03128955078125,6.274760652720928,-3.952387380456924,2.079103445082903
1772790389744322600,4.051322509765625,4.6906204069525,-3.09197408144772,2.510473000887036
1772790389764355300,4.071355224609375,3.450260573123395,-1.6016256335765122,3.229273012638092
1772790389784389400,4.091389404296875,2.2785291621014476,-0.294504924377799,3.432949957360327
1772790389804422700,4.111422607421875,1.3614181165754795,1.053143025520444,3.8101892790481444
1772790389824455000,4.131454833984375,0.31499767730832096,2.2271944039225575,4.023374641349911
1772790389844489000,4.151489013671875,-1.111390631827712,2.6143571537315844,3.558606966073811
1772790389864521700,4.171521728515625,-2.1261340763270855,2.2991209914922712,2.84004017855674
1772790389884555800,4.1915556640625,-2.199530444188416,1.765584608155489,2.3082345645353195
1772790389904589000,4.211589111328125,-1.6510387760430574,1.4076000220358371,2.2024857868626713
1772790389924621800,4.231621826171875,-1.2904036754146218,1.082977022770047,2.229286115504801
1772790389944656000,4.25165576171875,-1.1636065567553042,0.935522608268261,2.5609546493679285
1772790389964689000,4.27168896484375,-1.3595993767157195,0.7012298682689666,2.4524615414232014
1772790389984723000,4.291722900390625,-1.4357628712028263,0.6545411823302507,2.459633040487766
1772790390004756000,4.311755859375,-1.9849232323899864,1.00451080429852,2.7796429930001496
1772790390024788700,4.331788818359375,-3.649259004640579,1.6774287703186272,3.4468384897202253
1772790390044823000,4.351822998046875,-4.857729954516888,2.4349901821404694,2.8611919799178835
1772790390064855800,4.371855712890625,-5.8894566825211045,2.648385095539689,2.370947041296959
1772790390084889900,4.391889892578125,-6.3156479589045045,3.1472751129090786,1.8931833985865114
1772790390104923000,4.4119228515625,-6.346275736880302,3.6524212680637835,1.6714245614677667
1772790390124960000,4.4319599609375,-6.589280775645375,4.66547106038779,0.8553945940643548
1772790390144992800,4.45199267578125,-6.242229086950421,4.929921915024519,0.17258534862697122
1772790390165026000,4.472026123046875,-5.703489289751649,5.1340240994215005,-0.7700883004397153
1772790390185059800,4.492059814453125,-4.985712775829434,5.351631662079692,-1.872251669716835
1772790390205092900,4.5120927734375,-4.7818940845489495,5.667143718650936,-3.5192221734076736
1772790390225126700,4.532126708984375,-4.4913276686638595,5.156601841932535,-4.676327093183994
1772790390245160000,4.552159912109375,-3.0525983488708732,6.0723944983363145,-4.062686076518893
1772790390265192700,4.572192626953125,-2.7996026619672776,6.13219459478259,-4.974767603445053
1772790390285226800,4.592226806640625,-2.3645541253894566,6.665501845538616,-5.387236643946171
1772790390305260000,4.612260009765625,-1.6433289323180913,6.7904393078058956,-6.2211979893594975
1772790390325293800,4.6322939453125,-0.8778571857631206,6.1163797705352305,-6.781019737553596
1772790390345326800,4.652326904296875,1.0340200996384024,5.550670133346319,-7.0796519709944725
1772790390365359900,4.67235986328125,3.8446003749549384,5.166636913734674,-7.25172177131474
1772790390385394000,4.692393798828125,6.943857014626264,4.559961059907079,-7.324449153873324
1772790390405426700,4.7124267578125,9.380316100275516,3.9731344004094598,-6.767943982881307
1772790390425460700,4.732460693359375,10.537236895656585,3.2948338645681736,-5.3358811352401965
1772790390445494000,4.752493896484375,9.604079262953997,3.203323163345456,-3.299320362332463
1772790390465526800,4.77252685546875,7.490420052796602,4.146007333806157,-0.24676351451575754
1772790390485560800,4.792560791015625,4.416133019208908,4.605771793967485,2.1079273885071275
1772790390505593900,4.81259375,1.932513246195018,4.250090808615088,4.327312579983473
1772790390525627000,4.832626953125,0.2926329930260777,3.1858921360731123,6.208916015413403
1772790390545661000,4.852660888671875,-1.1361363660275936,1.6465104849636554,7.313964584738016
1772790390565694000,4.87269384765625,-2.3435022772714493,0.06140227094590663,7.311937462824583
1772790390585728000,4.89272802734375,-3.122928022637963,-0.5998842939913273,6.840485487478971
1772790390605760800,4.9127607421875,-3.484603279969096,-0.7980448133796453,5.767053122645616
1772790390625794000,4.9327939453125,-3.7435467693611977,-0.755592157575488,4.601788569550216
1772790390645827800,4.952827880859375,-3.7294887256532907,-0.4473386938303709,3.732966338635981
1772790390665860900,4.97286083984375,-3.6066496969699857,-0.004510755422711372,2.783650182814896
1772790390685895000,4.99289501953125,-3.475135194399953,0.5090513458997011,1.251347968572378
1772790390705928000,5.012927978515625,-3.5393870095580815,0.5567372261822223,-0.6179711548238992
1772790390725961000,5.0329609375,-3.3855966700330375,0.35400808370411396,-1.972417094299197
1772790390745994800,5.052994873046875,-3.2707474710598587,0.08858721499145031,-2.7773493291050193
1772790390766028000,5.073028076171875,-3.2798511072307823,-0.011619126123189926,-3.0615812812715766
1772790390786061800,5.093061767578125,-3.471783253623545,0.35114860261976716,-3.0600691231429575
1772790390806096000,5.113095947265625,-3.708913262875378,0.6987240229278803,-2.9595716901272535
1772790390826129000,5.13312890625,-4.347892426675558,1.1740075392603873,-3.216017809745669
1772790390846162700,5.15316259765625,-4.67447795818597,1.9722025747656822,-1.9026900626003742
1772790390866196000,5.173196044921875,-4.475884892599284,3.042283875605464,-0.5588841750830411
1772790390886228700,5.193228759765625,-4.0636224805861705,3.2898569529384374,2.3949986557528375
1772790390906262800,5.2132626953125,-2.9061946124657987,1.7031617619901895,5.541223090565205
1772790390926295800,5.2332958984375,-0.7770768441528081,-0.8528256203591823,9.284586612313985
1772790390946329900,5.253329833984375,1.8285428763717413,-1.5604419747948646,12.545099981868267
1772790390966363000,5.27336279296875,3.2844737985953687,-2.4930010570824144,13.742732726866006
1772790390986396000,5.29339599609375,3.9852933324977755,-5.287395629012584,14.79199744964838
1772790391006430000,5.313429931640625,5.413406857991219,-7.1981176068991415,13.345771052098273
1772790391026462700,5.333462646484375,6.9274038924753665,-6.007785540303588,10.059524690872431
1772790391046496800,5.353496826171875,7.557834131377935,-2.9643665231883523,7.4401459095865485
1772790391066529800,5.37352978515625,6.461859095346927,-0.6101601888120174,5.370813332411647
1772790391086562800,5.393562744140625,4.6166436088547105,0.5163163684666157,2.0991092912793157
1772790391106596900,5.413596923828125,3.6939693762436505,0.4286673111081123,0.29088731840252874
1772790391126630000,5.4336298828125,2.683318169493973,0.9511801961272954,0.9753951844513415
1772790391146663000,5.453662841796875,1.8097522511839865,1.5277292072385549,1.617006742581725
1772790391166696700,5.47369677734375,0.7766025046393275,2.3300234947562215,1.3138561549335717
1772790391186730000,5.49372998046875,-0.30198388195633885,2.8819840080559254,1.0235130264103411
1772790391206763800,5.513763671875,-1.2301850612953305,2.945117048317194,0.8755693670868873
1772790391226796800,5.533796875,-2.299531910380721,2.4848101518422365,0.46341830649375915
1772790391246829800,5.553829833984375,-2.9996646310627457,1.8735446321368217,0.2821615756332874
1772790391266863900,5.57386376953125,-3.1553043978467583,1.548441740399599,0.4467097482770681
1772790391286897000,5.59389697265625,-2.875100093761086,1.5707295600533484,0.6862585091084241
1772790391306930700,5.6139306640625,-2.2540578609287736,1.923956722512841,-0.11124269891381264
1772790391326964000,5.6339638671875,-1.2806515122070907,1.7939011865794658,-0.937031259265542
1772790391346996700,5.653996826171875,-0.7818868747830391,1.7504986827045679,-0.6585176847457885
1772790391367030800,5.67403076171875,-1.0088608162015675,1.287875910502672,0.017382511955499648
1772790391387063800,5.694063720703125,-1.7362392712056636,1.0873118371039627,0.8022989636927843
1772790391407096800,5.714096923828125,-2.8036346939623353,1.225237960281968,1.230311025762558
1772790391427131000,5.734130859375,-3.7490468280822036,1.6479951705634592,1.381831374529004
1772790391447164000,5.754163818359375,-4.57767558029592,2.4044582657545805,1.2578005057126282
1772790391467198000,5.774197998046875,-5.184188352516293,3.2795635224610566,0.6928957551658154
1772790391487230700,5.794230712890625,-5.680557911497354,4.00207817082107,0.13455693900585175
1772790391507264000,5.814263916015625,-5.864452005124091,4.722933361536264,-1.1988567338347433
1772790391527298000,5.834298095703125,-5.275426958799362,4.788502689033747,-2.6448709499388934
1772790391547330800,5.854330810546875,-4.421241740524769,4.935162738287449,-3.526674242979288
1772790391567364900,5.87436474609375,-3.526687102460861,5.067601369965076,-4.261962448194622
1772790391587398000,5.89439794921875,-2.233631451232731,5.822127944135666,-4.299709702786803
1772790391607431000,5.914430908203125,-1.4311772969782353,5.982844575792551,-4.776798807236552
1772790391627464700,5.934464599609375,-1.2608826896369456,5.506037210893631,-5.5250674900561565
1772790391647498000,5.954498046875,-1.4798217931598423,4.958469964116811,-5.981476210048794
1772790391667530800,5.97453076171875,-1.191153319850564,4.95800702278018,-6.340874754619598
1772790391687564800,5.994564697265625,-0.4024731316655874,4.60391652148962,-7.151493218368292
1772790391707598000,6.01459814453125,0.8179416462436317,3.876830619691312,-7.469708104157448
1772790391727632000,6.0346318359375,2.1918162165492774,3.559953704507649,-6.720035984280705
1772790391747665000,6.054664794921875,3.861649709433317,3.5392876408368346,-5.442769146075844
1772790391767698000,6.074697998046875,5.847292196008563,3.4860517252117393,-3.8565626154273747
1772790391787732000,6.09473193359375,7.2422940177559845,3.41021936237514,-1.5766437525331973
1772790391807764200,6.11476416015625,7.088560084593295,2.878157143244147,1.1244114414423703
1772790391827797200,6.13479736328125,5.569213505774736,1.6227701284140348,2.9388229166090487
1772790391847831300,6.154831298828125,3.056989569567144,0.302819163736701,4.460226427957416
1772790391867864300,6.1748642578125,0.952145241767168,-0.2427572014838457,5.555657858631014
1772790391887898000,6.194898193359375,-1.0141805499196053,-0.6451660357415676,5.452200406765938
1772790391907931400,6.214931396484375,-2.0181307977259157,-0.8011129687786102,4.609419502820074
1772790391927964200,6.234964111328125,-2.2649781911328435,-0.7283814945667981,3.47223128965199
1772790391947998200,6.254998291015625,-2.191579192923009,-0.43857846426963804,2.639740601313114
1772790391968031200,6.27503125,-2.1257292949184774,-0.03282967193424702,1.8455325896173715
1772790391988065300,6.295065185546875,-2.2614739824041723,0.10109306082129478,1.1996078444629907
1772790392008098300,6.315098388671875,-2.3231138614982365,0.24228783040642737,0.4780652560055256
1772790392028131300,6.33513134765625,-2.3664859702348706,0.11464753892123698,-0.501503999260068
1772790392048165400,6.355165283203125,-2.490611239336431,-0.07612345473766327,-1.234449440741539
1772790392068198100,6.3751982421875,-2.7237138927683233,-0.38658407313823695,-1.9275790046632288
1772790392088231400,6.3952314453125,-2.936032409107685,-0.707327600622177,-2.1837767024785277
1772790392108265200,6.41526513671875,-2.939513821482658,-0.826949420824647,-2.239689143836498
1772790392128298200,6.43529833984375,-2.709988149754703,-0.49957098537087435,-2.0297049156636
1772790392148332300,6.455332275390625,-2.604187934155762,0.6266770238488912,-2.0612258430868384
1772790392168365300,6.475365234375,-2.7107126646369695,1.1189268725514412,-2.111009572431445
1772790392188398300,6.4953984375,-2.298201830820739,1.2834306215316056,-1.0667454344153404
1772790392208432000,6.51543212890625,-1.6311001498639583,0.8986416151165961,0.3604325637936592
1772790392228465400,6.53546533203125,-1.1769336558401584,0.039379824230074884,2.4371979213178157
1772790392248499200,6.555499267578125,-0.5575552645668387,0.13272797001302242,5.466106182521582
1772790392268532200,6.5755322265625,0.12864450009167194,1.4572797064840792,8.255054179483652
1772790392288565200,6.595565185546875,0.19988485896289349,0.9687748895287513,10.513618704181908
1772790392308599300,6.615599365234375,0.2991536269664764,-1.5656120709091423,12.117162154078484
1772790392328632300,6.63563232421875,1.1869853865161537,-4.3423546662926675,13.429811271309852
1772790392348665300,6.655665283203125,2.4723265178441998,-6.168572899109125,12.534440640687942
1772790392368699400,6.675699462890625,3.6643291480004785,-5.729080242604017,9.959385569775105
1772790392388732200,6.695732177734375,4.469654473777115,-3.4217724375247953,7.825727527683973
1772790392408766200,6.71576611328125,4.198467004361748,-1.4958902999073267,5.226034274598955
1772790392428799200,6.73579931640625,2.914733600491285,-0.9021049073129892,2.823191919608414
1772790392448832300,6.755832275390625,2.026107475693524,-0.8105155878961086,1.315465343695879
1772790392468866300,6.7758662109375,1.8062287532329557,-0.6210585994452238,1.2802356248825788
1772790392488899300,6.7958994140625,1.154362050808966,-0.22587854739725588,1.7408908964037895
1772790392508932400,6.815932373046875,0.07709288429170846,0.3838683844387531,1.8446277497321366
1772790392528966100,6.835966064453125,-0.893377118717134,1.2698463328152894,1.7578958072185515
1772790392548999400,6.85599951171875,-1.5387410151183605,2.6162702938765285,1.862335255858302
1772790392569033500,6.876033447265625,-2.015545165146887,3.5647827320992946,1.9807617287963628
1772790392589066200,6.896066162109375,-1.946359400717914,3.9759249079108234,2.0335604220479726
1772790392609099300,6.916099365234375,-1.7053227394163608,3.755467801040411,1.5840864697545767
1772790392629133300,6.93613330078125,-1.2780877991989255,3.4045150132536888,0.911217603573203
1772790392649166300,6.956166259765625,-0.8533771167621016,3.0660739165157076,0.1456651929974556
1772790392669199000,6.97619921875,-0.6752706666260957,2.720501652723551,-0.6292629486888647
1772790392689233400,6.9962333984375,-0.6973933588460087,2.395505728492141,-0.8087386413514613
1772790392709266200,7.01626611328125,-0.8578025319889188,2.2780063072711227,-0.7486001067310571
1772790392729300200,7.03630029296875,-1.1382213556081056,2.3150413219407198,-0.7047954517960549
1772790392749333500,7.05633349609375,-1.609766854456067,2.3626500453338024,-1.0875538291662932
1772790392769366300,7.0763662109375,-2.0444015495359897,2.568257373596728,-1.7690023076444863
1772790392789400300,7.096400390625,-2.3876930089145896,2.8121073387533424,-2.5446155089855194
1772790392809433600,7.11643359375,-2.3415584497272968,3.044577539500594,-3.0746681418597697
1772790392829467600,7.136467529296875,-2.0811258908212182,3.3480563361898064,-3.4082840103983876
1772790392849500700,7.156500732421875,-1.8409017149463296,3.6632732092067597,-3.4140012190014124
1772790392869533400,7.176533447265625,-1.6830086162775755,4.0342897108569735,-3.426032433056831
1772790392889567500,7.1965673828125,-1.710138030743599,4.648433416347205,-3.5978795305371283
1772790392909600500,7.2166005859375,-1.8731474495127796,5.206877738708258,-3.82895038588047
1772790392929633500,7.236633544921875,-2.1921993706479665,5.320219455727934,-4.219387042793631
1772790392949667600,7.25666748046875,-2.1480589078873393,5.387499678796529,-4.017581444901228
1772790392969700600,7.27670068359375,-1.8081930390432477,6.594708061391115,-3.2327000644773243
1772790392989734700,7.296734619140625,-1.7332289834737777,6.789155697736144,-3.206260385841131
1772790393009767400,7.316767333984375,-1.7534622086852787,6.660438716930151,-3.268188141965866
1772790393029800700,7.33680078125,-1.6126017856210468,5.6623196594953535,-3.379935867792368
1772790393049834500,7.35683447265625,-0.8930258210614324,4.8432685907050965,-3.0129268482178446
1772790393069867500,7.376867431640625,-0.08069558495879173,3.9307022028714416,-2.443088148400187
1772790393089900500,7.396900634765625,0.7153706218242645,3.144607062743604,-1.7956307868510484
1772790393109934600,7.4169345703125,1.312333767671883,2.452861354395747,-1.3225292907327413
1772790393129967600,7.436967529296875,1.8214359669759868,1.6788479894667863,-0.8796808940589428
1772790393150001400,7.45700146484375,2.2633573119327424,0.945561771723628,-0.49967035409212107
1772790393170034700,7.47703466796875,2.5740578765690327,0.4461930309265852,0.4260223495572805
1772790393190067500,7.4970673828125,2.536413790090382,0.1805950520813465,1.8732862734615803
1772790393210101500,7.5171015625,1.9475822205111384,-0.18664426911771295,3.3793507613807914
1772790393230134500,7.537134521484375,1.0399009743705392,-0.37771044633090495,4.837582069501281
1772790393250167600,7.55716748046875,-0.007146364623308182,-0.5949310554981231,6.125431091997027
1772790393270201600,7.57720166015625,-0.8585898829743266,-0.862969997754693,6.731113258612155
1772790393290234600,7.597234619140625,-1.252957741856575,-1.2848761441648007,6.521960805088281
1772790393310268700,7.6172685546875,-1.3242334643021225,-1.5575462533533573,5.653899037152528
1772790393330301400,7.637301513671875,-1.305254038543999,-1.6102397326648235,4.444704449176788
1772790393350334700,7.657334716796875,-1.2543594253480435,-1.702476117813587,3.1182597385659814
1772790393370368800,7.67736865234375,-1.2308712899938226,-1.8040023093551396,1.9608593429744243
1772790393390401500,7.697401611328125,-1.1589572696447372,-1.8593442573487757,1.003181016999483
1772790393410434800,7.717434814453125,-1.0586030444920063,-2.013036689457297,0.26789982604682444
1772790393430468600,7.737468505859375,-0.9853697582378983,-2.14268656719923,-0.19575988798737526
1772790393450501600,7.757501708984375,-0.8678852423250675,-2.154042658472061,-0.48325230325460433
1772790393470535400,7.777535400390625,-0.7233798868872224,-1.8860422946602104,-0.5398860446244478
1772790393490568700,7.797568603515625,-0.7583037546217442,-1.3622457995712756,-0.4835919104725122
1772790393510601500,7.8176015625,-0.9792749484941363,-0.9390992977112531,-0.3094330289185047
1772790393530635500,7.837635498046875,-1.0631260748744011,-0.49665772827267646,0.32782091852426526
1772790393550668800,7.857668701171875,-0.9491935523547231,-0.43888183113038537,0.9633873512715101
1772790393570701600,7.87770166015625,-0.3789353119507432,-0.7229115387231111,1.5192425339221953
1772790393590735600,7.897735595703125,0.15142624074220656,-0.9714426474332809,2.0526228499144317
1772790393610768600,7.9177685546875,0.39952188064455985,-1.1865922955453394,2.5583470972180367
1772790393630802700,7.937802734375,0.4830111879751086,-1.5702824008077383,2.8130536796927452
1772790393650835500,7.95783544921875,0.7409133516207337,-2.3639801248937844,2.6246289568990466
1772790393670868700,7.97786865234375,1.733194788943231,-3.384987890484929,2.0835937422394752
1772790393690902800,7.99790283203125,3.3633822078764437,-3.1461691974937915,2.771704601216316
1772790393710932500,8.017932373046875,4.014082496869563,-2.337026066994667,3.475287170091271
1772790393730965500,8.037965576171874,4.3120644497081635,-1.250780982339382,4.493064575459063
1772790393750999800,8.057999755859376,3.4342771143108606,-1.2634797203928232,5.18583670424521
1772790393771032600,8.078032470703125,2.2867992700576782,-1.5485130520701407,5.732135538521408
1772790393791065600,8.098065673828126,1.2194032627791165,-1.8095161043405532,5.912288107532262
1772790393811099600,8.118099609375,0.11852350357174872,-1.9999889918357132,5.62310525496006
1772790393831133000,8.1381328125,-0.9004755525454878,-1.8489467819750307,5.134180166766047
1772790393851165700,8.158165771484375,-1.6053005226969719,-1.3592711676746605,4.632475091975927
1772790393871199700,8.17819970703125,-2.040673468923569,-0.7857271835982799,3.557185701099038
1772790393891233000,8.19823291015625,-2.03463740362972,-0.15580489421784877,2.6824206361323593
1772790393911266800,8.218266845703125,-1.7061220731005071,0.8157406290680169,2.1666548872858287
1772790393931299800,8.2382998046875,-1.4212822181686757,1.9994068080335854,1.4693722953379154
1772790393951332900,8.258332763671875,-1.2033850249141453,3.021257454189658,0.598868394947052
1772790393971367000,8.278366943359375,-1.1649874897196888,4.398420252385735,0.16745792261064052
1772790393991399700,8.298399658203126,-1.5007009150594472,5.2084518561571835,-0.572066312739253
1772790394011433700,8.318433837890625,-1.963237470282614,5.498663467255234,-1.0097948821812868
1772790394031467000,8.338467041015624,-2.4116940622270104,5.256061748594045,-1.3579279363721608
1772790394051499800,8.358499755859375,-2.9989985683694482,4.702023844498395,-1.6708628359317779
1772790394071533800,8.378533935546875,-3.5271468289270995,4.255734075199068,-1.8674837246626614
1772790394091566800,8.39856689453125,-3.4795760994568465,3.99654947052747,-2.129828839191794
1772790394111599900,8.418599853515625,-3.1616411996528506,3.54898456672579,-2.471753686392307
1772790394131636000,8.438635986328125,-2.6567081027269364,2.879261889615655,-2.6869430819928644
1772790394151668700,8.458668701171876,-2.0422063775792716,2.4502312981531023,-2.7172587252795695
1772790394171702800,8.478702880859375,-1.4573209152773021,2.090750043734908,-2.667230081263184
1772790394191735800,8.49873583984375,-1.060695925118029,1.6730790506765245,-2.5687246988475323
1772790394211768800,8.518768798828125,-0.8462485800564289,1.3255281802877783,-2.503850367876887
1772790394231803000,8.538802978515625,-0.6490411236092448,1.125095039792359,-2.360397590231895
1772790394251836000,8.5588359375,-0.5127928705155849,1.1111766968160868,-2.2119319528609513
1772790394271870000,8.578869873046875,-0.4806234160557389,1.191817044456303,-1.9352613758593797
1772790394291902700,8.59890283203125,-0.372029478085041,1.4890174915283918,-1.4628011002540589
1772790394311936000,8.61893603515625,-0.2028264653727412,1.6645564292639492,-1.2273200272530316
1772790394331969800,8.6389697265625,0.021389994031190872,2.040152367658913,-1.3293038994342088
1772790394352002800,8.6590029296875,0.2606409409597516,2.9229724365264174,-1.1139958458900452
1772790394372035800,8.679035888671875,0.5446490212425589,3.9785190160572528,-0.8390349954158067
1772790394392070000,8.69906982421875,1.1196643930457533,4.957029702180623,-0.3339484614938497
1772790394412103000,8.71910302734375,1.4595662099860607,6.668057375240325,0.06872340761423111
1772790394432136700,8.73913671875,1.2804840466856955,8.126759808003902,0.09520692539215088
1772790394452170000,8.759169921875,0.7199298925638199,7.980107942056655,-0.9084761959105729
1772790394472202800,8.77920263671875,1.3098982110880315,6.44751142104268,-2.7451877656906842
1772790394492236800,8.79923681640625,2.796512586997449,4.155569819660484,-3.3037492846906185
1772790394512270000,8.81927001953125,5.110511121886968,2.7371044124782085,-2.0816203963398934
1772790394532302800,8.839302734375,6.33831688683033,1.859112494419515,-1.437548585575819
1772790394552337000,8.8593369140625,6.184089617192745,0.9373524540439248,-2.1642045715242624
1772790394572370000,8.879369873046874,5.3591223100960255,0.5949623274192214,-2.724428470778465
1772790394592404000,8.899404052734376,3.7718472734332082,0.17728753496855496,-3.1583664157658813
1772790394612436700,8.919436767578125,2.028924432810396,0.0450689757823944,-2.742023748701811
1772790394632470000,8.939469970703126,0.6473065549015998,0.5134872825205326,-1.8419979857504367
1772790394652504000,8.959504150390625,-0.5569361097551881,1.4102847310751676,-0.3985901527523994
1772790394672536800,8.979536865234374,-1.8896546399384735,2.4224182853370904,1.5431144078969954
1772790394692569900,8.99956982421875,-3.2049592401146887,3.0553783349782226,3.5579952639162538
1772790394712604000,9.01960400390625,-4.531629283913969,3.046211278182268,5.7058186094820496
1772790394732637000,9.039636962890626,-5.844453173190355,2.122158742955327,7.211746319279074
1772790394752670700,9.059670654296875,-6.719623311826586,0.2676093186676502,7.339556122112274
1772790394772704000,9.0797041015625,-6.92226769863069,-1.1521832454651593,6.9970449994564055
1772790394792736800,9.09973681640625,-6.562157790920138,-1.9032289917826652,6.295315949493646
1772790394812770600,9.1197705078125,-5.889625024825334,-2.035192991685867,5.291540473732352
1772790394832803600,9.139803466796875,-4.9982005014806985,-1.8136095111340282,3.9814489320293065
1772790394852836600,9.159836669921875,-4.2165512348458165,-1.440974468371272,2.664059050011635
1772790394872870700,9.17987060546875,-3.497961650975048,-1.1059452259033917,1.3427531635940073
1772790394892903700,9.199903564453125,-2.927090977761149,-0.708390845939517,0.2231412313878536
1772790394912937700,9.219937744140625,-2.5330326232194897,-0.2711433380126953,-0.7458277194082736
1772790394932970500,9.239970458984375,-2.3561972159326077,0.11431202335655688,-1.5437135428339241
1772790394953003500,9.26000341796875,-2.4316554847598075,0.40554654776155946,-2.330755900683999
1772790394973037800,9.280037841796876,-2.423904724502563,0.5965735620081425,-3.1648405802160497
1772790394993070600,9.300070556640625,-2.620743932159245,1.2681973965644835,-3.6629409085124727
1772790395013103600,9.320103515625,-3.6050142047226426,2.268132563510537,-3.4610488013803957
1772790395033137700,9.3401376953125,-4.021515569479763,2.4902596494197846,-3.5688352223604913
1772790395053170700,9.360170654296875,-3.8352059391438957,2.434145548009872,-3.5417625065177676
1772790395073204500,9.38020458984375,-1.8066157067239283,4.044740669983625,-3.022524113124609
1772790395093237800,9.40023779296875,0.8931738512299955,5.595398332867026,-1.7061287951022386
1772790395113270500,9.4202705078125,5.37198179166913,3.78021762689352,1.7498831811547277
1772790395133304600,9.4403046875,12.70676938420534,-1.4039999517172574,8.548007198244333
1772790395153337600,9.460337646484374,17.645385477817058,-0.04090133470892906,10.058953028464316
1772790395173370600,9.48037060546875,21.689491357028484,2.210546635982394,2.5419039119392632
1772790395193404700,9.50040478515625,20.325911678504944,1.4767057069659233,-2.519864806349575
1772790395213437400,9.5204375,14.830039303272962,-1.0197691637068986,-0.08957885637730359
1772790395233471700,9.5404716796875,8.104909210723639,-1.0325585026532411,4.140069468189775
1772790395253504500,9.56050439453125,1.5851751417741178,-1.113550440210104,4.250291007362306
1772790395273537500,9.58053759765625,-2.3239935669422147,-1.5842665024966,3.1990853796452283
1772790395293571600,9.600571533203125,-3.775305304932594,-2.327421203303337,2.578113289439678
1772790395313604600,9.6206044921875,-3.7821582395672797,-2.708264686962962,2.909202269849181
1772790395333637600,9.6406376953125,-3.699828915926814,-2.417701778209209,3.1378719092696903
1772790395353671400,9.66067138671875,-3.324365956261754,-1.584315017813444,3.199286747436225
1772790395373704700,9.68070458984375,-2.6551369078874587,-0.9120926328420639,3.6280095881238577
1772790395393737500,9.700737548828124,-1.626850675725937,-0.0803396111279726,4.2935093868419525
1772790395413771500,9.720771484375,-0.9193412887960671,0.576430353167653,4.862822309219837
1772790395433804500,9.740804443359375,-0.6214423380658031,1.7182073554307222,5.395349807775021
1772790395453838600,9.760838623046874,-1.24781979444623,2.0955162352234122,4.963114575052261
1772790395473871600,9.78087158203125,-2.398887772145867,1.7584341518789528,3.9599323890089986
1772790395493904600,9.800904541015624,-3.7822216601923104,1.154813593968749,3.0543250265330073
1772790395513938700,9.820938720703126,-5.028033914208412,0.552804562908411,2.5551930171012875
1772790395533971500,9.840971435546875,-5.990516425594687,0.2257698263257742,2.6191467260956762
1772790395554004700,9.861004638671876,-6.635963031843304,0.09873393047451973,3.072683105522394
1772790395574038500,9.88103857421875,-6.97946784171164,0.0031055647999048233,3.4498443935379384
1772790395594071600,9.901071533203124,-6.809051653817296,0.2925929532766342,3.6986394138813017
1772790395614105600,9.921105712890625,-6.318051512914896,0.8080313698649406,3.5596599822580814
1772790395634138600,9.941138671875,-5.556330643326044,1.5346224738836287,3.3110166453450915
1772790395654171600,9.961171630859376,-4.7562815043866635,2.4171944132089616,2.9376071110785005
1772790395674205400,9.981205322265625,-3.898517258581519,3.2720114996463057,2.3908546878159043
1772790395694238700,10.00123876953125,-3.1649013704925775,4.18315311537385,1.8916601345419883
1772790395714271500,10.021271484375,-2.448355275148153,5.1806479034304616,1.3365788588732481
1772790395734305500,10.041305419921875,-2.0290064120054243,5.881255840408802,0.6769418147087096
1772790395754338600,10.061338623046876,-1.9162503859192133,6.422244293317198,-0.37551732020080086
1772790395774371600,10.08137158203125,-1.9552707291871307,6.831231336921453,-1.265923021891713
1772790395794405600,10.101405517578126,-1.949735014630854,7.125860179939866,-1.9640110850036143
1772790395814438000,10.12143798828125,-1.710674621838331,7.069814467591047,-2.8774451955825087
1772790395834472000,10.141471923828124,-0.9792167885661125,6.622623073276877,-3.3792478855282067
1772790395854504700,10.161504638671875,0.1851721507385373,6.8931742906153195,-3.8018332463741302
1772790395874538000,10.1815380859375,1.7345456190302968,7.626564553254842,-4.741861933889985
1772790395894571800,10.20157177734375,2.690043386095762,8.452733637356758,-6.487753999581932
1772790395914604800,10.221604736328125,2.485538758377731,8.835939758494495,-7.565516502574086
1772790395934637800,10.241637939453126,4.280880499154329,7.325396079334617,-7.653841851758957
1772790395954671900,10.261671875,8.903490030676126,5.4401019726932045,-6.812928787511587
1772790395974705000,10.281704833984374,13.3780238009274,3.6937346907049413,-6.456801811957359
1772790395994738000,10.301738037109375,15.211487767088412,2.4205910699099302,-5.8868818635970355
1772790396014772000,10.32177197265625,13.423508956295251,2.643336579978466,-4.736304884284735
1772790396034804700,10.3418046875,9.040085782033204,3.418667749507725,-4.660391272905469
1772790396054838800,10.3618388671875,3.8804856350675223,4.468458834251761,-3.104794984576106
1772790396074871800,10.381871826171874,0.3212593680515885,6.094108317494392,-0.8622650643557309
1772790396094904800,10.40190478515625,-1.7596660317614674,7.797316841235756,1.827899902293086
1772790396114939000,10.42193896484375,-3.538813593584299,8.305210249271989,3.750435652092099
1772790396134972000,10.441971923828126,-4.858296356227994,7.9062705524295565,5.5736587947458025
1772790396155005000,10.4620048828125,-5.999706278744339,6.560126577353477,6.412904802563786
1772790396175038700,10.482038818359374,-6.533689821326732,4.800584756493568,6.741674984636902
1772790396195072000,10.502072021484375,-6.655825085654854,3.4521383496940135,6.792250741142034
1772790396215106000,10.52210595703125,-7.010516475448012,2.0644401289582253,6.2788026215881105
1772790396235138800,10.542138916015626,-7.204027707725763,0.739655752775073,5.003727740469575
1772790396255172000,10.562172119140625,-6.68938307186365,0.3051490679889917,3.3760528888791796
1772790396275206000,10.582205810546874,-6.022693771100044,0.5273673393130303,1.9863018272668123
1772790396295239000,10.602239013671875,-5.28880198867917,0.6858154415160417,0.522843139886856
1772790396315272000,10.62227197265625,-4.4761458816230295,0.7988251501023769,-0.9325941536009311
1772790396335306000,10.642305908203125,-3.9733477508991952,0.6510095010727643,-2.004216838663816
1772790396355338800,10.6623388671875,-3.617518589247763,0.630319764265418,-2.4690058489888904
1772790396375372000,10.6823720703125,-3.497475621023774,0.6300093831419944,-2.6422049456000325
1772790396395406000,10.702406005859375,-3.5313106706082817,0.8765823435217142,-2.5328619428277013
1772790396415438800,10.72243896484375,-3.7993797157421705,1.5378373442769049,-2.3306237987369296
1772790396435473000,10.742472900390625,-4.202881313672662,2.263857954931259,-2.0551158357739445
1772790396455506000,10.762505859375,-4.583921781209111,2.737576706165075,-2.0486095226198433
1772790396475539000,10.7825390625,-4.764543136775493,3.13419818919301,-1.969507928854227
1772790396495572700,10.80257275390625,-4.833085634864866,3.7628146566718814,-1.5794073720276356
1772790396515606000,10.82260595703125,-4.778693242681026,4.372878399372101,-0.7330547470748424
1772790396535638800,10.842638671875,-3.7619291060090063,4.994845345833897,0.42434301816821096
1772790396555672800,10.8626728515625,-2.2877029408991336,5.022067699280381,2.7790409354537724
1772790396575706000,10.8827060546875,1.4769973833888768,3.3966613771438596,8.837247333961725
1772790396595740000,10.902739990234375,6.533585776430368,-1.085329138854146,14.403339492845534
1772790396615773000,10.92277294921875,12.078242348575591,-4.721917462491989,15.315405237680674
1772790396635806000,10.942805908203125,13.479895444905758,-4.874359017756581,13.185126901155709
1772790396655840000,10.962840087890624,10.767409925377368,-6.230211901420354,14.036155701225995
1772790396675872800,10.982872802734375,9.598958266678451,-10.535354735171794,13.162452128010987
1772790396695906000,11.002906005859375,12.604611324501036,-11.256104127424955,5.770215386068821
1772790396715940000,11.022940185546876,16.40776442130208,-6.180311267697811,-0.26048984205126763
1772790396735972900,11.042972900390625,12.705460055172443,-3.90065953130722,-2.0946445669554175
1772790396756006000,11.063005859375,5.465241674646735,-3.981958927378058,0.4407566850915551
1772790396776040000,11.0830400390625,0.932501214620471,-2.236177920845151,0.7033721409946679
1772790396796073000,11.103072998046875,-0.7629115406781435,0.4245668900519609,0.30234687004983424
1772790396816107500,11.123107421875,-2.165437912711501,1.5691104344189166,0.8183443818256259
1772790396836140300,11.143140380859375,-2.449174190315604,2.279014607530832,1.0113765984147787
1772790396856173600,11.163173583984374,-1.601679994112253,3.2436323773801323,1.5000044572278857
1772790396876207600,11.18320751953125,-0.7727613190412521,4.00627562251091,2.0626266497954724
1772790396896240400,11.203240478515625,0.9083107762157917,3.4779666184335944,3.753015147191286
1772790396916273700,11.223273681640626,2.339360647422075,2.4941905591279268,5.6869642714083195
1772790396936307500,11.243307373046875,1.4623153625637293,1.573699515774846,6.3358361759305
1772790396956340500,11.263340576171874,-0.11884791322052478,1.2549766804635525,6.585809300142526
1772790396976373500,11.28337353515625,-1.7634727305680513,1.358655081602931,6.213250829747319
1772790396996407600,11.303407470703124,-3.406855438899994,1.7422616002351046,5.108742943170666
1772790397016440300,11.3234404296875,-4.417333627170324,2.7585803312271833,3.922303207838535
1772790397036474400,11.343474365234375,-4.883609076660871,4.318937842608988,3.0846500221699475
1772790397056507600,11.363507568359376,-5.199022349032759,5.810192591670155,2.1679595401436087
1772790397076540400,11.38354052734375,-5.29087236521244,6.795788267618417,1.2873551014989613
1772790397096574500,11.403574462890624,-5.099165552008151,7.882004710701107,0.5860480763405561
1772790397116607500,11.423607421875,-4.925482471272349,8.37712339283824,-0.27962533515393734
1772790397136640500,11.443640625,-4.670434528014064,8.917465364536643,-0.907813932609558
1772790397156674300,11.46367431640625,-4.297677320176363,9.014453912648557,-1.812640373840928
1772790397176707600,11.48370751953125,-3.6861587024927136,8.947268966647982,-2.717675489386916
1772790397196740400,11.503740234375,-2.808113300681114,8.902671700030565,-3.4411569369524715
1772790397216774400,11.5237744140625,-1.776914103682339,8.710656259268521,-4.348374657234549
1772790397236807700,11.5438076171875,-0.8331102815419436,8.30412596116662,-5.58026564566493
1772790397256841500,11.563841552734376,0.21346008758991955,7.868886870452761,-6.493979742228984
1772790397276874500,11.58387451171875,1.2144225517570972,8.43754834318459,-6.303804376375675
1772790397296907500,11.603907470703126,2.3113620489060875,8.87595437349677,-6.946817617997526
1772790397316941600,11.623941650390625,3.2602932970628142,8.490919867888092,-8.12463623997867
1772790397336974300,11.643974365234374,3.890010419259965,8.042571120232344,-8.556918234452604
1772790397357007600,11.664007568359375,5.1169092984914775,7.303391168275475,-8.633210031494498
1772790397377041700,11.684041748046875,6.117449445593357,6.233890882194042,-8.788030590850115
1772790397397074400,11.704074462890626,7.682502129054069,5.692067732027173,-8.413466625851392
1772790397417107500,11.724107421875,9.932674088460207,6.323728389507532,-6.94179482139945
1772790397437141500,11.7441416015625,10.51727079694867,7.739780013546347,-5.0232297287970775
1772790397457174500,11.764174560546875,8.797243824875354,10.398554401153325,-2.0078905587404967
1772790397477208300,11.784208251953125,5.669281315201521,12.558992898142337,2.021007814466953
1772790397497241600,11.80424169921875,2.288427748042345,13.935721981096266,6.600034224849939
1772790397517274400,11.8242744140625,-1.1702990401312707,12.22824469399452,9.593321722096205
1772790397537308400,11.844308349609374,-3.1649042931020257,8.646361189490555,12.170719556742906
1772790397557341700,11.864341796875,-4.3051071779161685,4.358261260476708,14.929341389024257
1772790397577374500,11.88437451171875,-4.877039050620794,0.028364509218931196,15.000692807054518
1772790397597408500,11.904408447265626,-4.600544999229908,-3.2074604092806576,12.7853641974926
1772790397617441500,11.924441650390625,-3.575513677211106,-3.948083545783162,10.503998642921447
1772790397637474600,11.944474609375,-2.303728777548671,-2.973449408832192,8.359996901470423
1772790397657508400,11.96450830078125,-1.3773968992128967,-1.3793161768376827,6.6964020107150075
1772790397677541400,11.984541259765624,-0.4799325111821294,1.0114572624355553,5.118704949736595
1772790397697572400,12.004572265625,-0.08050678438842296,3.0091391463726755,2.6022832695782183
1772790397717606700,12.024606689453124,-0.5026970084369182,3.2497207573831077,-0.39061552061140536
1772790397737639400,12.044639404296875,-0.6188698572292923,2.539520231673121,-2.978653407216072
1772790397757672400,12.06467236328125,-1.2451178420111537,1.9017758703649044,-4.7981695120453836
1772790397777706500,12.08470654296875,-2.347937921631336,1.233686639675498,-6.109724404299259
1772790397797739500,12.104739501953125,-3.309078078497946,1.6178648207157849,-6.047524845495819
1772790397817773600,12.124773681640624,-5.022110369378328,1.9633949989318846,-5.405842560216784
1772790397837806300,12.144806396484375,-7.131207386186719,1.1011223357915878,-4.2994606964617965
1772790397857839600,12.164839599609374,-7.7537945103734724,1.5623668053776025,-2.415643676635623
1772790397877873400,12.184873291015625,-6.908290611204505,2.291653724351525,0.3838631237417459
1772790397897906400,12.204906494140625,-5.039366040083766,1.746506982719898,3.2595947934046388
1772790397917939500,12.224939453125,-0.5314373652309179,-0.24766952344477175,9.564193827289342
1772790397937973500,12.244973388671875,4.3756905341833825,-3.333184053489566,14.334356557512283
1772790397958006500,12.265006591796874,7.362737091213464,-4.758176524353027,15.675402917188405
1772790397978039600,12.28503955078125,7.573685195982455,-6.298266615992784,15.778382814669609
1772790397998073600,12.305073486328125,6.607721856743097,-8.114667803671956,15.120001908046007
1772790398018106400,12.3251064453125,5.719176103705167,-7.48945325359106,12.306297070968151
1772790398038140400,12.345140380859375,4.346549195373058,-5.15745115223825,9.238871739843487
1772790398058173400,12.36517333984375,2.674899300716817,-2.2778671910613775,7.347210436257719
1772790398078206500,12.38520654296875,0.3947811158582568,-0.3039683337718248,5.650910961252451
1772790398098240500,12.405240478515625,-1.740291469205916,0.5867459954768419,4.182744534572959
1772790398118273500,12.4252734375,-2.6272274489596485,1.2448930933445692,3.2020652722388503
1772790398138306600,12.445306640625,-2.346192831529677,2.1462574114233255,2.971857171204686
1772790398158340400,12.46534033203125,-1.6426649154514072,3.355516881328821,2.934036266854405
1772790398178373600,12.48537353515625,-0.9684034258678554,4.756810496696829,3.2427298755824565
1772790398198406400,12.505406494140624,-0.7423150351122021,5.556122553533315,3.5300481033265587
1772790398218440400,12.5254404296875,-0.5972562835752964,5.9529585560947655,3.9114515589565038
1772790398238473500,12.545473388671875,-0.7909519325092434,6.103641284993291,3.3572640172570942
1772790398258507500,12.565507568359376,-0.9365919910654426,6.079750121796131,2.5420190627515313
1772790398278540500,12.58554052734375,-1.1977101941481232,6.1777218357265,1.874157795599103
1772790398298573600,12.605573486328124,-1.6313552936688065,6.225526958474516,1.4476333417385816
1772790398318607600,12.625607666015625,-2.129017522808909,6.449642587852478,1.3946312348693608
1772790398338640400,12.645640380859374,-2.6430788058251142,6.595403057917952,1.490835354605317
1772790398358673700,12.665673583984375,-3.006604074937105,6.622331396853923,1.1797715096145867
1772790398378707500,12.68570751953125,-3.1775106766968966,6.74945730907619,0.5447445905715227
1772790398398740500,12.705740478515626,-3.2057658803224562,6.891324863356352,-0.2974585134863853
1772790398418774500,12.7257744140625,-3.075392949002981,6.987277638679743,-1.2277788769364357
1772790398438807600,12.7458076171875,-3.0001930388510227,6.663527915117144,-2.3703227719187736
1772790398458840600,12.765840576171875,-2.6363568040937184,6.667577482768893,-3.211862443631887
1772790398478874400,12.785874267578125,-2.336136424678564,6.990901089873909,-3.804932381433248
1772790398498907600,12.80590771484375,-2.1713772396326063,7.604175026792287,-4.299827776208519
1772790398518940400,12.8259404296875,-1.8584639673829078,7.693822564491629,-4.996098560765385
1772790398538974500,12.845974365234374,-1.3674436604753135,7.620912226581573,-5.770896354070305
1772790398559007500,12.866007568359375,-0.7021104504957795,7.671696657401323,-6.429412285250425
1772790398579040500,12.88604052734375,-0.3141165105596185,7.710372132754325,-6.8636740553647275
1772790398599074600,12.906074462890626,0.06876900032162665,7.734398320508003,-7.126396186512708
1772790398619107600,12.926107666015625,0.7673802105247974,8.443893328297138,-6.804236362490058
1772790398639140600,12.946140625,1.2945745313584804,9.069213676840066,-7.055464455199242
1772790398659174400,12.96617431640625,1.5249180953405796,9.567299392089247,-7.298305827835202
1772790398679207700,12.986207763671874,1.9282383453547953,9.55871393457353,-7.574146968275308
1772790398699241700,13.00624169921875,2.096296571946144,9.307399332624673,-7.022257182124257
1772790398719274500,13.0262744140625,2.3470903648912906,9.181100518876313,-5.488333211898803
1772790398739307500,13.0463076171875,2.3312279021099207,9.065349987149238,-3.331513489928841
1772790398759341600,13.066341552734375,2.6062650326907635,8.721061333426833,-1.4379817162960766
1772790398779374600,13.08637451171875,3.149629567080736,9.02633315101266,0.7231576224386692
1772790398799407400,13.106407470703125,3.329083924694359,9.544289687901735,2.6929408611029384
1772790398819441400,13.12644140625,2.9314217004418373,9.681854576551913,4.887463998523354
1772790398839474200,13.14647412109375,2.013463974958658,9.456599714010954,7.6698285254418845
1772790398859507200,13.166507080078125,0.611748042525351,7.415075181216001,9.923023632061481
1772790398879541200,13.186541259765624,-0.6642571051806211,4.787069441360235,11.904253562891483
1772790398899574300,13.20657421875,-1.8527113952055572,2.2191893766432997,14.09741125717759
1772790398919608300,13.2266083984375,-2.6567072259441016,-0.5736112040936947,15.371275008940696
1772790398939641300,13.246641357421876,-2.7428964398831126,-2.9388842914074655,13.881613958811759
1772790398959674400,13.26667431640625,-2.6939170126587153,-4.229802638345957,11.107336292237044
1772790398979708200,13.286708251953126,-2.2096029253914953,-3.4457542016148563,8.874031296479702
1772790398999741400,13.306741455078125,-1.5537199730634688,-2.1048855365931987,7.053018815612792
1772790399019774200,13.326774169921874,-1.3626570107206701,-0.6287561682105064,5.254832499060035
1772790399039808300,13.346808349609375,-1.6525994494885206,0.02983049011826515,2.7742446410879493
1772790399059841300,13.36684130859375,-1.8473939995750783,-0.14766075072884557,0.7256330726414918
1772790399079874300,13.386874267578126,-1.956678550158441,-0.7618179002225398,-0.7293985626548528
1772790399099908400,13.406908447265625,-2.0400515376329422,-1.5262532894670962,-1.4709464127868412
1772790399119941000,13.426941162109374,-2.23503255020231,-1.960391725462675,-1.7505828538566828
1772790399139975400,13.446975341796875,-2.6954022827804085,-2.2692022385686634,-1.7961773148179052
1772790399160008200,13.46700830078125,-3.243931360326707,-2.0613100142389533,-1.5856798764258622
1772790399180041200,13.487041259765626,-3.9951273287698625,-1.6542495547831058,-1.567397785282135
1772790399200075300,13.5070751953125,-4.350626527814567,-0.9093605775296687,-1.3420932383805513
1772790399220108300,13.5271083984375,-4.406142663331329,-0.058418286699056625,-0.9563386018037795
1772790399240141000,13.54714111328125,-4.260752780143917,0.4518132088959217,-0.36327100208997726
1772790399260175000,13.567175048828124,-3.6817926162376997,0.9164274471759796,0.8809268024668097
1772790399280208400,13.58720849609375,-3.2617762290969488,0.6697077718019485,2.852530242295563
1772790399300241200,13.6072412109375,-2.661183786836266,-0.45458676526248454,5.339260840806364
1772790399320275200,13.627275146484376,-1.428393219217658,-2.33504336874485,7.527042687273025
1772790399340308200,13.64730810546875,0.6121931559443473,-3.1417431977450847,9.33362975242436
1772790399360341200,13.66734130859375,2.3843480824008583,-2.707784794491529,9.90998879392147
1772790399380375300,13.687375244140625,3.82135072453171,-2.4594085840821265,9.322955798196793
1772790399400408300,13.707408203125,4.678913602545857,-2.342630462872982,8.950713554143904
1772790399420442400,13.7274423828125,4.90311807925105,-2.6927356939196585,8.63244080068767
1772790399440475100,13.74747509765625,4.6537224626660345,-3.1629215948522087,7.997865717065334
1772790399460508400,13.76750830078125,4.141297548680007,-3.2609804025441407,6.8789692396521565
1772790399480542200,13.787542236328125,3.8656937241271137,-2.498189857897162,5.596042475989461
1772790399500575200,13.8075751953125,3.332580826899409,-1.316800391691923,4.346773944039643
1772790399520608300,13.827608154296875,2.518543202356994,-0.14973697248101234,3.459741225913167
1772790399540642300,13.847642333984375,1.5076421124994754,0.7556400883704424,2.789681571933627
1772790399560675300,13.86767529296875,0.5283224480807781,1.2288906375706194,2.3796570019751786
1772790399580708400,13.887708251953125,-0.23778145889788865,2.00889126021564,2.6121809787362813
1772790399600742400,13.907742431640624,-0.6665466774225235,3.1330174549758434,2.8270179076373574
1772790399620775200,13.927775146484375,-1.0998448632016777,4.3194548522204155,2.7885838398247955
1772790399640808400,13.947808349609375,-1.5953919998839496,5.005976396179199,1.9155729250490665
1772790399660842200,13.96784228515625,-2.291111580298841,5.42878913604021,0.9629951370835304
1772790399680875300,13.987875244140625,-2.7440128766924143,5.629294172728061,0.3081254534512758
1772790399700909300,14.007909423828124,-2.697509191931784,5.652551129674912,0.01545534328520298
1772790399720942300,14.0279423828125,-2.4058052964493633,5.699190131253004,-0.34618367368876934
1772790399740975400,14.047975341796874,-2.4871505774885416,5.012268189799785,-0.8781851025432348
1772790399761009200,14.068009033203126,-2.6294185292631385,4.211980273668468,-1.0345593210816382
1772790399781042400,14.08804248046875,-2.67710382502377,3.651491293737292,-0.9955056600660085
1772790399801075200,14.1080751953125,-2.7809078983694313,3.4661624911323186,-1.032028925821185
1772790399821109800,14.12810986328125,-3.041761313036084,3.4964559225872156,-1.1739853274285792
1772790399841142500,14.148142578125,-3.2656174146950243,3.701651455178857,-1.4241992746591567
1772790399861175800,14.16817578125,-3.229959533597529,3.9516000294715163,-1.8620190295159815
1772790399881209600,14.188209716796875,-2.881783517047763,4.380907976570725,-2.252574928894639
1772790399901242600,14.20824267578125,-2.4529557546809313,4.936605338311195,-2.7299802596867084
1772790399921275600,14.228275634765625,-2.067918910984695,5.4341258208930485,-3.1404876447260377
1772790399941309700,14.248309814453124,-1.4442843235716223,5.760296634122729,-3.810836052519083
1772790399961342700,14.2683427734375,-0.822710175819695,5.833728365558385,-4.510043475049734
1772790399981375700,14.288375732421875,-0.4606128936842084,5.7065673820227385,-4.823720132887363
1772790400001409800,14.308409912109376,-0.3954731897756457,5.475796970930695,-4.881154084724187
1772790400021442600,14.328442626953125,-0.4926899936854839,5.095777078613638,-4.962522454378009
1772790400041476600,14.3484765625,-0.3337956090196967,4.655168569821119,-5.06770599938333
1772790400061510000,14.368510009765625,0.7020632503531873,5.057034383243322,-4.234470630156993
1772790400081542700,14.388542724609374,1.6280710113011299,6.16688421536982,-3.9682425367146728
1772790400101576700,14.40857666015625,1.9007783837601542,7.037258936423063,-4.136849044838548
1772790400121609700,14.428609619140625,1.584430753147602,7.606926955848932,-4.322444681686163
1772790400141642800,14.448642822265626,1.0692365205787122,8.039515239793062,-4.278227354297042
1772790400161676500,14.468676513671875,0.4725764493308961,7.95977184099257,-4.446142373025417
1772790400181709800,14.488709716796874,0.10400266465768218,7.604646151435375,-3.6654333098500964
1772790400201742600,14.50874267578125,0.297342632021755,7.076038456672429,-1.8467133238345383
1772790400221776600,14.528776611328125,0.7953365773342549,5.957429564028978,-0.09926058469712734
1772790400241810000,14.548809814453126,1.2736160606123506,5.025991010203957,1.5076006114453075
1772790400261842700,14.5688427734375,1.4843934849895537,4.252285688310861,2.6054630686581133
1772790400281876700,14.588876708984374,1.2712773885317146,3.5474551652014252,3.6753853795439
1772790400301909800,14.60890966796875,0.7313914900377393,2.6019699658453463,4.88256628960967
1772790400321943800,14.62894384765625,-0.1022010220631957,1.4143313761174678,6.198753517839312
1772790400341976600,14.6489765625,-0.9342179554104805,0.6603302871257066,7.866642890918254
1772790400362009900,14.669009765625,-1.745088055832684,0.13616320515871047,9.696512047457695
1772790400382044000,14.6890439453125,-2.3476085435464977,-1.032316510590911,10.26579194434881
1772790400402076700,14.70907666015625,-2.654347803336382,-2.2840537707418203,9.482478836154938
1772790400422110000,14.72910986328125,-2.666909763267636,-3.101369101780653,8.169934932863711
1772790400442143700,14.749143798828126,-2.3627687032774087,-3.0426404339581725,6.764300073421001
1772790400462176800,14.7691767578125,-2.040370978845656,-2.406839023411274,5.574986828479171
1772790400482209800,14.789209716796876,-1.950837130653858,-1.641872888290882,4.32397905164659
1772790400502243800,14.809243896484375,-2.0778338635385034,-0.9811492179334164,2.776214479856193
1772790400522276600,14.829276611328124,-2.0448864104434845,-0.7271177582412958,1.335847914250195
1772790400542310000,14.849309814453125,-1.7653838248863816,-0.4919873983740806,-0.03499649457931518
1772790400562344000,14.869343994140625,-1.8371005690976976,-0.9995973132938146,-0.9726941087990999
1772790400582376700,14.889376708984376,-1.5364768695786595,-1.3907096775114536,-1.2672253366619348
1772790400602410800,14.90941064453125,-1.4209896649628877,-1.5793401520103216,-0.9940198054224252
1772790400622443800,14.92944384765625,-1.7479229869976638,-1.6904583477616308,-0.4711895250171423
1772790400642476800,14.949476806640625,-2.211117421607673,-1.7344477116137742,-0.001861117696762085
1772790400662510600,14.969510498046875,-2.4389295674160123,-1.6581810490131377,0.5085083250641822
1772790400682543900,14.9895439453125,-2.3293372660577294,-1.5583867958307265,1.1292606350392103
1772790400702576600,15.00957666015625,-1.5144585145160554,-1.654002886545658,1.5911308353081344
1772790400722610700,15.029610595703126,-0.33953882884681225,-1.9335013804495333,2.328931315605342
1772790400742643700,15.049643798828125,0.9650777885764836,-2.643325474062562,3.0691254130408168
1772790400762676700,15.0696767578125,2.612773099410534,-3.098164752781391,4.115059237834811
1772790400782710800,15.089710693359375,4.389566499322653,-2.129542423465848,5.6326528355062
1772790400802743600,15.10974365234375,5.159693962728977,-1.2274953838199376,6.2852282707214355
1772790400822776600,15.129776611328126,5.126237098807096,-0.9362158512294292,6.009618016427755
1772790400842810400,15.149810302734375,4.4324189680993555,-1.1901672314226626,5.843627243760228
1772790400862843400,15.169843505859374,3.538645543541014,-1.7514800949573517,5.922836389553547
1772790400882876400,15.18987646484375,2.493798344939947,-2.1993729155391453,5.805093807226419
1772790400902910500,15.209910400390624,1.5439154951468108,-2.2306226248055694,5.231254055073857
1772790400922943500,15.229943603515625,0.8131910907156765,-1.7946236556351183,4.2481174627155065
1772790400942976500,15.2499765625,0.1349360014513135,-1.2165566411763429,3.1460563847690817
1772790400963010600,15.270010498046876,-0.5701634017273783,-0.7240864277213811,2.2621184177875517
1772790400983043300,15.290043212890625,-1.2775099993109702,-0.5407973142504692,1.6693454171061515
1772790401003077600,15.31007763671875,-1.8144822023153304,-0.4695698148608207,1.2476017677813767
1772790401023110400,15.3301103515625,-2.0787492248177526,-0.4375169725179672,0.8925725243359803
1772790401043143400,15.350143310546875,-2.019041190569103,0.24140637139678,0.8993453794717788
1772790401063177500,15.370177490234376,-1.9922616124540566,1.0421277105093,0.7203384733647108
1772790401083210500,15.39021044921875,-2.200979766213894,1.6104834782928228,0.4525181422948837
1772790401103243500,15.410243408203126,-2.3433646223664284,2.323743391573429,0.590768675121665
1772790401123277300,15.43027734375,-2.421816227790713,3.0802029796332118,1.1633581349521875
1772790401143310600,15.450310546875,-2.531870301441848,3.196189658203721,1.2925865724116563
1772790401163343400,15.47034326171875,-2.744199631436169,2.835948233067989,1.4435247373759745
1772790401183377400,15.49037744140625,-2.7799486979484556,2.4234341843813656,1.6021265688359736
1772790401203410400,15.510410400390626,-2.864725707001984,2.09400992231369,1.8599311173260211
1772790401223443500,15.530443359375,-2.9880519346803425,2.0325328325659036,2.2894372173458337
1772790401243477500,15.5504775390625,-3.1968171424522995,1.9647820693761109,2.500634912961721
1772790401263510500,15.570510498046875,-3.469291144546866,1.9000871866255997,2.3462030606627464
1772790401283543600,15.59054345703125,-3.711999830713868,1.9851123252213,1.9847680418282747
1772790401303577300,15.610577392578126,-3.854648306238651,2.335825459033251,1.5196265648037195
1772790401323610600,15.630610595703125,-3.7896927267253395,2.9849262038752435,0.9340759165912866
1772790401343644400,15.65064453125,-3.5630127998173236,3.639148821775615,0.09951251363158226
1772790401363677400,15.670677490234375,-3.22413828009814,4.481782426205277,-0.7399854231208562
1772790401383710500,15.69071044921875,-2.7761107272207735,4.969534963488578,-1.9834680651456116
1772790401403744500,15.71074462890625,-2.23642225099504,5.321666147404909,-2.9842122103869912
1772790401423777500,15.730777587890625,-1.6292054221585393,5.157537076956033,-3.6322581854790448
1772790401443810600,15.750810546875,-0.9047080755487084,4.765350069244206,-3.7366537949770686
1772790401463844600,15.7708447265625,0.08263941250294446,5.098129194697737,-2.91754047460556
1772790401483877400,15.79087744140625,0.4489268398046493,5.6412967452108855,-2.881971733096242
1772790401503910700,15.81091064453125,0.17830401853471994,5.7735407310992475,-3.7501691101104018
1772790401523944400,15.8309443359375,-0.10629501337856054,5.709228710186481,-4.509059724709392
1772790401543977500,15.8509775390625,-0.06777531310915946,5.880993974602222,-5.128982598122954
1772790401564010500,15.871010498046875,0.36571342680603264,5.738911900788545,-5.87821983371377
1772790401584044500,15.89104443359375,0.9734276837706566,4.794783961260318,-6.478367162555456
1772790401604077600,15.91107763671875,1.7621593098819255,3.602811433981359,-6.5173343143314115
1772790401624110300,15.9311103515625,2.5262992233112453,2.6271841943398115,-6.233476456174254
1772790401644144600,15.95114453125,3.1742578123807905,2.1674530519261954,-5.499998515251279
1772790401664177400,15.971177490234375,3.643033846515417,2.028606014510989,-4.374167854660749
1772790401684210400,15.99121044921875,4.013889604645967,2.2050942157953974,-3.0894729122817512
1772790401704244500,16.011244384765625,3.9912311981141566,2.9326252310127017,-1.5433756891816854
1772790401724277500,16.031277587890624,3.296442761069536,3.36779067196846,-0.12575579291284084
1772790401744311600,16.0513115234375,2.072245542012155,3.5756185988903044,1.2666694563448428
1772790401764344600,16.071344482421875,0.4672904717519879,3.658755147260427,2.613645790591836
1772790401784377600,16.091377685546874,-1.1788906351268291,3.201045866063237,3.636028351667523
1772790401804411400,16.111411376953125,-2.254792897205055,1.9945599525243043,4.2722552941501135
1772790401824444700,16.131444580078124,-2.4368200279161334,0.6048141516089439,4.819839492061734
1772790401844477700,16.151477783203124,-1.9936568662047385,-0.45289925056695934,5.235352138042449
1772790401864511700,16.17151171875,-1.2894006358519197,-1.213693652960658,5.206484355476499
1772790401884544800,16.191544677734374,-0.5433773938715457,-1.5615589961260556,4.9152165133237835
1772790401904577800,16.211577880859377,0.0045353053420782085,-1.847961278069019,4.095164450797438
1772790401924611800,16.23161181640625,0.3622890053153038,-1.9016759171217679,3.2266730592727657
1772790401944644600,16.25164453125,0.47217444440126416,-1.895026980626583,2.520687813170254
1772790401964678000,16.271677978515626,0.2982286210760474,-1.8008242638409138,2.0965309652239084
1772790401984712000,16.2917119140625,-0.16933394561558962,-1.661740787321329,2.037860165068507
1772790402004744700,16.31174462890625,-0.7753522123172879,-1.7660691768020391,2.0501795484155414
1772790402024778000,16.331778076171876,-1.3767653233110904,-1.9157500351816414,1.8722388102352618
1772790402044811800,16.351811767578123,-1.7960554420039057,-2.0292817218154666,1.7426923928678035
1772790402064844800,16.3718447265625,-1.9833073216259478,-1.9512036258786916,1.8871505481630562
1772790402084877800,16.3918779296875,-2.1022993194922805,-1.6813228551477193,2.287299328534305
1772790402104912000,16.411911865234377,-2.130785701525211,-1.6517343570917844,3.1111218495100736
1772790402124944600,16.431944580078124,-1.8889818552434443,-1.7993711424231529,4.007808823427558
1772790402144978000,16.45197802734375,-1.5135466603681444,-2.209649979403615,4.788730652570724
1772790402165012000,16.472011962890626,-1.080757885415852,-3.0482378155738115,5.375304214090108
1772790402185044700,16.492044677734373,-0.6437538308560848,-4.109658255574107,5.798177744227647
1772790402205078800,16.512078857421876,0.07078297049254179,-4.930394793233275,6.27531653303802
1772790402225111800,16.53211181640625,1.0506456557467578,-4.055767090910673,7.442315070319175
1772790402245144800,16.552144775390627,1.3116145134866237,-1.6380623900920153,8.571111594977975
1772790402265178600,16.5721787109375,0.34758623396307226,-0.441609210267663,8.608636146730184
1772790402285212000,16.5922119140625,-0.7665539888337254,-0.3905260887622833,8.509904554343223
1772790402305244700,16.61224462890625,-1.6580205977544187,-0.6125917998731136,8.079908040457964
1772790402325278700,16.63227880859375,-2.2226050303056835,-0.97103406663239,7.380404849851131
1772790402345312000,16.65231201171875,-2.506728261400759,-0.899477481418848,6.771777277433872
1772790402365344800,16.6723447265625,-2.7144465904682873,-0.4022024980306625,6.00750087814331
1772790402385378800,16.69237890625,-2.992092734503746,0.5687602569311857,5.023417360323667
1772790402405411800,16.712411865234376,-3.260878695735335,2.074824744850397,4.201742665031552
1772790402425444900,16.73244482421875,-3.958794324889779,3.6811779914706944,3.3852719681233165
1772790402445478700,16.752478759765626,-4.238252486783265,4.652532960620523,2.4772680658996102
1772790402465511700,16.77251171875,-4.240923751819134,5.57994883480072,1.7431056498438118
1772790402485544700,16.792544677734377,-4.057457820476591,6.294056304821372,1.1230372304797172
1772790402505578800,16.812578857421876,-4.052821100586653,6.563924800592661,0.46318625130355356
1772790402525611800,16.83261181640625,-4.226836774277687,6.325016091230511,-0.1230564708262682
1772790402545644800,16.852644775390626,-4.191948123987019,5.924314645412564,-0.5674567731171846
1772790402565678800,16.872678955078126,-4.003022465933859,5.451310764449834,-0.7122562891960144
1772790402585711600,16.892711669921876,-3.6629192812025546,5.19926317205131,-0.8269739707440137
1772790402605745000,16.912744873046876,-3.4406145006388424,4.842193947210908,-1.0560124434769154
1772790402625778700,16.93277880859375,-3.2920968408197164,4.611607660514116,-1.345350194349885
1772790402645811700,16.952811767578126,-3.236462047359347,4.309818424347043,-1.5808084709972143
1772790402665845800,16.972845703125,-3.167517105948925,4.192092208632826,-1.8163193546146152
1772790402685879800,16.9928798828125,-3.130212626688182,4.004919239465892,-2.0345897650957108
1772790402705912800,17.012912841796876,-2.9807372277528046,3.902886559706926,-2.4047996265381575
1772790402725946600,17.032946533203123,-2.7980975181013346,3.9022313106685873,-2.705259659928083
1772790402745980000,17.05297998046875,-2.5628011540174485,4.087397323927283,-3.1167198156476017
1772790402766012700,17.0730126953125,-2.4366125226452944,4.336631612470746,-3.832394973376393
1772790402786046700,17.093046630859376,-2.0681866220101712,4.69081768309027,-4.162062981072068
1772790402806079700,17.113079833984376,-1.797488981938362,5.214768784219026,-4.282105072513223
1772790402826112500,17.133112548828127,-1.6923247261554002,5.4301183388173575,-4.501400734388828
1772790402846146600,17.153146484375,-1.6508476373851297,5.238545381125808,-4.9098143620193
1772790402866179600,17.1731796875,-1.1763117245495318,5.297827591177821,-4.704714983278513
1772790402886212600,17.193212646484376,-0.5286380899012089,5.928130404308438,-4.323652303910255
1772790402906246400,17.213246337890624,-0.49315761119723317,5.983625497037172,-5.004474759444594
1772790402926279400,17.233279541015627,-0.6795043586730957,6.0398278612524265,-5.37192626208961
1772790402946313700,17.253313720703126,-0.6866939779162406,6.28113544844985,-5.549062113627791
1772790402966346500,17.273346435546873,-0.36060441322922704,6.554950636020302,-5.362501431140303
1772790402986379500,17.293379638671876,-0.12901698666587472,6.237656372207403,-5.219997917044163
1772790403006413600,17.31341357421875,0.19061288048774003,5.6926960930585855,-4.610931953209638
1772790403026446600,17.333446533203126,0.40262466896548865,5.3299634356290095,-3.854899650651216
1772790403046479400,17.353479248046874,0.41150808651447296,5.2625990414083,-3.051483665627241
1772790403066513700,17.373513671875,0.09785495568290352,5.189873412415385,-2.043369868400693
1772790403086546400,17.39354638671875,-0.18215090322121977,5.261773111978173,-0.49085868660509585
1772790403106579500,17.413579345703123,-0.1510533157765865,5.342400892397761,1.7583657628178595
1772790403126613500,17.433613525390626,-0.08886033284440636,4.785993336561322,3.6030168934255835
1772790403146646500,17.453646484375,-0.08232055581212043,3.9933950981497763,5.459401131924986
1772790403166679600,17.473679443359377,-0.3316659035146236,2.30688227314353,6.80063278504014
1772790403186713300,17.49371337890625,-0.4237289779230952,0.9087398152828216,8.263425701987742
1772790403206746600,17.51374658203125,-0.554492369864881,-0.15455401737391947,9.605809447747468
1772790403226779400,17.533779296875,-0.46951370075941085,-1.615647144666314,10.042076712465287
1772790403246813400,17.5538134765625,0.01787087999433279,-2.8137743951827288,9.712939450645447
1772790403266846500,17.573846435546876,0.9270515709124505,-3.3833921457260847,8.752224533453584
1772790403286879500,17.59387939453125,1.7453496293783186,-3.342560953643918,7.528225759577751
1772790403306913500,17.61391357421875,2.0370926878273488,-2.910111785909533,6.251255858492851
1772790403326946600,17.633946533203126,2.075727246648073,-2.4518255816072223,4.822744273592531
1772790403346979600,17.6539794921875,1.889156042766571,-2.267017295745015,3.4194723438888786
1772790403367013400,17.674013427734376,1.5211420839332044,-2.329452416869998,2.581009595403075
1772790403387046700,17.694046630859376,1.009896150598675,-2.196034711027145,2.4930992567598818
1772790403407079400,17.714079345703126,0.3169980573453009,-2.190874551784992,2.6811872949451208
1772790403427113500,17.734113525390626,-0.40209947604760526,-2.198951475256681,2.780013872139156
1772790403447146500,17.754146484375,-0.8078923997856676,-2.0527274793326855,2.9090841964274645
1772790403467179500,17.774179443359376,-1.0916916596233843,-1.9194968204945324,2.9549837778151034
1772790403487213600,17.794213623046875,-1.2040111939884721,-1.9092448910713196,3.2348908525198694
1772790403507246600,17.81424658203125,-0.9024665802322328,-1.8533230973631143,3.7577325311020013
1772790403527280600,17.83428076171875,-0.39050738406181335,-2.063690187373757,4.2300539827585215
1772790403547313400,17.8543134765625,0.4572038158930838,-2.3217449112325905,4.730050207804143
1772790403567346700,17.8743466796875,1.3999964151643216,-2.582234753283858,4.962282800403237
1772790403587380500,17.89438037109375,2.3714754490852354,-2.7721248724550005,5.083239668601751
1772790403607413500,17.91441357421875,3.3882337405383587,-2.526432202041149,5.47073384232223
1772790403627446500,17.934446533203126,4.4004280850768085,-0.7166051320552825,6.460052922707796
1772790403647480600,17.95448046875,3.941883522099256,1.2978916930824518,6.864168560883402
1772790403667513600,17.974513671875,2.448320203834772,1.0804045419335364,5.962219136393069
1772790403687546400,17.99454638671875,1.2220179753221572,0.4357692520678043,5.792970823234319
1772790403707580700,18.01458056640625,0.20899346356987952,-0.22891806122362612,5.507908849984407
1772790403727613400,18.034613525390625,-0.5413651772662997,-0.502042928442359,5.21856642293632
1772790403747646500,18.054646484375,-1.1680161898911,-0.24399814145565032,4.978433724737167
1772790403767680500,18.074680419921876,-1.6615701069295405,0.6864291895002126,4.471339650385081
1772790403787713500,18.094713623046875,-2.023704798465967,1.8470020776480436,3.826878840303421
1772790403807746300,18.114746337890626,-2.611001121301949,2.9932237843602896,3.1620377977550027
1772790403827780400,18.1347802734375,-3.376964158505201,3.5886563596397636,2.655330969154835
1772790403847813000,18.154813232421876,-4.046454488164186,4.075278431588411,2.605530873197317
1772790403867846100,18.17484619140625,-4.783707855972647,4.356276224139332,2.644320914840698
1772790403887880200,18.194880126953127,-5.477654581496119,4.478646466267109,2.568503165051341
1772790403907913200,18.214913330078126,-6.016329496765136,4.857928107437491,2.5359926420688628
1772790403927946000,18.234946044921877,-6.581982435330748,5.039468331414461,2.245987367197871
1772790403947980300,18.254980224609376,-7.047589191779494,5.150527490454912,2.0805138964027163
1772790403968013000,18.275012939453124,-7.442526667243242,5.499329237687587,1.6763059037685393
1772790403988046000,18.295046142578126,-7.913504010814428,5.420408261185885,0.9881798472225666
1772790404008080100,18.315080078125,-8.19192932252884,5.375332271140813,0.3164046214967966
1772790404028113200,18.335113037109377,-8.294257478103042,5.312801288425922,-0.29425591805279255
1772790404048146200,18.355146240234376,-8.104101401472091,5.389879851931333,-0.8182786231130361
1772790404068180000,18.375179931640623,-7.832486354294419,5.730839653491974,-1.317522276225686
1772790404088213200,18.395213134765626,-7.696741666808724,5.862019809541106,-1.8625784169644117
1772790404108246000,18.41524609375,-7.506355288553237,5.911646887019276,-2.2717665360987187
1772790404128280000,18.435280029296877,-7.281343002596497,6.126567987072468,-2.459131520706415
1772790404148313000,18.45531298828125,-7.165366260898113,6.146383279132842,-2.504413846978545
1772790404168347100,18.47534716796875,-6.949450304588675,6.315829745212197,-2.351395953130722
1772790404188380200,18.495380126953126,-6.742054923865199,6.5131625816047185,-2.121774712073803
1772790404208413200,18.5154130859375,-6.482945722517371,6.614904461723565,-1.9199404726088045
1772790404228447200,18.535447265625,-6.036485565087199,6.7396653983801595,-1.6246826840370892
1772790404248480000,18.55547998046875,-5.43869327493906,6.829194862657785,-1.2683996411383152
1772790404268513300,18.57551318359375,-4.865736443100869,6.883283011198043,-0.9182657685190438
1772790404288547000,18.595547119140626,-4.295573918156325,6.937019277560711,-0.5285077415198087
1772790404308580000,18.615580078125,-3.715155079874396,7.117260109376907,-0.07902911305129527
1772790404328613000,18.635613037109376,-3.0898996132612226,7.250501289609074,0.33837855289578433
1772790404348647200,18.655647216796876,-2.536478672020137,7.2294807134121655,0.5511228934317827
1772790404368680200,18.67568017578125,-2.122718130403757,6.965207261168956,0.6643985594779253
1772790404388713200,18.695713134765626,-1.6184712621763349,6.741279847839475,0.8254471995681524
1772790404408747300,18.715747314453125,-1.0512363151162862,6.606618279415368,1.0230126756727695
1772790404428780000,18.735780029296876,-0.46006797315254805,6.415105527478456,1.1835592114597557
1772790404448813300,18.755813232421875,0.1598503702163696,6.407427247935533,1.3181874621361493
1772790404468847000,18.77584716796875,0.6509925499379634,6.477811282238364,1.3041507534772157
1772790404488880000,18.795880126953126,1.0637515132963657,6.660096187102794,1.2340583955973385
1772790404508913200,18.8159130859375,1.3159247779011725,6.931357598537207,0.884195741134882
1772790404528947200,18.835947265625,1.4595827227294444,6.991524774730205,0.4204810820430517
1772790404548980200,18.855980224609375,1.6628490408241747,7.125590715348721,-0.09333528630137443
1772790404569013000,18.876012939453126,1.8568273060917853,7.237068392062187,-0.5889192478626966
1772790404589047300,18.89604736328125,1.9400000948190688,7.342308051168918,-1.0567653076708317
1772790404609080000,18.916080078125,2.018777278935909,7.334711604690551,-1.6074305204629897
1772790404629113000,18.936113037109376,2.0100725789546967,7.1859957919508215,-2.2254665572166443
1772790404649147100,18.956147216796875,1.965893245488405,6.942202233156562,-2.953504937434196
1772790404669180200,18.97618017578125,1.8308897317588329,6.60516165086627,-3.706880003482103
1772790404689213000,18.996212890625,1.619770946598053,6.186888892522454,-4.4071530094176525
1772790404709247200,19.016247314453125,1.5185330704785882,5.74548660300374,-4.859191259241104
1772790404729280300,19.0362802734375,1.7094284211695194,5.250592961794138,-5.16804327340126
1772790404749313000,19.05631298828125,2.1747557761549947,4.704992631176114,-5.4684051071137185
1772790404769347000,19.07634716796875,2.779774510425329,4.446158155116438,-5.825540382927656
1772790404789380000,19.096380126953125,3.2142075454533097,4.076588052882254,-6.013920682057738
1772790404809413000,19.1164130859375,3.6778035466015337,3.9087887694880363,-5.90794803250134
1772790404829447000,19.136447021484376,3.9719308698385953,3.987306718146801,-5.644546686917543
1772790404849480200,19.156480224609375,4.076079811099172,4.181322100554406,-5.22835716458857
1772790404869513000,19.176512939453126,3.8884669892102477,4.408841108635068,-4.746564997014403
1772790404889547000,19.196547119140625,3.3098785812258718,4.596222459855675,-4.132497863891721
1772790404909580000,19.216580078125,2.437570261761546,4.964393508946896,-3.2637405149072407
1772790404929613000,19.236613037109375,1.3342857795000076,5.50294392105341,-2.341183186674118
1772790404949647000,19.256647216796875,-0.009299743264913559,5.786732221105694,-1.6312077018916606
1772790404969680100,19.27668017578125,-1.1739948259092867,5.72435555216968,-0.7489215937703847
1772790404989714200,19.296714111328125,-2.03240949844718,5.646869576907157,0.41934301792383194
1772790405009747000,19.316746826171876,-2.749304553359747,5.5357081265360115,1.5596253977149723
1772790405029780200,19.3367802734375,-3.4331028098344802,5.107141353192925,2.482218966305256
1772790405049814000,19.35681396484375,-3.7866979288235303,4.15280883051455,3.133562229377031
1772790405069847000,19.376846923828126,-3.946076589874923,2.8521266299307344,3.607917524948716
1772790405089880000,19.396880126953125,-3.906754048790037,1.3290811965942382,3.864484640598297
1772790405109914000,19.4169140625,-3.8762075193569063,0.1548024391770363,4.281282065692544
1772790405129947100,19.436947021484375,-3.7802968296095725,-0.6715098527878522,4.960740247136354
1772790405149980200,19.456980224609374,-3.554584286428988,-0.6575234130114317,6.102287532296776
1772790405170014200,19.47701416015625,-3.363730875183642,-0.5218471145868301,6.767594438791274
1772790405190047000,19.497046875,-3.383937504649162,-0.7391326056838036,6.70555445446372
1772790405210080300,19.517080322265624,-3.3101945153072476,-1.1482470750600098,6.09314151828885
1772790405230114300,19.5371142578125,-3.1657755229786035,-1.5616875909417867,5.2862289233207695
1772790405250147000,19.55714697265625,-3.1317282919481393,-2.014723619630933,4.644335917900502
1772790405270180000,19.57718017578125,-3.0706252962097524,-2.323955573019385,4.22904977415204
1772790405290214100,19.597214111328125,-2.9518709064915774,-2.422767829427123,3.861827404087782
1772790405310247200,19.6172470703125,-2.6185052133217455,-2.580241533640027,3.2347976212784646
1772790405330280200,19.6372802734375,-1.9855042471483348,-2.496559041824937,2.8237817021951077
1772790405350314200,19.657314208984374,-1.180877132768929,-2.481608140930533,2.5790023472338914
1772790405370347000,19.677346923828125,-0.26086072119027376,-2.3673481400221585,2.4959479241892693
1772790405390380000,19.697380126953124,0.37348581437319517,-2.269533077958226,2.486575115688145
1772790405410414300,19.717414306640624,0.9983034740909933,-2.344686810880899,2.44164730194211
1772790405430447000,19.737447021484375,1.5132951698251067,-2.3294740441799164,2.8075255639210344
1772790405450480000,19.757480224609374,1.7091006505198776,-2.30835468378365,2.9436019675791263
1772790405470514200,19.77751416015625,1.6166148206546902,-1.9835639267355203,3.5090748734027146
1772790405490547200,19.797547119140624,1.4262059383064507,-2.056554928666353,3.8102921549007296
1772790405510580000,19.817580078125,1.987324156051874,-2.5113825169473887,4.044145626699924
1772790405530614000,19.837614013671875,3.197805861228704,-2.968943914106488,4.194977116419374
1772790405550647000,19.85764697265625,4.598680374401807,-3.0884301252305506,3.919581966181099
1772790405570680000,19.87768017578125,5.6080514782130715,-2.808560459926724,3.0783988528206945
1772790405590714000,19.897714111328124,5.503798492056131,-2.314875609984994,2.4884657517403364
1772790405610747100,19.9177470703125,4.518234964811802,-1.7874229304760694,2.4462308303400873
1772790405630780200,19.9377802734375,2.944059063696861,-1.195424421298504,2.955370731306076
1772790405650814000,19.95781396484375,1.3889175333976744,-0.3128355308383703,3.6761350288674235
1772790405670847200,19.97784716796875,-0.016885814479738474,0.6018944647699594,4.186395458295941
1772790405690880000,19.9978798828125,-1.1880801960155367,1.1672621566534043,4.439418617728352
1772790405710914000,20.0179140625,-1.9447431976929306,1.228272213411331,4.467316970740258
1772790405730947000,20.037947021484374,-2.4230840557694435,0.9991156672567129,4.49531703056097
1772790405750980000,20.05797998046875,-2.7375907346904276,0.6122644676148891,4.4625846815213555
1772790405771014100,20.07801416015625,-3.003539718930423,0.05345920298695564,4.3249391288504
1772790405791047200,20.098047119140624,-3.30382059636116,-0.3908972601622343,4.12808852301687
1772790405811080200,20.118080078125,-3.593629764138162,-0.4393085321098566,4.022667077602446
1772790405831114500,20.138114501953126,-3.804496912625432,0.03846621651649475,3.893737038567662
1772790405851147500,20.1581474609375,-3.9818315016061065,0.8363017710596322,3.589640109980106
1772790405871180500,20.1781806640625,-3.927987683215737,1.9811580346375703,3.1677824788868425
1772790405891214300,20.19821435546875,-3.920443551446497,3.032124885162711,2.558373985224962
1772790405911247600,20.21824755859375,-4.078955951057374,3.6462276741206643,1.7171435255914926
1772790405931280400,20.2382802734375,-4.356573161259293,3.977680811667442,0.906842457228899
1772790405951314400,20.258314453125,-4.732426581546664,3.9232349357306955,0.006038695642352104
1772790405971347500,20.278347412109376,-4.990343942761421,3.8318835167229173,-0.7356085232108831
1772790405991381500,20.298381591796876,-5.0951948948115104,3.949929465910792,-1.2336468921869992
1772790406011414500,20.31841455078125,-5.050648481598496,4.295052524630725,-1.7231512415736914
1772790406031447300,20.338447265625,-4.848816287960112,4.64091734162867,-2.317486669266224
1772790406051481600,20.358481689453125,-4.427694862186908,5.078347804906964,-2.8915754277437924
1772790406071514400,20.378514404296876,-3.9411443941697475,5.349765283685922,-3.4856840609431265
1772790406091547400,20.39854736328125,-3.5323160482585427,5.263892003828287,-4.013116866707802
1772790406111580400,20.418580322265626,-3.0397885516583916,4.932179338562488,-4.364390557011962
1772790406131614500,20.438614501953126,-2.4536650719940662,4.53009111456126,-4.436050018078088
1772790406151647500,20.4586474609375,-1.856298606042564,4.184820756325125,-4.316427613353729
1772790406171680500,20.478680419921876,-1.2949952409885823,3.890480667120218,-4.097877801409363
1772790406191714600,20.498714599609375,-0.625085516873747,3.5730674531027673,-3.8528438871651884
1772790406211747300,20.518747314453126,0.032451340141147374,3.3120810597062107,-3.5501761145979165
1772790406231781400,20.538781494140625,0.6804442698717117,3.0988086036428806,-3.2499306007415054
1772790406251813400,20.5588134765625,1.294064974401146,3.205381557179987,-2.8704057984650135
1772790406271846700,20.5788466796875,1.8103449563801288,3.3695538822486997,-2.7592718206226823
1772790406291879400,20.59887939453125,2.5135621990740296,3.679454820939898,-2.586393626528978
1772790406311913500,20.61891357421875,3.386304818302393,3.757369543008506,-2.6095792718052864
1772790406331946500,20.638946533203125,4.331832103234529,3.596848141662776,-2.5059686752051116
1772790406351979500,20.6589794921875,4.986947870582342,3.374873908227682,-1.9757512071579693
1772790406372013600,20.679013671875,5.226444024443626,2.889567595052719,-1.4132915116757154
1772790406392046300,20.69904638671875,5.2864288298070425,2.6632874811172482,-0.5752624784320592
1772790406412079600,20.71907958984375,5.4999809795945875,2.7952199168384073,0.6042080024093389
1772790406432113400,20.739113525390625,6.079861765477061,3.994803211382031,2.112544526913762
1772790406452146400,20.759146484375,5.946891803401709,5.493500385403633,3.2279718669116497
1772790406472179500,20.779179443359375,5.015234053868055,6.371057711437344,3.735631466192007
1772790406492213500,20.799213623046874,3.536332882684469,5.566497817075252,3.638106911507249
1772790406512246300,20.819246337890625,2.0921312689602374,3.441586560541391,3.1814006698727604
1772790406532279600,20.839279541015625,0.873469764459133,1.1411334436625242,2.9385961221158503
1772790406552313600,20.859313720703124,-0.1725884173668921,-0.6999123559296131,2.901666029125452
1772790406572346400,20.879346435546875,-1.1401249972723424,-2.128535292249918,2.737730435422063
1772790406592380400,20.89938037109375,-1.9563082555413245,-3.11573431174159,2.5292051738858223
1772790406612413400,20.919413330078125,-2.6069953927919265,-3.311757819101214,2.410102409121394
1772790406632446500,20.939446533203125,-2.849885865266621,-2.8329601571679115,2.5713474485665557
1772790406652479500,20.9594794921875,-3.159305450181663,-1.9444938991069793,2.466127078682184
1772790406672515300,20.979515380859375,-3.4715319092109795,-1.3309791391700505,2.179354209861159
1772790406692548600,20.999548583984375,-3.809175718091428,-0.719200409245491,1.9656231963753699
1772790406712582700,21.019582763671874,-4.23827265278846,-0.2474801383525133,1.8259785788416862
1772790406732615400,21.039615478515625,-4.6910529531508685,-0.11868015543818473,1.5119038615971803
1772790406752648700,21.059648681640624,-4.999424490317702,-0.20772329750359056,1.1278238802343605
1772790406772682500,21.0796826171875,-5.259722024667263,-0.41132805377244946,0.8398369594484567
1772790406792715500,21.099715576171874,-5.3321103845298286,-0.5124123467653989,0.8084995718985796
1772790406812748500,21.11974853515625,-5.305171524199843,-0.3048749272227287,0.47728199667334553
1772790406832782300,21.1397822265625,-4.9287365046322344,-0.30207682093679905,-0.29262159484922884
1772790406852815000,21.159815185546876,-4.011718105825781,-0.42681496123969553,-0.7660024924308061
1772790406872848400,21.179848388671875,-2.923400891071558,-0.48728959594666954,-1.0188292525082827
1772790406892882400,21.19988232421875,-1.725408372850716,-0.39116146405637264,-0.5570271490395069
1772790406912915200,21.219915283203125,-0.8210974799260496,-0.5268880313634872,0.21570319034159183
1772790406932948200,21.2399482421875,0.07014817972034215,-1.023408981513977,0.3109370037406683
1772790406952982300,21.259982177734376,1.3619637677595018,-1.1134855582803487,0.4483738820970058
1772790406973015300,21.280015380859375,2.6722134226337073,-0.8401298049151897,-0.22931436706483363
1772790406993048000,21.300048095703126,3.3423885196864602,-0.35011750600636005,-0.6234247440546751
1772790407013082400,21.320082275390625,4.346219525027275,0.21121055509746073,-1.3003805872887373
1772790407033115100,21.340115234375,5.856776063668727,0.0861474206238985,-1.6268793172985314
1772790407053148200,21.360148193359375,6.74635992758274,-0.656614481472969,-0.7872820118248463
1772790407073182500,21.380182373046875,7.043043365043402,-1.504934607106447,0.37089550561904905
1772790407093215200,21.40021533203125,6.568964548325538,-1.3928238931864498,1.1752514018416405
1772790407113248300,21.420248291015625,5.254046317118406,-0.30673312231004235,1.8706804748773573
1772790407133282300,21.4402822265625,3.1529648489832875,0.45693478969335555,2.5006758294939995
1772790407153315300,21.4603154296875,1.051658047659695,0.6969979297876358,2.8590041144847866
1772790407173348000,21.48034814453125,-0.5909963463976979,0.18069851245582103,3.3765032629951834
1772790407193382100,21.500382080078126,-1.8686498458325862,-0.4569628467440605,4.364466837118566
1772790407213415200,21.520415283203125,-2.732632527761161,-0.7612538365989923,5.170540350914001
1772790407233448200,21.5404482421875,-2.9877172958984968,-0.3871364463239908,5.391655629432201
1772790407253482200,21.560482177734375,-2.750705360068381,0.06290098507106304,4.954876908060908
1772790407273515300,21.580515380859374,-2.3819059499457476,0.16248013419806956,3.962731372077763
1772790407293548300,21.60054833984375,-1.7655965908542275,-0.1783253535836935,2.9271073443740603
1772790407313582000,21.62058203125,-1.0785282266676426,-0.6539683508783578,2.033478004461527
1772790407333615400,21.640615478515624,-0.6647355363473296,-1.195629003959894,1.3476643165111541
1772790407353648000,21.660648193359375,-0.43507951623797414,-1.5305436801373957,0.8729927945971488
1772790407373682200,21.68068212890625,-0.382893109665811,-1.5331085621893406,0.6151262867867946
1772790407393715200,21.700715087890625,-0.4183046147868037,-1.236323417919874,0.24388182159960267
1772790407413748200,21.720748291015624,-0.4998594469234347,-0.6505465597361326,-0.004811199674010277
1772790407433782300,21.7407822265625,-0.6021835108444095,0.1341267308950424,-0.13302549165487287
1772790407453815300,21.760815185546875,-0.8552432028949261,0.9806921218156814,-0.1782341681689024
1772790407473848300,21.780848388671874,-1.1225669826194644,1.5244143836021422,-0.39600072078108783
1772790407493882000,21.800882080078125,-1.388493170505762,1.6929957572847605,-0.38898645810484883
1772790407513915400,21.820915283203124,-1.5414847608685494,1.7836463345468043,-0.23736790966093538
1772790407533948200,21.8409482421875,-1.5467831595376134,1.8624474840611218,-0.31430560339093205
1772790407553982200,21.860982177734375,-1.2974001101732253,1.952818075338006,-0.5486275694847107
1772790407574015200,21.88101513671875,-1.005072529834509,2.0039216551095245,-0.6545645632058381
1772790407594048300,21.90104833984375,-0.6585961568094789,2.0227830074459314,-0.7595008554518222
1772790407614082300,21.921082275390624,-0.26744331445097924,1.8369243357479572,-0.8499638011872768
1772790407634115300,21.941115234375,0.16041954840645192,1.751772355902195,-0.9616039749860763
1772790407654148400,21.9611484375,0.6009760347507894,1.7398948711037634,-1.3763941519111393
1772790407674182100,21.98118212890625,1.0609224273502826,1.8251123174011705,-2.133606019642949
1772790407694215400,22.00121533203125,1.3963891844525933,1.945279496526718,-2.694469385844469
1772790407714248200,22.021248291015624,1.470243086823076,2.101253317570686,-3.0768086610198018
1772790407734282200,22.0412822265625,1.3594237278878687,2.175592811501026,-3.459684527289867
1772790407754315300,22.061315185546874,1.326428490128368,2.2724621171474455,-3.775264388400316
1772790407774348300,22.081348388671874,1.2841373084962366,2.351592352485657,-3.9967911703288554
1772790407794382300,22.10138232421875,1.282618720626831,2.3464058897584676,-4.149257275512814
1772790407814415000,22.1214150390625,1.4360124620497225,2.3472248049259186,-4.167102144283056
1772790407834448100,22.1414482421875,1.6345815622389315,2.4762322931110856,-4.158951571053266
1772790407854482200,22.161482177734374,1.8994073876678943,2.4378245287835596,-4.01328813162148
1772790407874515000,22.181514892578125,2.1076012252926826,2.3640175342947245,-3.5506478237628936
1772790407894548200,22.20154833984375,2.16653973647356,2.3150258321106434,-2.9218910710304975
1772790407914582000,22.22158203125,2.0664578985214233,2.289460598221421,-2.0551625975251198
1772790407934615000,22.241614990234375,1.9786942748725413,2.9979660104513166,-0.6475508850514888
1772790407954648000,22.26164794921875,1.2813444629073143,3.6402591211050748,0.13380290576815604
1772790407974682000,22.28168212890625,0.21156287566646934,3.47788186275959,0.17347849807441235
1772790407994715100,22.301715087890624,-0.7676993594765663,3.024584552785754,0.18474924915134905
1772790408014748200,22.321748046875,-1.338501643629372,2.4957448028326032,0.39362230121195313
1772790408034782200,22.3417822265625,-1.5190709767475723,2.1924147669643164,0.9051584496647119
1772790408054815000,22.36181494140625,-1.561888374210894,2.0728671810418366,1.37917179993093
1772790408074848300,22.38184814453125,-1.779359451007843,1.9506541753023863,1.6582786641687153
1772790408094882000,22.401882080078124,-2.0056015710204838,1.6526684230715036,1.7493325615346431
1772790408114915000,22.4219150390625,-2.1953324079766867,1.0640601408541202,1.9231109193384646
1772790408134948000,22.441947998046874,-2.3494603088930246,0.02119534824192524,2.154255424439907
1772790408154982100,22.461982177734374,-2.3759081708356735,-1.1570862150758505,2.7415052777856586
1772790408175015200,22.48201513671875,-2.465985916645825,-2.3019968391895294,3.2265754441171883
1772790408195048200,22.502048095703124,-2.485750647562742,-3.1568963432133197,3.6997099657222625
1772790408215082200,22.522082275390623,-2.3830218022331593,-3.5950405077189207,4.2980408927917475
1772790408235115000,22.542114990234374,-2.203431543280184,-3.528175879713893,4.658761918137968
1772790408255148300,22.562148193359373,-1.9726798368886111,-3.2192157290041443,4.569549556985497
1772790408275182000,22.58218212890625,-1.731771478141844,-2.7701462658584117,4.352107414022088
1772790408295215000,22.602215087890624,-1.5808698457956314,-2.158977776786685,4.002274277915061
1772790408315248000,22.622248046875,-1.6614122860193252,-1.5714134506642818,3.4078388969793916
1772790408335282200,22.6422822265625,-1.770358982950449,-1.186046936622262,2.6365444356203076
1772790408355315200,22.662315185546873,-1.8354522173687815,-0.9170201523721218,1.9761673867434262
1772790408375348000,22.682347900390624,-1.8263553031995892,-0.7717337295591831,1.3732541003197432
1772790408395382300,22.70238232421875,-1.6601298449933528,-0.6772375827848911,0.8320879527568816
1772790408415415000,22.7224150390625,-1.348065590788424,-0.486852373573184,0.3774555947870016
1772790408435448000,22.742447998046874,-0.9227353151485324,-0.4095037609547376,-0.08311199845075606
1772790408455481000,22.762481201171877,-0.32975700115337964,-0.4022112658590078,-0.41841655072867867
1772790408475515100,22.78251513671875,0.33921339628472924,-0.40240824973583217,-0.7228162616550922
1772790408495548000,22.8025478515625,0.9700913789547979,-0.4961000943899154,-0.9014297845304011
1772790408515581200,22.822581298828126,1.4527882402837275,-0.562217118898034,-0.8631839327663182
1772790408535615200,22.842615234375,1.8561387393057345,-0.6064356153309345,-0.7544272054493427
1772790408555648000,22.86264794921875,2.522778940230608,-0.4199006518065929,-0.8898901533842086
1772790408575681300,22.882681396484376,3.1882045046687124,-0.3081745532900095,-0.8250023784101009
1772790408595715000,22.902715087890623,3.7465970968425273,-0.23400573975145816,-0.5825888757973909
1772790408615748000,22.922748046875,4.106604713222384,-0.13888357003331184,-0.14239888467788694
1772790408635781000,22.942781005859374,4.168521363431215,-0.20015607711970804,0.2476549103975296
1772790408655815200,22.962815185546877,3.959532576036453,-0.3895663038194179,0.47099955540299415
1772790408675848000,22.982847900390624,3.5013650296777485,-0.6253636031627655,0.7225842064648866
1772790408695881200,23.002881103515627,2.7639456576526165,-0.7684715128928422,1.0313713386952876
1772790408715915300,23.022915283203126,1.9217676880359649,-0.9277812003612518,1.2494710687845945
1772790408735948000,23.042947998046873,1.4741595296144485,-0.3422720532029867,2.1566379356622694
1772790408755981300,23.062981201171876,0.9628173693638294,1.0142588758528233,3.0439386570751665
1772790408776015000,23.08301513671875,0.08182268929257988,1.8049930739581583,3.450048683938384
1772790408796048100,23.103048095703127,-0.677016779641062,1.8862445392340421,3.550475389805436
1772790408816081200,23.1230810546875,-1.2939784651614725,1.2845692701727152,3.5066572908669706
1772790408836115000,23.143114990234373,-1.7102055430218577,0.3939852893054485,3.412453112776577
1772790408856147700,23.163147705078124,-1.9466816184096036,-0.48477848990857597,3.344849064581096
1772790408876181000,23.183180908203123,-2.053495979487151,-1.1447773531228302,3.262061183518171
1772790408896215000,23.203215087890626,-2.079595320253074,-1.6565660150319337,2.883517793494463
1772790408916247800,23.223247802734374,-1.8320958926782012,-2.027647398611903,2.3773820427805186
1772790408936281000,23.243281005859377,-1.428231452784687,-2.273794827055931,1.7346709989756344
1772790408956315000,23.26331494140625,-1.0491419731855391,-2.469755206051469,1.117869472452998
1772790408976348000,23.283347900390623,-0.6780652657806873,-2.3955378771960736,0.722661947876215
1772790408996381000,23.303380859375,-0.7329764211416244,-1.9702841739237307,0.5384685790419578
1772790409016415000,23.3234150390625,-1.219731325689703,-1.3582856637686491,0.4537152431249618
1772790409036447700,23.34344775390625,-1.9126093990683555,-0.48803076970279213,0.5530512311458587
1772790409056480800,23.363480712890624,-2.5893524763345717,0.2285837147027254,0.9194961870968341
1772790409076515000,23.38351513671875,-3.1553841850847,0.6519272004395723,1.3630278898596764
1772790409096547800,23.4035478515625,-3.4664708264291284,0.8259656704843044,1.9091601353973149
1772790409116580900,23.423580810546873,-3.7060777471885085,0.7799702275067567,2.3761130457580086
1772790409136615000,23.443614990234376,-3.7541137560829516,0.3235287742882967,2.6378730538755653
1772790409156648000,23.46364794921875,-3.532095975767076,-0.13109364680945873,2.7932652756392953
1772790409176680700,23.4836806640625,-3.064089172439277,-0.41894905017018313,2.804937008732557
1772790409196714800,23.50371484375,-2.3408722210288047,-0.31709377280473705,2.539787942698598
1772790409216747800,23.523747802734373,-1.4934920065939425,-0.08404255729913711,1.9320237091124057
1772790409236780800,23.54378076171875,-0.5811477370783686,0.4447030846297741,1.2973217842400073
1772790409256813800,23.563813720703124,0.19083572945818303,1.1449778441309928,0.693247052821517
1772790409276847900,23.583847900390627,0.9056322046563029,1.7443302232027054,-0.12017068625688553
1772790409296881000,23.603880859375,1.3986207428969442,2.5124375789582727,-0.5070815071314573
1772790409316914000,23.623913818359377,1.5059645346760748,3.3789345817953347,-0.965304583069682
1772790409336948000,23.643947998046876,1.5660335111916064,3.9425007772147653,-1.5184744721591472
1772790409356980700,23.663980712890623,1.754379323530197,4.264333853501081,-2.1649422381490466
1772790409377014000,23.684013916015626,2.0410171677947044,4.320809773960709,-2.7798908302813765
1772790409397047800,23.7040478515625,2.313299154448509,4.380438020971417,-3.2394413554310795
1772790409417080800,23.724080810546877,2.4003216043412685,4.128067187967896,-3.7467894045442343
1772790409437113900,23.74411376953125,2.345585805547237,3.593524842458963,-4.212331863585114
1772790409457148000,23.76414794921875,2.441151042857766,3.2131071829959748,-4.246621671199798
1772790409477181000,23.784180908203126,2.906567245170474,3.89056103888005,-3.7672780658215284
1772790409497214000,23.8042138671875,3.050468935626745,4.700929911781847,-3.778731772249937
1772790409517248000,23.824248046875,2.8339573515117165,5.524428607630729,-4.022639897334575
1772790409537280800,23.84428076171875,2.5101637888073918,6.199459620282053,-4.080033517161011
1772790409557313800,23.864313720703127,2.5010358949780462,6.205334649795294,-3.93948873591721
1772790409577347800,23.884347900390626,2.45330383746624,5.394257920885086,-3.6803783655256033
1772790409597380900,23.904380859375,2.1416297516226765,4.214674042797088,-3.1962615543961523
1772790409617413600,23.92441357421875,1.5648516079306602,2.979714314445853,-2.685248553034663
1772790409637448000,23.944447998046876,0.8832359561920166,1.7111843249261378,-2.290225737375021
1772790409657481000,23.96448095703125,0.2987593669518828,0.69104048268795,-1.7254080805897711
1772790409677513700,23.984513671875,-0.13876666565537452,0.1781768850237131,-0.8650216695874929
1772790409697548000,24.004548095703125,-0.5121734234429896,0.2502040103584528,0.3137590754240751
1772790409717580800,24.024580810546876,-1.1314112372018397,0.20127134488523005,1.2771195386886596
1772790409737613800,24.04461376953125,-1.9265062608651815,-0.04938508541584015,2.2430267638266086
1772790409757646800,24.064646728515626,-2.6894737695142625,-0.1692354536771774,3.26101898098886
1772790409777681000,24.084680908203126,-3.3719054138109086,-0.22345161251127718,3.8403964935243127
1772790409797713700,24.104713623046877,-3.712510995106399,-0.34792087274491784,3.713399760639667
1772790409817747000,24.124746826171876,-3.86997125531584,-0.3685807989358902,3.1188913144677874
1772790409837781200,24.14478125,-3.983787019588053,-0.24051380647122858,2.4243419468760488
1772790409857814000,24.16481396484375,-4.018519018012285,0.08752923037111758,1.6236311291575432
1772790409877847300,24.184847412109374,-4.115649604943394,0.46351767521500586,0.845754074537754
1772790409897881000,24.204881103515625,-4.1319945905447,0.5952507889717817,-0.3618412615478039
1772790409917914000,24.2249140625,-3.784263687413931,0.44398295366168017,-1.3880273065596818
1772790409937947100,24.244947021484375,-3.2412682785972953,0.3473883733034134,-1.9551731140315531
1772790409957981200,24.264981201171874,-2.722080738608539,-0.012025953358411789,-2.1456196980416773
1772790409978014000,24.285013916015625,-2.171592051427066,-0.11371698007285594,-2.060789205235243
1772790409998047200,24.305047119140625,-1.5967311395332215,-0.17387129678428173,-2.1344939083933827
1772790410018081300,24.325081298828124,-1.074854068199545,-0.09324410088658332,-2.174544763752818
1772790410038114000,24.345114013671875,-0.7360533443689345,0.11176233887374401,-2.0293904428869483
1772790410058147000,24.36514697265625,-0.6215279705226421,0.2696475464969873,-1.7565531604379414
1772790410078181000,24.38518115234375,-0.5986300561465323,0.5386778378784656,-0.9247826030671596
1772790410098214100,24.405214111328124,-0.5078947232104838,0.9842781636089086,0.2797971845895052
1772790410118247000,24.425246826171875,-0.3403445922717452,1.33021575358212,1.6455471928894518
1772790410138281200,24.44528125,-0.16192337709814308,1.5615163260281084,2.81052620704174
1772790410158314000,24.46531396484375,0.1401388307914138,1.2459423101365565,3.806413852162659
1772790410178347000,24.485346923828125,0.738414666672796,0.218231832036376,4.875153383004665
1772790410198380000,24.505380126953124,1.625083227661997,-1.1221136858940124,5.556900552168488
1772790410218414000,24.5254140625,2.6439643564879893,-1.9895897628962993,6.22841157400012
1772790410238447000,24.545447021484375,3.5904876667201515,-1.7026023745417593,7.203346739724278
1772790410258478000,24.56547802734375,3.721322370332479,-1.3166969313174486,7.648094832539558
1772790410278512000,24.58551220703125,3.1456501420557497,-1.4269167169243095,7.753155627948045
1772790410298545200,24.605545166015624,2.2759587270915507,-1.8116823424637316,7.811243659779429
1772790410318578000,24.625577880859375,1.4949791764117777,-2.4468045385748147,7.820673751425742
1772790410338611200,24.645611083984374,0.8604666366316378,-2.9390204850077626,7.634823263034224
1772790410358645200,24.665645263671873,0.4122235413074493,-2.8916835642933845,7.148520340037345
1772790410378678000,24.685677978515624,0.1008906701169908,-2.454592708232999,6.331441740363836
1772790410398711300,24.705711181640623,-0.1985293527007103,-2.0279116025060415,5.303646506589651
1772790410418745000,24.7257451171875,-0.5979810907185077,-1.7263824785798787,4.32964774493277
1772790410438778000,24.745778076171874,-1.019385278955847,-1.5370599301636219,3.7065912496685978
1772790410458811100,24.76581103515625,-1.5490940668284892,-1.3546271412611006,3.385404070070386
1772790410478845200,24.78584521484375,-2.1324442823871967,-1.1752180840939284,3.1180335285946725
1772790410498878000,24.8058779296875,-2.562702954339981,-0.920882088497281,2.9174545498877764
1772790410518911200,24.8259111328125,-2.8169465954780577,-0.4903653501302004,2.7828990721866487
1772790410538945300,24.8459453125,-2.8398095846712588,0.34738077451884747,2.9602979585751887
1772790410558978000,24.86597802734375,-2.824118679064512,1.1824994732737542,2.970745410570502
1772790410579011300,24.88601123046875,-2.7323744613468643,1.9625041875720024,2.8488462930858134
1772790410599045000,24.906045166015623,-2.5408497267112136,2.582852592921257,2.900710920357704
1772790410619078100,24.926078125,-2.3590263018786906,2.937436430686712,2.8404584039688108
1772790410639111200,24.946111083984373,-2.2580083521202203,3.0490467938691377,2.5071669450789686
1772790410659145200,24.966145263671876,-2.3029648074388502,3.054294046872854,2.2531869233131405
1772790410679178000,24.986177978515624,-2.448739890551567,3.05221256442368,2.0176959134399888
1772790410699211000,25.0062109375,-2.6752248794093725,3.2086294530600306,1.760961040008068
1772790410719244000,25.026244140625,-2.8320217072740195,3.573420796585083,1.3665741841644048
1772790410739278000,25.046278076171873,-2.976004938533902,4.024504522162675,0.805628400376439
1772790410759311000,25.06631103515625,-3.059197601005435,4.410827898538113,-0.022837270230054853
1772790410779344100,25.08634423828125,-2.9232816486060615,4.817374563252925,-0.886096021798253
1772790410799378200,25.106378173828126,-2.6009143193125723,5.05754291728735,-1.7312392709612845
1772790410819411000,25.126410888671874,-2.1191405641779304,5.346338816368579,-2.513835755318403
1772790410839444200,25.1464443359375,-1.5416317681238054,5.558475838661193,-3.1834903356283903
1772790410859478300,25.166478271484376,-0.9477779864683746,5.584988582533597,-3.8526013105809684
1772790410879511300,25.18651123046875,-0.4766229482427239,5.552532420086861,-4.402911718586087
1772790410899544300,25.20654443359375,-0.226611245585978,5.320266802000999,-4.954933022162318
1772790410919578400,25.226578369140626,-0.1517956585764885,4.926362176716327,-5.199390013301373
1772790410939611100,25.246611083984376,-0.05973360708132386,4.79298947905898,-5.057440041434765
1772790410959644400,25.26664453125,0.21418314116746187,5.359266102480888,-4.683759873533249
1772790410979678200,25.28667822265625,-0.201287273106724,5.245238156762719,-5.405985768079757
1772790410999711200,25.306711181640626,-0.7586497915804385,4.759305820643902,-5.779048680865764
1772790411019744300,25.326744140625,-0.5680149915218353,5.144311100158095,-5.448450114321709
1772790411039778300,25.3467783203125,-0.12827932004109024,5.41362780726552,-5.23777731936276
1772790411059811300,25.366811279296876,0.3121777975820005,5.811192124101519,-5.49318766619265
