time,seconds_elapsed,z,y,x
1772790385752665300,0.059665283203125,-1.1128023862838745,0.39334383606910706,0.7104456424713135
1772790385772699100,0.07969921875,-1.0103950500488281,0.1573169231414795,0.3346903622150421
1772790385792732200,0.099732177734375,-0.8954634070396423,-0.06731832027435303,-0.17526715993881226
1772790385812766000,0.119765869140625,-0.5908526182174683,-0.15783409774303436,-0.41104933619499207
1772790385832799200,0.13979931640625,-0.2708999514579773,-0.07749825716018677,-0.29592859745025635
1772790385852833000,0.1598330078125,-0.07405558228492737,-0.027754666283726692,-0.27181366086006165
1772790385872866000,0.179865966796875,-0.19221338629722595,-0.28219467401504517,-0.17599686980247498
1772790385892899000,0.199899169921875,-0.37931615114212036,-0.509351372718811,0.002974484581500292
1772790385912933000,0.21993310546875,-0.5448082089424133,-0.6034925580024719,0.31325989961624146
1772790385932966000,0.2399658203125,-0.7496015429496765,-0.6433603167533875,0.8318812251091003
1772790385953000200,0.260000244140625,-0.9453838467597961,-0.5882283449172974,1.1880247592926025
1772790385973033200,0.280033203125,-1.0196713209152222,-0.5953656435012817,1.1460440158843994
1772790385993067000,0.30006689453125,-1.0122379064559937,-0.6133787035942078,0.9848015308380127
1772790386013100000,0.32010009765625,-0.9391278028488159,-0.6161305904388428,0.8613525629043579
1772790386033134300,0.34013427734375,-0.813149631023407,-0.6540539860725403,0.7846668362617493
1772790386053167000,0.3601669921875,-0.658037006855011,-0.6780030131340027,0.7821797132492065
1772790386073199900,0.380199951171875,-0.545059859752655,-0.698455274105072,0.7429311275482178
1772790386093234200,0.400234130859375,-0.4853861331939697,-0.6923385262489319,0.7380104064941406
1772790386113267200,0.42026708984375,-0.424056738615036,-0.6607390642166138,0.8396667242050171
1772790386133301000,0.440301025390625,-0.3827500343322754,-0.5854959487915039,0.9126517176628113
1772790386153334000,0.460333984375,-0.3167193531990051,-0.5117479562759399,0.8036810159683228
1772790386173368300,0.480368408203125,-0.26154905557632446,-0.5069681406021118,0.5752209424972534
1772790386193401000,0.500401123046875,-0.22396598756313324,-0.4663671851158142,0.273465096950531
1772790386213435100,0.52043505859375,-0.19209221005439758,-0.33503177762031555,0.08404456824064255
1772790386233468200,0.54046826171875,-0.138936847448349,-0.2476031333208084,-0.04405560716986656
1772790386253501200,0.560501220703125,-0.13370506465435028,-0.38282087445259094,-0.2449575513601303
1772790386273535000,0.580534912109375,-0.23897849023342133,-0.6063882112503052,-0.37834250926971436
1772790386293568300,0.600568359375,-0.37070590257644653,-0.6902846693992615,-0.4354422688484192
1772790386313602300,0.620602294921875,-0.48585671186447144,-0.55492103099823,-0.4047677218914032
1772790386333635000,0.640635009765625,-0.5493755340576172,-0.32467901706695557,-0.347027987241745
1772790386353669000,0.660669189453125,-0.5491973161697388,-0.08954159915447235,-0.3019489347934723
1772790386373702100,0.6807021484375,-0.4487788677215576,-0.04519810527563095,-0.40750253200531006
1772790386393735200,0.700735107421875,-0.28962594270706177,-0.11077578365802765,-0.5462345480918884
1772790386413769000,0.72076904296875,-0.15360234677791595,-0.20493876934051514,-0.5394192934036255
1772790386433802200,0.74080224609375,-0.054017163813114166,-0.29424095153808594,-0.5295469164848328
1772790386453836300,0.760836181640625,-0.01948528364300728,-0.34457921981811523,-0.5686051249504089
1772790386473869000,0.780869140625,0.03002367913722992,-0.3002365231513977,-0.5544078350067139
1772790386493903000,0.800903076171875,0.08904199302196503,-0.2015533596277237,-0.4637160003185272
1772790386513936100,0.82093603515625,0.07616987079381943,-0.1975863128900528,-0.3671511113643646
1772790386533970200,0.84097021484375,-0.01101589947938919,-0.20023135840892792,-0.3265799880027771
1772790386554003000,0.8610029296875,-0.07450778782367706,-0.12787140905857086,-0.3142887055873871
1772790386574036200,0.8810361328125,-0.13003070652484894,-0.03869865834712982,-0.25037601590156555
1772790386594070300,0.9010703125,-0.17109344899654388,0.06393637508153915,-0.24639911949634552
1772790386614103000,0.92110302734375,-0.21381933987140656,0.18275943398475647,-0.3099016547203064
1772790386634137000,0.94113720703125,-0.33519476652145386,0.4197136461734772,-0.4177221357822418
1772790386654170000,0.961170166015625,-0.5844940543174744,0.7477549314498901,-0.5639312863349915
1772790386674204200,0.9812041015625,-0.8937329053878784,1.1809159517288208,-0.8167403936386108
1772790386694237000,1.00123681640625,-1.0964335203170776,1.8074895143508911,-1.1818933486938477
1772790386714270200,1.021270263671875,-1.3045904636383057,2.4660465717315674,-1.5441410541534424
1772790386734304300,1.04130419921875,-1.5898892879486084,3.106868028640747,-1.9582105875015259
1772790386754337000,1.0613369140625,-2.011073589324951,3.865889549255371,-2.250946044921875
1772790386774371000,1.08137109375,-2.700706958770752,4.959681987762451,-2.3858988285064697
1772790386794404000,1.101404052734375,-3.6084647178649902,6.013242244720459,-2.627465009689331
1772790386814438100,1.121438232421875,-4.49635124206543,6.436682224273682,-3.038651943206787
1772790386834471200,1.14147119140625,-5.374503135681152,6.470277786254883,-3.45156192779541
1772790386854504200,1.161504150390625,-5.772523403167725,6.014204025268555,-3.8794138431549072
1772790386874538200,1.181538330078125,-5.671320915222168,4.686631679534912,-4.057257652282715
1772790386894571000,1.201571044921875,-4.795240879058838,2.25085711479187,-4.185483455657959
1772790386914605000,1.22160498046875,-3.082427501678467,-0.8325438499450684,-4.272359848022461
1772790386934638300,1.241638427734375,-1.4515050649642944,-2.5983972549438477,-3.864293098449707
1772790386954672000,1.261672119140625,-0.5333978533744812,-1.8724651336669922,-2.6916749477386475
1772790386974705200,1.281705078125,-0.21018865704536438,-0.08522754907608032,-0.9283403754234314
1772790386994738200,1.30173828125,0.0657728910446167,1.2325376272201538,1.0110666751861572
1772790387014772200,1.321772216796875,0.37886181473731995,1.6669704914093018,2.49623966217041
1772790387034805000,1.341804931640625,0.712280809879303,1.446823239326477,3.2334461212158203
1772790387054839000,1.361839111328125,0.9348955154418945,0.8267850279808044,3.311248779296875
1772790387074872300,1.381872314453125,0.9588772654533386,0.18425612151622772,3.061835765838623
1772790387094905000,1.401905029296875,0.8718457221984863,-0.27155640721321106,2.8499763011932373
1772790387114939100,1.421939208984375,0.7227427363395691,-0.4422954022884369,2.8527493476867676
1772790387134972200,1.44197216796875,0.6846475601196289,-0.3756963908672333,2.944918632507324
1772790387155006200,1.462006103515625,0.8251980543136597,-0.0923810601234436,3.051236391067505
1772790387175039000,1.4820390625,0.9987937808036804,0.31660565733909607,3.2117257118225098
1772790387195073000,1.502072998046875,1.091539740562439,0.6821452975273132,3.3194797039031982
1772790387215106300,1.522106201171875,1.1921308040618896,0.8197532296180725,3.3895177841186523
1772790387235139000,1.54213916015625,1.3697819709777832,0.8164215683937073,3.6636574268341064
1772790387255173000,1.562173095703125,1.6962690353393555,0.9198353290557861,4.1218719482421875
1772790387275206100,1.5822060546875,2.165847063064575,1.1818437576293945,4.5829176902771
1772790387295240200,1.602240234375,2.309497356414795,1.448608636856079,4.904032230377197
1772790387315273000,1.62227294921875,1.6821627616882324,1.3857393264770508,4.729301929473877
1772790387335306200,1.64230615234375,0.478000670671463,1.0587517023086548,3.600956916809082
1772790387355340300,1.66234033203125,-0.8851319551467896,0.5473954677581787,1.926682472229004
1772790387375373000,1.682373046875,-2.3390746116638184,0.21151331067085266,0.50360506772995
1772790387395407000,1.702406982421875,-3.897050142288208,0.5777238011360168,-0.8311858773231506
1772790387415440100,1.722440185546875,-5.520391941070557,1.7472217082977295,-2.0632011890411377
1772790387435474200,1.74247412109375,-7.016517639160156,3.5152876377105713,-2.7669785022735596
1772790387455507000,1.7625068359375,-8.151809692382812,5.963659286499023,-2.375913619995117
1772790387475540200,1.782540283203125,-8.541757583618164,8.689096450805664,-0.7223933339118958
1772790387495574300,1.80257421875,-7.91772985458374,10.220189094543457,1.9571043252944946
1772790387515607000,1.82260693359375,-6.141349792480469,9.982556343078613,4.66650915145874
1772790387535641000,1.84264111328125,-3.960099220275879,7.878012657165527,6.4389448165893555
1772790387555674000,1.862674072265625,-2.5876522064208984,5.131840229034424,7.137399196624756
1772790387575707100,1.88270703125,-2.096101999282837,2.620037078857422,6.768816947937012
1772790387595741000,1.902740966796875,-1.8199810981750488,0.26714035868644714,5.436856269836426
1772790387615774200,1.922774169921875,-1.3003954887390137,-1.8475674390792847,3.3181660175323486
1772790387635808300,1.942808349609375,-0.6836731433868408,-3.7449951171875,1.0419111251831055
1772790387655841000,1.962841064453125,-0.22945502400398254,-5.34548282623291,-0.5467280745506287
1772790387675874300,1.982874267578125,0.005689577199518681,-6.197063446044922,-1.4720274209976196
1772790387695908000,2.002908203125,0.011381551623344421,-6.339431285858154,-1.9544364213943481
1772790387715941000,2.022941162109375,-0.06112034618854523,-5.978799819946289,-2.095294952392578
1772790387735975200,2.04297509765625,-0.18776990473270416,-5.433069229125977,-2.052311658859253
1772790387756008200,2.06300830078125,-0.26077938079833984,-4.783226013183594,-1.9375351667404175
1772790387776042200,2.083042236328125,-0.2646995782852173,-4.032098770141602,-1.8130781650543213
1772790387796075000,2.103074951171875,-0.2384495884180069,-3.2804596424102783,-1.6648991107940674
1772790387816108000,2.12310791015625,-0.13753628730773926,-2.6757285594940186,-1.465453863143921
1772790387836142000,2.14314208984375,-0.03817348554730415,-2.2562570571899414,-1.2619942426681519
1772790387856174800,2.1631748046875,0.05067622661590576,-2.005434513092041,-1.119846224784851
1772790387876209000,2.183208984375,0.1910085678100586,-1.8782985210418701,-1.0177861452102661
1772790387896242000,2.203241943359375,0.24720978736877441,-1.8988878726959229,-0.9336198568344116
1772790387916275000,2.22327490234375,0.21966923773288727,-1.9687151908874512,-0.8939499258995056
1772790387936308700,2.243308837890625,0.20377123355865479,-1.9036920070648193,-0.8936356902122498
1772790387956342000,2.263342041015625,0.1451428085565567,-1.726117730140686,-0.8228169083595276
1772790387976376000,2.2833759765625,0.03172650560736656,-1.4515548944473267,-0.666704535484314
1772790387996408800,2.303408935546875,0.00449861166998744,-1.1010562181472778,-0.43311095237731934
1772790388016442000,2.323442138671875,0.07105446606874466,-0.6137837767601013,-0.16148236393928528
1772790388036476000,2.343475830078125,0.21774990856647491,-0.06934844702482224,0.10726892948150635
1772790388056509000,2.363509033203125,0.3849431574344635,0.44668614864349365,0.3559272289276123
1772790388076543000,2.38354296875,0.47243812680244446,0.7947050929069519,0.5436882972717285
1772790388096576000,2.403575927734375,0.38553303480148315,1.068010687828064,0.609773576259613
1772790388116609000,2.423609130859375,0.21276073157787323,1.2181857824325562,0.5460585355758667
1772790388136642800,2.443642822265625,0.05390238016843796,1.392119288444519,0.3817441761493683
1772790388156676000,2.463676025390625,0.03410497307777405,1.6156679391860962,0.14130891859531403
1772790388176710000,2.4837099609375,0.12233656644821167,1.9345303773880005,-0.10344570130109787
1772790388196743000,2.503742919921875,0.18720264732837677,2.213226556777954,-0.1901765912771225
1772790388216776000,2.52377587890625,0.22024741768836975,2.380312442779541,-0.044863611459732056
1772790388236810000,2.54381005859375,0.2742171585559845,2.542792320251465,0.296103298664093
1772790388256843000,2.563843017578125,0.4260652959346771,2.7266814708709717,0.6227596998214722
1772790388276876800,2.583876708984375,0.7653006315231323,2.8003640174865723,0.817559540271759
1772790388296910000,2.60391015625,1.218714714050293,2.7653398513793945,0.8670200705528259
1772790388316942800,2.62394287109375,1.7009694576263428,2.658358097076416,0.7790704965591431
1772790388336977000,2.643976806640625,2.1207449436187744,2.560128688812256,0.61149001121521
1772790388357010000,2.664010009765625,2.4554243087768555,2.4441938400268555,0.427983820438385
1772790388377044000,2.6840439453125,2.6896142959594727,2.3080523014068604,0.273615300655365
1772790388397077000,2.704076904296875,2.8436293601989746,2.1865298748016357,0.13290798664093018
1772790388417110000,2.724110107421875,2.9237639904022217,2.0655930042266846,0.017065536230802536
1772790388437144000,2.74414404296875,2.954876661300659,1.909468412399292,-0.0671398863196373
1772790388457176800,2.7641767578125,2.9080281257629395,1.710970163345337,-0.12823067605495453
1772790388477211000,2.7842109375,2.708193778991699,1.4790784120559692,-0.11833250522613525
1772790388497244000,2.804243896484375,2.474088191986084,1.2842551469802856,-0.023999076336622238
1772790388517278000,2.82427783203125,2.325868844985962,1.0329235792160034,0.05950140953063965
1772790388537311000,2.84431103515625,2.288877248764038,0.7350258231163025,0.10148215293884277
1772790388557344000,2.864343994140625,2.2965710163116455,0.38234496116638184,0.14288339018821716
1772790388577378000,2.8843779296875,2.3162081241607666,0.00407596817240119,0.2201523333787918
1772790388597410800,2.904410888671875,2.307342052459717,-0.36802756786346436,0.30525925755500793
1772790388617444000,2.924444091796875,2.270475387573242,-0.6976895928382874,0.3751533627510071
1772790388637478000,2.944477783203125,2.2010607719421387,-1.0356242656707764,0.4111254811286926
1772790388657511000,2.964510986328125,2.109409809112549,-1.2840909957885742,0.4595295190811157
1772790388677545000,2.984544921875,2.084510326385498,-1.5709558725357056,0.5853012800216675
1772790388697578000,3.004577880859375,2.0763485431671143,-1.9284201860427856,0.7953442931175232
1772790388717611000,3.024611083984375,2.024928092956543,-2.1656343936920166,0.9596282839775085
1772790388737644800,3.044644775390625,1.7802834510803223,-2.1688232421875,0.9969103932380676
1772790388757678000,3.064677978515625,1.3665651082992554,-2.1025490760803223,0.9035364985466003
1772790388777711900,3.0847119140625,0.8114007115364075,-1.9622682332992554,0.696666419506073
1772790388797745000,3.104744873046875,0.21347792446613312,-1.8120776414871216,0.393794447183609
1772790388817779500,3.124779541015625,-0.3379972279071808,-1.6615536212921143,0.04313948005437851
1772790388837812500,3.1448125,-0.7709733843803406,-1.4754633903503418,-0.35293862223625183
1772790388857845500,3.164845458984375,-1.038343071937561,-1.2074817419052124,-0.8734207153320312
1772790388877879600,3.184879638671875,-1.1432231664657593,-0.8894814252853394,-1.3641434907913208
1772790388897912600,3.20491259765625,-1.396842360496521,-0.8327134847640991,-1.476556658744812
1772790388917945600,3.224945556640625,-1.9969478845596313,-1.028994083404541,-1.1615073680877686
1772790388937979400,3.2449794921875,-2.9563159942626953,-0.9509522318840027,-0.6568127274513245
1772790388958012700,3.2650126953125,-3.9810800552368164,-0.6966030597686768,-0.3269040882587433
1772790388978046500,3.28504638671875,-4.769845008850098,-0.5880864262580872,-0.36566346883773804
1772790388998079500,3.30507958984375,-5.271405220031738,-0.5466945171356201,-0.792454719543457
1772790389018112500,3.325112548828125,-5.440341472625732,-0.24960903823375702,-1.5239797830581665
1772790389038146600,3.345146484375,-5.160806179046631,0.39703789353370667,-2.43857479095459
1772790389058179600,3.3651796875,-4.567214488983154,1.1612197160720825,-3.209644079208374
1772790389078213400,3.38521337890625,-3.9714934825897217,1.8040164709091187,-3.520026206970215
1772790389098246700,3.40524658203125,-3.483510971069336,2.470473051071167,-3.4307525157928467
1772790389118279400,3.425279541015625,-2.8727989196777344,2.717374563217163,-3.09014630317688
1772790389138313500,3.4453134765625,-2.112239122390747,2.324061632156372,-2.6826577186584473
1772790389158346500,3.465346435546875,-1.2333601713180542,1.5278406143188477,-2.5676136016845703
1772790389178380500,3.485380615234375,-0.352626770734787,0.42810606956481934,-2.8514091968536377
1772790389198413600,3.50541357421875,0.4478430151939392,-0.9868015646934509,-3.277278184890747
1772790389218446600,3.525446533203125,0.9115906953811646,-2.6412384510040283,-3.58244252204895
1772790389238480600,3.545480712890625,0.8769373893737793,-4.260393142700195,-3.6756021976470947
1772790389258513400,3.565513427734375,0.4278751611709595,-5.525818347930908,-3.5594170093536377
1772790389278547500,3.58554736328125,-0.2834157347679138,-6.2745585441589355,-3.319058418273926
1772790389298580500,3.60558056640625,-1.1204177141189575,-6.62743616104126,-3.091883659362793
1772790389318613500,3.625613525390625,-1.8173885345458984,-6.557966709136963,-2.8375213146209717
1772790389338647600,3.6456474609375,-2.216212272644043,-6.028138637542725,-2.550612688064575
1772790389358680600,3.6656806640625,-2.304774045944214,-5.1780219078063965,-2.2417221069335938
1772790389378714600,3.685714599609375,-2.1785390377044678,-4.042420864105225,-1.9140393733978271
1772790389398747400,3.705747314453125,-2.0088462829589844,-2.7124011516571045,-1.6217870712280273
1772790389418780700,3.72578076171875,-2.0047712326049805,-1.3578670024871826,-1.358044147491455
1772790389438814700,3.745814697265625,-2.2735915184020996,0.09550628066062927,-1.0143003463745117
1772790389458847500,3.765847412109375,-2.831284999847412,1.471778392791748,-0.5033427476882935
1772790389478881500,3.785881591796875,-3.4745213985443115,2.654561996459961,0.2729575037956238
1772790389498914600,3.80591455078125,-4.066792964935303,3.791130781173706,1.4019558429718018
1772790389518947600,3.825947509765625,-4.28386116027832,4.816230773925781,2.695810317993164
1772790389538981400,3.8459814453125,-3.4993536472320557,4.996484279632568,3.6724231243133545
1772790389559014700,3.8660146484375,-1.4462964534759521,3.9005565643310547,3.911681890487671
1772790389579048700,3.886048583984375,-0.012879046611487865,2.758042335510254,2.7229247093200684
1772790389599081500,3.90608154296875,0.5039377212524414,1.497489094734192,1.0067094564437866
1772790389619114800,3.92611474609375,0.423048198223114,0.244848370552063,0.08670666813850403
1772790389639148500,3.9461484375,0.48717018961906433,-1.06891930103302,-0.7136472463607788
1772790389659181600,3.966181640625,1.0017898082733154,-1.8789198398590088,-1.831559419631958
1772790389679214600,3.986214599609375,1.3943653106689453,-2.124464273452759,-2.4829769134521484
1772790389699247600,4.00624755859375,1.6163188219070435,-1.642206072807312,-2.4266703128814697
1772790389719280400,4.0262802734375,1.85538649559021,-0.6201418042182922,-1.9324527978897095
1772790389739314400,4.046314453125,2.1847851276397705,0.48395097255706787,-1.3063052892684937
1772790389759347500,4.066347412109375,2.4143972396850586,1.3158005475997925,-0.741412341594696
1772790389779380500,4.08638037109375,2.564793825149536,1.7585179805755615,-0.21575972437858582
1772790389799414500,4.10641455078125,2.7909622192382812,1.9943236112594604,0.24533119797706604
1772790389819446800,4.12644677734375,2.9889261722564697,2.263049364089966,0.7405169606208801
1772790389839480800,4.146480712890625,2.92427134513855,2.6566202640533447,1.3422129154205322
1772790389859513900,4.166513916015625,2.5667054653167725,2.9588611125946045,1.9230555295944214
1772790389879547000,4.186546875,2.094627618789673,2.9261510372161865,2.2371532917022705
1772790389899581000,4.206580810546875,1.7724599838256836,2.462730884552002,2.116269826889038
1772790389919614000,4.226614013671875,1.5491405725479126,1.839250922203064,1.660520076751709
1772790389939647000,4.24664697265625,1.4756444692611694,1.4163721799850464,1.029609203338623
1772790389959680800,4.2666806640625,1.467140793800354,1.320129156112671,0.37156742811203003
1772790389979713800,4.2867138671875,1.5230226516723633,1.3245079517364502,-0.2571130096912384
1772790389999747800,4.306747802734375,1.729651689529419,1.5519579648971558,-0.8586270809173584
1772790390019780900,4.32678076171875,2.0494272708892822,1.676527500152588,-1.2323359251022339
1772790390039813600,4.346813720703125,2.2128591537475586,1.450129508972168,-1.2508960962295532
1772790390059848000,4.366847900390625,2.291487216949463,1.1739107370376587,-1.0953115224838257
1772790390079881000,4.386880859375,2.329998731613159,1.0055172443389893,-1.0150865316390991
1772790390099914800,4.406914794921875,2.3008787631988525,0.853647768497467,-1.156106948852539
1772790390119950800,4.426950927734375,2.2859435081481934,0.1579480916261673,-1.3283336162567139
1772790390139985000,4.44698486328125,2.106417179107666,-0.771313488483429,-1.3887351751327515
1772790390160018000,4.467017822265625,1.843184471130371,-1.2453007698059082,-1.3803269863128662
1772790390180051000,4.487051025390625,1.6157257556915283,-1.675600528717041,-1.3217819929122925
1772790390200085000,4.5070849609375,1.2803820371627808,-2.007439613342285,-1.2100170850753784
1772790390220117800,4.52711767578125,0.9269440770149231,-2.1230661869049072,-0.9561840295791626
1772790390240151800,4.54715185546875,0.7745940089225769,-2.084317922592163,-0.694343090057373
1772790390260184800,4.567184814453125,0.6423512697219849,-1.7849011421203613,-0.5033664703369141
1772790390280217900,4.5872177734375,0.4002020061016083,-1.4826585054397583,-0.26528200507164
1772790390300252000,4.607251953125,0.04165450111031532,-1.245991587638855,0.09626048803329468
1772790390320285000,4.627284912109375,-0.45185959339141846,-1.331895112991333,0.6601774096488953
1772790390340319000,4.647319091796875,-0.9419488906860352,-1.0893646478652954,1.2713783979415894
1772790390360351700,4.667351806640625,-1.2923940420150757,-0.8353715538978577,1.8790905475616455
1772790390380385000,4.687385009765625,-1.7989139556884766,-0.8520283102989197,2.4159011840820312
1772790390400418800,4.707418701171875,-2.6319587230682373,-1.0472068786621094,2.563673734664917
1772790390420451800,4.727451904296875,-3.3925857543945312,-1.218325138092041,1.9978868961334229
1772790390440486000,4.74748583984375,-4.061341762542725,-1.1230446100234985,0.7050583362579346
1772790390460519000,4.767518798828125,-4.41739559173584,-0.6475441455841064,-1.012197494506836
1772790390480552000,4.787552001953125,-4.557179927825928,-0.24421533942222595,-2.258373260498047
1772790390500585700,4.807585693359375,-4.478899002075195,0.2028801441192627,-2.814469814300537
1772790390520619000,4.827618896484375,-4.140925407409668,0.7430267333984375,-2.7993500232696533
1772790390540652800,4.84765283203125,-3.582235813140869,0.8127503991127014,-2.387860059738159
1772790390560685800,4.867685791015625,-2.8497583866119385,0.37498265504837036,-1.8526828289031982
1772790390580718800,4.88771875,-1.9953299760818481,-0.3217894732952118,-1.488226056098938
1772790390600753000,4.9077529296875,-1.1230888366699219,-0.995910108089447,-1.4145523309707642
1772790390620786000,4.927785888671875,-0.4397944211959839,-1.5864671468734741,-1.494800090789795
1772790390640819000,4.94781884765625,0.11041545867919922,-2.2816336154937744,-1.578863263130188
1772790390660853000,4.96785302734375,0.5057228207588196,-3.087364912033081,-1.6330583095550537
1772790390680885800,4.9878857421875,0.5436715483665466,-3.857196807861328,-1.6268657445907593
1772790390700919800,5.007919921875,0.16550187766551971,-4.437689304351807,-1.6162503957748413
1772790390720952800,5.027952880859375,-0.39451295137405396,-4.695087432861328,-1.7217330932617188
1772790390740985900,5.04798583984375,-1.0010974407196045,-4.64279842376709,-1.9762825965881348
1772790390761020000,5.06802001953125,-1.4943931102752686,-4.341311931610107,-2.2446305751800537
1772790390781053000,5.088052978515625,-1.8924204111099243,-3.8712222576141357,-2.4120535850524902
1772790390801087000,5.1080869140625,-2.2394726276397705,-3.243252754211426,-2.4204671382904053
1772790390821120800,5.128120849609375,-2.6349306106567383,-2.3704469203948975,-2.2357537746429443
1772790390841153800,5.14815380859375,-2.940462827682495,-1.2884575128555298,-1.8063480854034424
1772790390861187800,5.168187744140625,-3.1159024238586426,0.2934774160385132,-1.2035064697265625
1772790390881220900,5.188220947265625,-3.226846694946289,2.2549357414245605,-0.36073583364486694
1772790390901254000,5.20825390625,-2.8816874027252197,4.286839008331299,0.842666506767273
1772790390921287700,5.22828759765625,-1.9691740274429321,5.910844326019287,2.202018976211548
1772790390941321000,5.248321044921875,-0.5258874893188477,6.954036712646484,3.0956273078918457
1772790390961355000,5.26835498046875,0.6824275851249695,7.519323348999023,3.314605474472046
1772790390981387800,5.2883876953125,1.5422855615615845,6.970890998840332,3.3611748218536377
1772790391001420800,5.3084208984375,2.245011806488037,4.835625648498535,3.1747918128967285
1772790391021454800,5.328454833984375,2.3760621547698975,2.2013533115386963,2.1206657886505127
1772790391041488000,5.34848779296875,2.7342138290405273,0.6481971740722656,0.11504323035478592
1772790391061521700,5.368521728515625,3.3786075115203857,-0.22567333281040192,-1.4231293201446533
1772790391081555000,5.388554931640625,3.3561198711395264,-0.9186393022537231,-1.3399969339370728
1772790391101587700,5.408587646484375,2.7332494258880615,-0.5471725463867188,-0.6687386631965637
1772790391121621800,5.428621826171875,2.147245407104492,0.2423119693994522,-0.08761826902627945
1772790391141655000,5.448655029296875,2.079420566558838,0.9577922821044922,0.24564865231513977
1772790391161688800,5.468688720703125,2.1184537410736084,1.434585690498352,0.43625375628471375
1772790391181721900,5.488721923828125,2.0783843994140625,1.9076308012008667,0.6467401385307312
1772790391201755000,5.5087548828125,2.0794737339019775,2.5492656230926514,0.8052072525024414
1772790391221789000,5.528788818359375,2.088069200515747,3.0929036140441895,0.9871768355369568
1772790391241821700,5.54882177734375,1.986129879951477,3.346946954727173,1.2466957569122314
1772790391261855000,5.56885498046875,1.8782001733779907,3.1838204860687256,1.4248443841934204
1772790391281889000,5.588888916015625,1.82602858543396,2.622936964035034,1.386683464050293
1772790391301921800,5.608921875,1.587219476699829,1.8581966161727905,1.2181540727615356
1772790391321955800,5.628955810546875,0.9365895390510559,1.1852025985717773,0.8830797076225281
1772790391341988900,5.64898876953125,0.32176071405410767,0.6332778930664062,0.23757846653461456
1772790391362022000,5.66902197265625,0.10847295075654984,0.27296414971351624,-0.6016930341720581
1772790391382055700,5.6890556640625,0.1932661384344101,0.03656813129782677,-1.355145812034607
1772790391402089000,5.7090888671875,0.47023993730545044,-0.11239977926015854,-1.928754210472107
1772790391422123000,5.729123046875,0.8464577794075012,-0.2676234543323517,-2.300132989883423
1772790391442155800,5.74915576171875,1.195564866065979,-0.49765080213546753,-2.4933834075927734
1772790391462189000,5.76918896484375,1.4506288766860962,-0.905575692653656,-2.5287976264953613
1772790391482222800,5.789222900390625,1.617851972579956,-1.370152473449707,-2.3927969932556152
1772790391502255900,5.809255859375,1.6011598110198975,-1.6694262027740479,-2.0250539779663086
1772790391522289000,5.829288818359375,1.2367000579833984,-1.7371160984039307,-1.461458683013916
1772790391542323000,5.849322998046875,0.7385914921760559,-1.8067630529403687,-0.9173409938812256
1772790391562355700,5.869355712890625,0.2806590795516968,-1.7685346603393555,-0.4838481545448303
1772790391582389800,5.8893896484375,-0.055986303836107254,-1.4908013343811035,-0.16966146230697632
1772790391602423000,5.909423095703125,-0.2025400549173355,-0.9180640578269958,-0.13239160180091858
1772790391622455800,5.929455810546875,-0.31318533420562744,-0.3945518434047699,-0.18866658210754395
1772790391642489900,5.94948974609375,-0.45447564125061035,-0.06999373435974121,-0.024208400398492813
1772790391662523000,5.96952294921875,-0.6615193486213684,0.10818266123533249,0.31296002864837646
1772790391682556000,5.989555908203125,-1.0700962543487549,0.10039451718330383,0.6849431991577148
1772790391702589700,6.009589599609375,-1.710266351699829,0.030608508735895157,0.9863743782043457
1772790391722623000,6.029623046875,-2.3642406463623047,-0.2849092185497284,1.2458717823028564
1772790391742657000,6.049656982421875,-2.917137384414673,-0.7866131067276001,1.51348078250885
1772790391762689800,6.069689697265625,-3.53576397895813,-1.3468343019485474,1.5858663320541382
1772790391782723000,6.08972314453125,-3.9815847873687744,-1.8934062719345093,1.1278356313705444
1772790391802756900,6.1097568359375,-4.061756134033203,-2.159364700317383,0.11581049114465714
1772790391822789000,6.1297890625,-3.7576775550842285,-2.0184485912323,-0.9781383275985718
1772790391842823200,6.1498232421875,-3.185015916824341,-1.5369672775268555,-1.6641521453857422
1772790391862856400,6.1698564453125,-2.2894132137298584,-0.9545640349388123,-1.8467680215835571
1772790391882889200,6.18988916015625,-1.3225553035736084,-0.5622156858444214,-1.6298103332519531
1772790391902923300,6.20992333984375,-0.5115810036659241,-0.48149871826171875,-1.2257885932922363
1772790391922956300,6.229956298828125,0.05341795086860657,-0.6635598540306091,-0.900041937828064
1772790391942989300,6.2499892578125,0.43882128596305847,-0.9606360197067261,-0.7449859976768494
1772790391963023000,6.270023193359375,0.6345295310020447,-1.2603639364242554,-0.7449910640716553
1772790391983056400,6.290056396484375,0.7141836285591125,-1.5346089601516724,-0.8275464177131653
1772790392003090400,6.31009033203125,0.6913723349571228,-1.795737862586975,-0.9230825304985046
1772790392023123200,6.330123291015625,0.5210394859313965,-2.0564162731170654,-1.065975546836853
1772790392043156500,6.350156494140625,0.26858726143836975,-2.2551422119140625,-1.2501893043518066
1772790392063190300,6.370190185546875,-0.039250198751688004,-2.3751564025878906,-1.4096436500549316
1772790392083223300,6.390223388671875,-0.3143872320652008,-2.390228033065796,-1.4792193174362183
1772790392103257000,6.410257080078125,-0.5380607843399048,-2.2700271606445312,-1.4927915334701538
1772790392123290400,6.430290283203125,-0.7212543487548828,-1.988460659980774,-1.5062229633331299
1772790392143323100,6.4503232421875,-1.0620806217193604,-1.728811264038086,-1.5302371978759766
1772790392163357200,6.470357177734375,-1.632185697555542,-1.3236280679702759,-1.4667879343032837
1772790392183390500,6.490390380859375,-2.296407461166382,-0.5914158821105957,-1.1951420307159424
1772790392203423200,6.51042333984375,-2.8363304138183594,0.34118714928627014,-0.7522780299186707
1772790392223457300,6.530457275390625,-3.013813018798828,1.325866460800171,-0.30066582560539246
1772790392243490300,6.550490234375,-2.808521032333374,2.3025176525115967,0.1836065798997879
1772790392263524400,6.5705244140625,-2.380225658416748,3.077273368835449,0.6725538969039917
1772790392283557000,6.59055712890625,-1.9050904512405396,3.672189235687256,1.2050385475158691
1772790392303590400,6.61059033203125,-1.343630313873291,3.9352104663848877,1.9343185424804688
1772790392323624400,6.63062451171875,-0.45666661858558655,3.579796075820923,2.581357479095459
1772790392343657200,6.6506572265625,0.7378660440444946,2.5057826042175293,2.8084607124328613
1772790392363690500,6.6706904296875,1.7144410610198975,1.1928751468658447,2.307650327682495
1772790392383724300,6.690724365234375,2.442777633666992,0.007909588515758514,1.0842972993850708
1772790392403757300,6.71075732421875,2.9718539714813232,-0.9852838516235352,-0.5559399127960205
1772790392423791000,6.730791015625,2.7564046382904053,-2.1169159412384033,-1.3806437253952026
1772790392443824400,6.750824462890625,2.1306235790252686,-2.623035192489624,-1.5263612270355225
1772790392463857200,6.770857177734375,1.7310442924499512,-2.4176297187805176,-1.4468096494674683
1772790392483891200,6.79089111328125,1.773550271987915,-1.7377253770828247,-1.2746539115905762
1772790392503924500,6.810924560546875,2.069589376449585,-0.7798518538475037,-0.9714524745941162
1772790392523957200,6.830957275390625,2.360109329223633,0.18201135098934174,-0.5282244086265564
1772790392543991300,6.8509912109375,2.5474090576171875,0.9917854070663452,0.02010074071586132
1772790392564024300,6.8710244140625,2.6366207599639893,1.5845917463302612,0.6512504816055298
1772790392584058400,6.891058349609375,2.7322471141815186,2.0249109268188477,1.3771193027496338
1772790392604091100,6.911091064453125,2.9194812774658203,2.5469706058502197,2.11142635345459
1772790392624124400,6.93112451171875,3.1009650230407715,3.14758038520813,2.6433212757110596
1772790392644158500,6.951158447265625,3.1524658203125,3.590479850769043,2.7967162132263184
1772790392664191200,6.971191162109375,2.9662585258483887,3.6057684421539307,2.5189409255981445
1772790392684225300,6.991225341796875,2.600205898284912,3.187803030014038,1.8790478706359863
1772790392704258300,7.01125830078125,2.1972436904907227,2.3160741329193115,1.0151152610778809
1772790392724291300,7.031291259765625,1.8654577732086182,1.1859275102615356,0.09260690212249756
1772790392744325000,7.0513251953125,1.672029972076416,0.05765184387564659,-0.6806864142417908
1772790392764358400,7.0713583984375,1.5507533550262451,-0.7526002526283264,-1.12568199634552
1772790392784391200,7.09139111328125,1.3903719186782837,-1.1697591543197632,-1.2629170417785645
1772790392804425200,7.11142529296875,1.2440011501312256,-1.252502202987671,-1.196087121963501
1772790392824458500,7.13145849609375,1.1078907251358032,-1.1229737997055054,-1.0765916109085083
1772790392844492800,7.151492919921875,1.017346739768982,-0.9077192544937134,-0.9868162274360657
1772790392864525600,7.171525634765625,0.9730710983276367,-0.6827450394630432,-0.9282176494598389
1772790392884558600,7.19155859375,0.8571516871452332,-0.4862327575683594,-0.8951582312583923
1772790392904592600,7.211592529296875,0.6106897592544556,-0.35330718755722046,-0.8364427089691162
1772790392924625700,7.231625732421875,0.22947020828723907,-0.31121885776519775,-0.7047024965286255
1772790392944658400,7.251658447265625,-0.19035795331001282,-0.220358207821846,-0.4872783124446869
1772790392964692500,7.2716923828125,-0.49411624670028687,-0.11475002020597458,-0.28095364570617676
1772790392984725800,7.291725830078125,-0.8209505677223206,-0.050508979707956314,-0.0865631178021431
1772790393004759600,7.311759521484375,-1.26653254032135,-0.03188256546854973,0.23433314263820648
1772790393024792600,7.33179248046875,-1.7796475887298584,-0.04140309989452362,0.6507149338722229
1772790393044825600,7.35182568359375,-2.2356364727020264,-0.11486399918794632,1.0103963613510132
1772790393064859600,7.371859619140625,-2.5624732971191406,-0.2859073877334595,1.1634505987167358
1772790393084892400,7.391892333984375,-2.7696692943573,-0.5377044677734375,1.1337635517120361
1772790393104925700,7.41192578125,-2.937674045562744,-0.8762726783752441,0.9980084300041199
1772790393124959700,7.431959716796875,-3.051793336868286,-1.171697974205017,0.8132053017616272
1772790393144992500,7.451992431640625,-3.202359199523926,-1.3144452571868896,0.6062646508216858
1772790393165026600,7.472026611328125,-3.3605170249938965,-1.2308776378631592,0.30837035179138184
1772790393185059600,7.4920595703125,-3.3529536724090576,-0.9126719832420349,-0.06083059310913086
1772790393205092600,7.512092529296875,-3.1498799324035645,-0.3491992652416229,-0.3632509112358093
1772790393225126400,7.53212646484375,-2.8088345527648926,0.30128127336502075,-0.49680498242378235
1772790393245159700,7.55215966796875,-2.277029037475586,0.8916518688201904,-0.4243382215499878
1772790393265193700,7.57219384765625,-1.644167423248291,1.1907272338867188,-0.23301833868026733
1772790393285226500,7.5922265625,-0.9713273048400879,0.9156493544578552,-0.08005968481302261
1772790393305259800,7.612259765625,-0.365520715713501,0.2209417074918747,-0.11596707999706268
1772790393325293600,7.63229345703125,0.07965967804193497,-0.5785861015319824,-0.3389953672885895
1772790393345326600,7.65232666015625,0.3191060721874237,-1.3563354015350342,-0.6288423538208008
1772790393365359600,7.672359619140625,0.33857059478759766,-2.065739393234253,-0.8814956545829773
1772790393385393700,7.6923935546875,0.22519449889659882,-2.6336851119995117,-1.063985824584961
1772790393405426400,7.712426513671875,0.06626157462596893,-3.0157523155212402,-1.183667540550232
1772790393425460500,7.73246044921875,-0.08103972673416138,-3.11716365814209,-1.2342829704284668
1772790393445493800,7.75249365234375,-0.19329090416431427,-2.9531636238098145,-1.2204670906066895
1772790393465526500,7.772526611328125,-0.2681629955768585,-2.5489866733551025,-1.1755648851394653
1772790393485560600,7.792560546875,-0.31455740332603455,-1.9430454969406128,-1.1018439531326294
1772790393505593600,7.812593505859375,-0.38645291328430176,-1.2023969888687134,-0.9232393503189087
1772790393525626600,7.832626708984375,-0.4435441493988037,-0.3862534165382385,-0.6128985285758972
1772790393545660400,7.852660400390625,-0.43694376945495605,0.38183605670928955,-0.22672581672668457
1772790393565693700,7.872693603515625,-0.35941728949546814,1.0901862382888794,0.12523381412029266
1772790393585727700,7.892727783203125,-0.19758258759975433,1.7082455158233643,0.3846491277217865
1772790393605760500,7.912760498046875,0.0014207963831722736,2.1333367824554443,0.6230981945991516
1772790393625793800,7.932793701171875,0.15418104827404022,2.3876442909240723,0.9822073578834534
1772790393645827600,7.95282763671875,0.24925243854522705,2.426752805709839,1.4760758876800537
1772790393665860600,7.972860595703125,0.21431629359722137,2.317316770553589,1.9402177333831787
1772790393685893600,7.9928935546875,0.14760464429855347,2.244006633758545,1.939939260482788
1772790393705924600,8.012924560546875,0.21994541585445404,2.1668906211853027,1.299196720123291
1772790393725957600,8.03295751953125,0.2511691153049469,1.9429006576538086,0.5085878372192383
1772790393745990400,8.052990478515625,0.2140401154756546,1.5775269269943237,-0.06142634153366089
1772790393766024700,8.073024658203124,0.24879063665866852,1.0792756080627441,-0.4769742786884308
1772790393786057700,8.0930576171875,0.3655121922492981,0.49304431676864624,-0.8812346458435059
1772790393806090500,8.113090576171874,0.6357514262199402,-0.18794167041778564,-1.2508624792099
1772790393826124800,8.133124755859376,1.0418933629989624,-0.908939003944397,-1.4800509214401245
1772790393846157800,8.15315771484375,1.5628571510314941,-1.5767066478729248,-1.5205168724060059
1772790393866192000,8.17319189453125,2.0265355110168457,-2.0283284187316895,-1.3864328861236572
1772790393886224600,8.193224609375,2.439387798309326,-2.2355592250823975,-1.1558058261871338
1772790393906258000,8.2132578125,2.858379364013672,-2.2023751735687256,-0.9201567769050598
1772790393926292000,8.2332919921875,3.1131751537323,-1.9599014520645142,-0.6861855387687683
1772790393946324700,8.25332470703125,3.126270294189453,-1.534757137298584,-0.4604403078556061
1772790393966358000,8.27335791015625,2.8323159217834473,-1.045957326889038,-0.14514601230621338
1772790393986391800,8.293391845703125,2.3955445289611816,-0.5379611849784851,0.36330682039260864
1772790394006424800,8.3134248046875,2.023404598236084,0.15829110145568848,1.0448219776153564
1772790394026458600,8.333458740234375,1.824832558631897,1.1018091440200806,1.8158297538757324
1772790394046492000,8.353491943359375,1.7954307794570923,2.1550304889678955,2.6575868129730225
1772790394066524700,8.373524658203126,1.8169763088226318,2.9583170413970947,3.504503011703491
1772790394086558700,8.393558837890625,1.7647138833999634,3.311903476715088,4.194648742675781
1772790394106592000,8.413592041015624,1.6186152696609497,3.2724709510803223,4.606683731079102
1772790394126627800,8.4336279296875,1.456695795059204,2.9660117626190186,4.698200702667236
1772790394146660900,8.453660888671875,1.2544854879379272,2.423060417175293,4.486159801483154
1772790394166694000,8.47369384765625,0.9824118614196777,1.766021728515625,4.042250156402588
1772790394186727700,8.493727783203125,0.7153745889663696,1.1511391401290894,3.4642770290374756
1772790394206761000,8.513760986328125,0.4860844314098358,0.6470858454704285,2.84285831451416
1772790394226793700,8.533793701171875,0.3228060007095337,0.29476240277290344,2.207578659057617
1772790394246827800,8.553827880859375,0.245447039604187,0.06528180092573166,1.5750623941421509
1772790394266861000,8.573861083984376,0.22587653994560242,-0.11339393258094788,0.974396824836731
1772790394286894800,8.593894775390625,0.3068230450153351,-0.36949095129966736,0.48192963004112244
1772790394306927900,8.613927978515624,0.4340933859348297,-0.6515836119651794,0.029399700462818146
1772790394326961000,8.6339609375,0.5469738841056824,-0.94249427318573,-0.5330471396446228
1772790394346995000,8.653994873046875,0.7090538740158081,-1.2995126247406006,-1.1175276041030884
1772790394367027700,8.67402783203125,0.8742601275444031,-1.777080774307251,-1.6116172075271606
1772790394387061000,8.69406103515625,1.1005218029022217,-2.0543198585510254,-2.060612201690674
1772790394407095000,8.714094970703124,1.3502641916275024,-1.9288671016693115,-2.4255964756011963
1772790394427127800,8.7341279296875,1.4296934604644775,-1.5664284229278564,-2.304008960723877
1772790394447161900,8.754161865234375,0.9799479246139526,-1.4345942735671997,-1.4085578918457031
1772790394467195000,8.77419482421875,-0.05865106359124184,-1.3999351263046265,-0.19418758153915405
1772790394487228000,8.794227783203125,-1.1355482339859009,-1.1947747468948364,0.7901106476783752
1772790394507261700,8.81426171875,-1.6866453886032104,-0.8386531472206116,1.0745439529418945
1772790394527295000,8.834294921875,-1.754425048828125,-0.5946117043495178,0.6596639156341553
1772790394547329000,8.8543291015625,-1.8795720338821411,-0.38599297404289246,-0.25354358553886414
1772790394567361800,8.87436181640625,-2.1498422622680664,-0.12185852974653244,-1.5639657974243164
1772790394587395000,8.89439501953125,-2.5482358932495117,-0.19335055351257324,-2.6577179431915283
1772790394607428900,8.914428955078124,-3.073729991912842,-0.23558029532432556,-3.2991867065429688
1772790394627462000,8.9344619140625,-3.622764825820923,-0.04322017356753349,-3.73089861869812
1772790394647495000,8.954494873046874,-4.144533157348633,0.29824793338775635,-3.984440326690674
1772790394667529000,8.974529052734376,-4.5567450523376465,0.7145322561264038,-3.9910738468170166
1772790394687561700,8.994561767578125,-4.620038032531738,1.1014765501022339,-3.7020792961120605
1772790394707594800,9.0145947265625,-4.110907077789307,1.3158926963806152,-3.1483335494995117
1772790394727629000,9.034629150390625,-3.212876319885254,1.2142560482025146,-2.380847454071045
1772790394747661800,9.054661865234374,-2.199124813079834,0.898920476436615,-1.4993897676467896
1772790394767696000,9.07469580078125,-1.1643962860107422,0.407728374004364,-0.7025293707847595
1772790394787729000,9.09472900390625,-0.17554092407226562,-0.19406241178512573,-0.18703992664813995
1772790394807761700,9.11476171875,0.6563647985458374,-0.8221484422683716,0.024992167949676514
1772790394827795500,9.13479541015625,1.224910020828247,-1.4736689329147339,0.031916920095682144
1772790394847828700,9.154828857421874,1.498019814491272,-2.1250600814819336,-0.08868912607431412
1772790394867862800,9.17486279296875,1.5538796186447144,-2.705368995666504,-0.287214457988739
1772790394887895600,9.1948955078125,1.4640812873840332,-3.1375691890716553,-0.5431053638458252
1772790394907928800,9.2149287109375,1.325181245803833,-3.34443998336792,-0.7926393151283264
1772790394927962600,9.234962646484375,1.1990810632705688,-3.2515034675598145,-0.935756266117096
1772790394947995600,9.25499560546875,1.0143465995788574,-2.8883488178253174,-0.9013189077377319
1772790394968028700,9.275028564453125,0.6894245147705078,-2.254141092300415,-0.7406914234161377
1772790394988062700,9.295062744140624,0.24826626479625702,-1.4943822622299194,-0.4194593131542206
1772790395008095500,9.315095458984375,-0.2373259961605072,-0.8351055383682251,0.19023998081684113
1772790395028128500,9.33512841796875,-0.9870793223381042,-0.2010287195444107,0.9606291055679321
1772790395048162800,9.355162841796876,-1.9989399909973145,0.4976087212562561,1.814052700996399
1772790395068195600,9.375195556640625,-3.3966012001037598,1.8671501874923706,2.5409069061279297
1772790395088229600,9.395229736328124,-4.897128105163574,3.5982279777526855,3.2106564044952393
1772790395108262700,9.4152626953125,-4.895040035247803,4.946053504943848,4.056077003479004
1772790395128295700,9.435295654296874,-2.503232717514038,4.291142463684082,3.9896419048309326
1772790395148329500,9.45532958984375,-0.2274496704339981,1.9569001197814941,2.668062925338745
1772790395168362500,9.475362548828125,-0.19676712155342102,-0.20862963795661926,0.46010953187942505
1772790395188395500,9.4953955078125,-1.37367582321167,-0.08472021669149399,-2.017730474472046
1772790395208429600,9.5154296875,-1.1395045518875122,1.0385407209396362,-3.866811752319336
1772790395228462600,9.535462646484374,-0.21026934683322906,1.3789243698120117,-4.564651012420654
1772790395248496600,9.55549658203125,0.27154549956321716,0.8821630477905273,-3.98500394821167
1772790395268529700,9.57552978515625,0.20636355876922607,0.41225093603134155,-2.7736568450927734
1772790395288562400,9.5955625,-0.05059313774108887,0.032947830855846405,-1.558758020401001
1772790395308596700,9.6155966796875,-0.06584266573190689,-0.4870452880859375,-0.7241023182868958
1772790395328629500,9.63562939453125,0.055503737181425095,-1.084225058555603,-0.2193395495414734
1772790395348662500,9.65566259765625,0.061941929161548615,-1.7142008543014526,0.11218619346618652
1772790395368696600,9.675696533203125,0.0013675332302227616,-2.199845314025879,0.31321677565574646
1772790395388729600,9.6957294921875,-0.02347469888627529,-2.3210296630859375,0.3154847323894501
1772790395408762600,9.7157626953125,0.1516830027103424,-2.123178482055664,0.15092134475708008
1772790395428796400,9.73579638671875,0.5403332710266113,-1.5486247539520264,-0.09645996242761612
1772790395448829700,9.75582958984375,1.023408055305481,-0.47432389855384827,-0.3281800150871277
1772790395468863500,9.775863525390625,1.4189330339431763,0.8530789613723755,-0.3482346832752228
1772790395488896500,9.795896484375,1.6998940706253052,2.181572914123535,-0.10816828161478043
1772790395508929500,9.815929443359375,1.975763201713562,3.459343910217285,0.2629397511482239
1772790395528963600,9.835963623046876,2.355661153793335,4.497910022735596,0.6907632350921631
1772790395548996600,9.85599658203125,2.8494479656219482,5.100092887878418,1.1919206380844116
1772790395569029600,9.876029541015624,3.390165328979492,5.239299774169922,1.703335165977478
1772790395589063700,9.896063720703125,3.8933393955230713,4.935829162597656,2.046868324279785
1772790395609096400,9.916096435546875,4.244916915893555,4.300390243530273,2.092681884765625
1772790395629130500,9.936130615234376,4.384767532348633,3.3032028675079346,1.8595852851867676
1772790395649163800,9.956163818359375,4.262816905975342,2.012296438217163,1.4055213928222656
1772790395669196500,9.976196533203124,3.9485137462615967,0.563811719417572,0.7637927532196045
1772790395689230600,9.996230712890625,3.564051628112793,-0.8300036787986755,-0.03460591286420822
1772790395709263600,10.016263671875,3.160123109817505,-2.025906562805176,-0.9011138081550598
1772790395729296600,10.036296630859376,2.853476047515869,-2.854708671569824,-1.6196008920669556
1772790395749330400,10.056330322265625,2.5586862564086914,-3.2824907302856445,-2.030755043029785
1772790395769363700,10.07636376953125,2.294931650161743,-3.30543851852417,-2.0253875255584717
1772790395789396500,10.096396484375,2.095885992050171,-3.103830337524414,-1.6271048784255981
1772790395809429800,10.1164296875,1.8516128063201904,-2.775723934173584,-1.032889485359192
1772790395829463000,10.136463134765625,1.7077916860580444,-2.2348363399505615,-0.4729936420917511
1772790395849496800,10.156496826171875,1.5794692039489746,-1.579067587852478,-0.0743408128619194
1772790395869529900,10.17652978515625,1.1119879484176636,-0.8290388584136963,-0.05848115310072899
1772790395889563000,10.19656298828125,0.3902937173843384,-0.34720268845558167,0.04348862171173096
1772790395909597000,10.216596923828124,-0.5196210741996765,-0.23032881319522858,0.951600193977356
1772790395929629700,10.236629638671875,-1.4051735401153564,-0.2508543133735657,2.337307929992676
1772790395949663000,10.2566630859375,-2.1478042602539062,-0.19870537519454956,3.147223711013794
1772790395969697000,10.276697021484376,-2.856762170791626,-0.28985950350761414,2.532097339630127
1772790395989729800,10.296729736328125,-3.2474634647369385,-0.6706936955451965,0.7268797159194946
1772790396009763800,10.316763916015624,-3.1002211570739746,-0.2185073047876358,-2.049818992614746
1772790396029796900,10.336796875,-3.2704553604125977,-0.0006655239267274737,-4.520845890045166
1772790396049830000,10.356829833984374,-3.852501392364502,-0.2832852303981781,-5.558108806610107
1772790396069863700,10.37686376953125,-4.108514308929443,-0.19593195617198944,-5.950564861297607
1772790396089897000,10.39689697265625,-4.200877666473389,0.07779200375080109,-5.895733833312988
1772790396109929700,10.4169296875,-4.2630181312561035,0.3864379823207855,-5.349667549133301
1772790396129963800,10.4369638671875,-4.269166469573975,0.6490264534950256,-4.426172733306885
1772790396149997000,10.4569970703125,-4.122209548950195,0.6644874215126038,-3.3088643550872803
1772790396170029800,10.47702978515625,-3.6863186359405518,0.36392441391944885,-2.3922955989837646
1772790396190063900,10.49706396484375,-2.8959014415740967,-0.3478647768497467,-1.871281623840332
1772790396210097000,10.517096923828126,-1.897583246231079,-1.245903730392456,-1.5282528400421143
1772790396230131000,10.537130859375,-0.9461372494697571,-2.05454158782959,-1.1254351139068604
1772790396250163700,10.557163818359374,-0.24404223263263702,-2.672851085662842,-0.7498564124107361
1772790396270197000,10.577197021484375,0.2108728289604187,-3.0789847373962402,-0.4695056974887848
1772790396290231000,10.59723095703125,0.3854382336139679,-3.2064120769500732,-0.26646843552589417
1772790396310263800,10.617263916015625,0.258410781621933,-3.1550652980804443,-0.18254505097866058
1772790396330297000,10.637297119140625,0.0021920478902757168,-2.824174642562866,-0.23374883830547333
1772790396350331000,10.657330810546876,-0.23835717141628265,-2.279693841934204,-0.37148353457450867
1772790396370364000,10.677364013671875,-0.4341639578342438,-1.6207913160324097,-0.5133258700370789
1772790396390397700,10.697397705078124,-0.5650343894958496,-0.9575992226600647,-0.6506456732749939
1772790396410431000,10.717430908203125,-0.7086040377616882,-0.4043400287628174,-0.7430410981178284
1772790396430463700,10.737463623046875,-0.9317446947097778,0.022246450185775757,-0.7578299045562744
1772790396450497800,10.757497802734376,-1.2926586866378784,0.26499196887016296,-0.7308360934257507
1772790396470531000,10.777531005859375,-1.8238016366958618,0.44309380650520325,-0.6878540515899658
1772790396490563800,10.797563720703126,-2.5033886432647705,0.7549470663070679,-0.5305783748626709
1772790396510598000,10.817597900390625,-3.3169145584106445,1.5608222484588623,-0.16006609797477722
1772790396530631000,10.837630859375,-4.183160305023193,2.9627819061279297,0.5007491111755371
1772790396550664000,10.857663818359375,-4.77304744720459,4.579370498657227,1.5832185745239258
1772790396570697700,10.87769775390625,-4.08416223526001,5.47656774520874,2.7088816165924072
1772790396590731000,10.89773095703125,-2.174508810043335,5.335390090942383,3.1990420818328857
1772790396610765000,10.91776513671875,-0.7824079394340515,4.294216156005859,2.506524085998535
1772790396630797800,10.9377978515625,-0.4068835973739624,3.872265338897705,0.8539156913757324
1772790396650831000,10.9578310546875,0.24461694061756134,2.7415666580200195,-0.3552566170692444
1772790396670865000,10.977864990234375,1.2718056440353394,-0.8093434572219849,-0.4322536885738373
1772790396690898000,10.99789794921875,1.894842267036438,-3.0597121715545654,-0.9174904227256775
1772790396710931000,11.017930908203125,2.744492292404175,-1.635860562324524,-2.2080490589141846
1772790396730965000,11.037965087890624,3.12406325340271,1.0318307876586914,-2.583533525466919
1772790396750997800,11.057997802734375,3.854808807373047,2.2560696601867676,-1.763771653175354
1772790396771030800,11.07803076171875,4.472965240478516,2.579031467437744,-0.8908686637878418
1772790396791065000,11.098065185546876,4.549595355987549,2.5389316082000732,-0.20611774921417236
1772790396811098600,11.1180986328125,4.204211235046387,2.0621371269226074,0.5339121222496033
1772790396831132400,11.13813232421875,3.430173635482788,1.2592275142669678,1.240317463874817
1772790396851165400,11.15816552734375,2.3110921382904053,0.3701910972595215,1.7275763750076294
1772790396871198500,11.178198486328125,0.9573866724967957,-0.28122901916503906,1.9522701501846313
1772790396891232500,11.198232421875,-0.07922931015491486,-0.8370943665504456,1.686049461364746
1772790396911265300,11.218265380859375,-0.31844907999038696,-1.357829213142395,0.8302931785583496
1772790396931298600,11.238298583984376,0.1209099069237709,-1.337578296661377,-0.2488846480846405
1772790396951332600,11.25833251953125,0.9502584934234619,-0.8352298736572266,-1.1908377408981323
1772790396971365400,11.278365478515624,1.9081809520721436,-0.3595757484436035,-1.7026581764221191
1772790396991398700,11.298398681640625,2.729041576385498,-0.014198909513652325,-1.8184969425201416
1772790397011432400,11.318432373046875,3.316269636154175,0.13553252816200256,-1.7948442697525024
1772790397031465500,11.338465576171876,3.668321371078491,0.006851780693978071,-1.7948004007339478
1772790397051499300,11.358499267578125,3.746901512145996,-0.3099975287914276,-1.7821959257125854
1772790397071532500,11.378532470703124,3.6656882762908936,-0.7200774550437927,-1.705572485923767
1772790397091565300,11.3985654296875,3.5580241680145264,-1.2211261987686157,-1.6252795457839966
1772790397111599400,11.418599365234375,3.410860061645508,-1.6683385372161865,-1.5189541578292847
1772790397131632600,11.438632568359376,3.1761183738708496,-2.145517587661743,-1.2884259223937988
1772790397151665400,11.45866552734375,2.886744976043701,-2.6517927646636963,-0.912666916847229
1772790397171699500,11.478699462890624,2.552412509918213,-3.024416446685791,-0.47164449095726013
1772790397191732500,11.498732421875,2.254223346710205,-3.175095558166504,-0.10189121216535568
1772790397211766500,11.5187666015625,1.9353630542755127,-3.107853889465332,0.18176446855068207
1772790397231799300,11.53879931640625,1.4636842012405396,-2.80012583732605,0.4337218701839447
1772790397251832600,11.55883251953125,0.9447502493858337,-2.3152413368225098,0.6460349559783936
1772790397271866600,11.57886669921875,0.476101815700531,-1.7383158206939697,0.7358574867248535
1772790397291899400,11.5988994140625,-0.13977228105068207,-1.146997332572937,0.8119557499885559
1772790397311932700,11.6189326171875,-0.969153881072998,-0.6927918195724487,0.9729645848274231
1772790397331966500,11.638966552734376,-1.8144299983978271,-0.28392520546913147,1.211975336074829
1772790397351999500,11.65899951171875,-2.6286380290985107,0.23345136642456055,1.391838550567627
1772790397372032500,11.679032470703126,-3.3916707038879395,0.647422194480896,1.6041215658187866
1772790397392066600,11.699066650390625,-4.134075164794922,0.65818852186203,1.7573137283325195
1772790397412099300,11.719099365234374,-4.8782196044921875,0.3037495017051697,1.3925762176513672
1772790397432132600,11.739132568359375,-5.68048095703125,-0.025491245090961456,0.2521161437034607
1772790397452166700,11.759166748046875,-6.535158634185791,-0.22832851111888885,-1.5538684129714966
1772790397472199400,11.779199462890626,-7.246138572692871,-0.0886361226439476,-3.4746086597442627
1772790397492233500,11.7992333984375,-7.836090564727783,-0.08658762276172638,-4.193406105041504
1772790397512266500,11.8192666015625,-7.849706172943115,0.5315091609954834,-3.7123265266418457
1772790397532299500,11.839299560546875,-7.224628448486328,1.5131484270095825,-2.3839728832244873
1772790397552333600,11.85933349609375,-5.810952663421631,1.8230602741241455,-0.7405414581298828
1772790397572366600,11.87936669921875,-3.6104578971862793,1.2907752990722656,0.5969478487968445
1772790397592399600,11.899399658203125,-1.2005165815353394,0.446926087141037,1.166114330291748
1772790397612433400,11.919433349609376,0.9290988445281982,-0.5153043270111084,1.1509087085723877
1772790397632466400,11.939466552734375,2.5583229064941406,-1.2535792589187622,0.627927303314209
1772790397652499500,11.95949951171875,3.7205710411071777,-1.7379390001296997,-0.31697583198547363
1772790397672533500,11.979533447265625,4.116079807281494,-2.386284112930298,-1.4180991649627686
1772790397692566300,11.999566162109375,3.4833788871765137,-3.5089192390441895,-2.535419464111328
1772790397712597200,12.01959716796875,2.2895257472991943,-4.757061004638672,-3.5392651557922363
1772790397732631600,12.039631591796875,0.9046608805656433,-5.658840179443359,-4.427552223205566
1772790397752664600,12.05966455078125,-0.5405780076980591,-5.993617534637451,-5.208132266998291
1772790397772698400,12.079698486328125,-1.7515554428100586,-5.765461444854736,-5.782817840576172
1772790397792731600,12.099731689453124,-2.287410020828247,-4.784010410308838,-5.949682712554932
1772790397812764400,12.119764404296875,-2.204472541809082,-2.7118780612945557,-5.239315986633301
1772790397832798500,12.139798583984375,-2.1005496978759766,0.42171794176101685,-3.5087523460388184
1772790397852831500,12.15983154296875,-2.3317017555236816,3.567169189453125,-1.0333341360092163
1772790397872864500,12.179864501953125,-2.8983194828033447,6.074669361114502,1.864266037940979
1772790397892898600,12.199898681640626,-3.4324827194213867,7.3993330001831055,4.464693546295166
1772790397912931300,12.219931396484375,-2.874603748321533,7.4999308586120605,5.953220844268799
1772790397932964600,12.239964599609374,-1.190700650215149,7.284684181213379,6.035099029541016
1772790397952998700,12.25999853515625,0.18393947184085846,6.911785125732422,4.990310192108154
1772790397973031400,12.280031494140625,0.9280815124511719,5.722080230712891,3.7107346057891846
1772790397993064400,12.300064453125,1.6083228588104248,3.4681155681610107,2.427419424057007
1772790398013098500,12.320098388671875,2.1206374168395996,1.1683274507522583,0.7703113555908203
1772790398033131500,12.340131591796874,2.6038568019866943,-0.4202798306941986,-1.152655005455017
1772790398053165300,12.360165283203125,3.143663167953491,-1.4590327739715576,-2.7600622177124023
1772790398073198600,12.380198486328124,3.4435224533081055,-2.3460240364074707,-3.2710988521575928
1772790398093231400,12.4002314453125,3.374856948852539,-2.883953809738159,-2.6367437839508057
1772790398113265400,12.420265380859375,3.014315605163574,-2.9492509365081787,-1.3836565017700195
1772790398133298700,12.440298583984376,2.7124640941619873,-2.618004083633423,-0.16268691420555115
1772790398153331500,12.46033154296875,2.6423158645629883,-1.891778826713562,0.624264121055603
1772790398173365500,12.480365478515624,2.765195846557617,-0.9158381819725037,1.1527374982833862
1772790398193398500,12.5003984375,2.9791758060455322,0.29043716192245483,1.6876451969146729
1772790398213432600,12.5204326171875,3.3338518142700195,1.593933343887329,2.2721877098083496
1772790398233465300,12.54046533203125,3.620651960372925,2.82519268989563,2.748997449874878
1772790398253498600,12.56049853515625,3.8740103244781494,3.6958165168762207,2.943174123764038
1772790398273532700,12.58053271484375,4.00584077835083,4.228456020355225,2.844640016555786
1772790398293565400,12.6005654296875,3.9552338123321533,4.441168785095215,2.4914090633392334
1772790398313598700,12.6205986328125,3.812657117843628,4.219228744506836,1.9899786710739136
1772790398333632500,12.640632568359376,3.6199324131011963,3.57185959815979,1.42629873752594
1772790398353665500,12.66066552734375,3.372950792312622,2.637150764465332,0.8333038687705994
1772790398373698600,12.680698486328126,3.0940654277801514,1.5434192419052124,0.18764473497867584
1772790398393732600,12.700732666015625,2.7894580364227295,0.4361402988433838,-0.5480010509490967
1772790398413765400,12.720765380859374,2.4602973461151123,-0.48865970969200134,-1.3183584213256836
1772790398433799400,12.74079931640625,2.0751092433929443,-1.1134843826293945,-1.9745339155197144
1772790398453832700,12.760832763671875,1.6990642547607422,-1.5431939363479614,-2.468139171600342
1772790398473865500,12.780865478515626,1.4246788024902344,-1.9672880172729492,-2.713663339614868
1772790398493899500,12.8008994140625,1.1879969835281372,-2.364339828491211,-2.6082301139831543
1772790398513932500,12.8209326171875,0.9602397680282593,-2.4896020889282227,-2.216646194458008
1772790398533965600,12.840965576171875,0.687322735786438,-2.3406448364257812,-1.7313257455825806
1772790398553999400,12.860999267578125,0.39463838934898376,-2.0348103046417236,-1.2744868993759155
1772790398574032600,12.88103271484375,0.10755176097154617,-1.6183135509490967,-0.8768686652183533
1772790398594065400,12.9010654296875,-0.1834276169538498,-1.1331568956375122,-0.4918951690196991
1772790398614099500,12.921099365234374,-0.4720191955566406,-0.7231220006942749,-0.2197406142950058
1772790398634132700,12.9411328125,-0.9284083247184753,-0.3606378138065338,-0.12902136147022247
1772790398654166500,12.96116650390625,-1.6308748722076416,-0.03983582928776741,-0.08500809967517853
1772790398674199600,12.981199462890626,-2.595874547958374,0.21917389333248138,-0.06707517057657242
1772790398694232600,13.001232666015625,-3.646289825439453,0.4718916416168213,-0.1513889878988266
1772790398714266600,13.0212666015625,-4.4068217277526855,0.6454693078994751,-0.3433368504047394
1772790398734299400,13.04129931640625,-4.879899024963379,0.7214583158493042,-0.36525946855545044
1772790398754332400,13.06133251953125,-5.233885765075684,0.6106175780296326,-0.2975320816040039
1772790398774366700,13.08136669921875,-5.501857280731201,0.504336416721344,-0.3690235912799835
1772790398794399500,13.1013994140625,-5.907588958740234,0.5580142736434937,-0.6167601346969604
1772790398814432300,13.121432373046876,-6.38186502456665,0.7399497032165527,-0.9319737553596497
1772790398834466300,13.14146630859375,-6.655585765838623,1.0151866674423218,-1.1775959730148315
1772790398854499300,13.161499267578124,-6.584719181060791,1.4666246175765991,-1.1588423252105713
1772790398874532000,13.181531982421875,-6.090600490570068,2.1048176288604736,-0.8185473084449768
1772790398894566400,13.20156640625,-5.144834041595459,2.489957332611084,-0.1979018896818161
1772790398914599200,13.22159912109375,-3.6302826404571533,1.652825951576233,0.5056288242340088
1772790398934633200,13.24163330078125,-1.8075904846191406,-0.1785138100385666,0.9219903349876404
1772790398954666500,13.26166650390625,-0.3074438273906708,-1.4868985414505005,0.8708643317222595
1772790398974699300,13.28169921875,0.8681343197822571,-2.237508773803711,0.3690166473388672
1772790398994733300,13.3017333984375,1.7744368314743042,-2.74912691116333,-0.4327487647533417
1772790399014766300,13.321766357421875,2.0493264198303223,-3.2827465534210205,-1.2233805656433105
1772790399034799400,13.34179931640625,1.599607229232788,-4.000487327575684,-1.7601499557495117
1772790399054833200,13.361833251953126,0.803141176700592,-4.744975566864014,-2.0607221126556396
1772790399074866200,13.3818662109375,-0.00019148127466905862,-5.192348957061768,-2.3213770389556885
1772790399094899200,13.401899169921874,-0.6016552448272705,-5.2446675300598145,-2.603574514389038
1772790399114933200,13.421933349609375,-0.9575105309486389,-4.983091831207275,-2.838919162750244
1772790399134966300,13.44196630859375,-1.0486819744110107,-4.434887886047363,-2.9360852241516113
1772790399154999300,13.461999267578125,-0.9629212617874146,-3.6486430168151855,-2.883347511291504
1772790399175033300,13.482033447265625,-0.8888944387435913,-2.7169742584228516,-2.62329363822937
1772790399195066000,13.502066162109376,-0.9646435379981995,-1.7746593952178955,-2.1692638397216797
1772790399215100400,13.522100341796875,-1.2192140817642212,-0.7996109127998352,-1.6166785955429077
1772790399235133200,13.54213330078125,-1.6871598958969116,0.07484840601682663,-1.03304123878479
1772790399255166200,13.562166259765625,-2.17354154586792,0.846252977848053,-0.4877563416957855
1772790399275200300,13.5822001953125,-2.410083293914795,1.6304113864898682,0.14476624131202698
1772790399295233300,13.6022333984375,-2.2276108264923096,2.227583885192871,0.9442333579063416
1772790399315266300,13.622266357421875,-1.5792337656021118,2.4326133728027344,1.7818012237548828
1772790399335300000,13.642300048828124,-0.6243778467178345,2.4275155067443848,2.4343364238739014
1772790399355333400,13.66233349609375,0.24974697828292847,2.5846896171569824,2.780879259109497
1772790399375366100,13.6823662109375,0.8170738220214844,2.8297669887542725,2.7964727878570557
1772790399395400200,13.702400146484376,1.2062721252441406,2.90561580657959,2.554326295852661
1772790399415433200,13.72243310546875,1.554808259010315,2.6491546630859375,2.102712631225586
1772790399435466200,13.74246630859375,1.9205598831176758,2.0642917156219482,1.4861972332000732
1772790399455500300,13.762500244140625,2.215226411819458,1.3033018112182617,0.7674242258071899
1772790399475533300,13.782533203125,2.4346771240234375,0.5527156591415405,-0.0026730147656053305
1772790399495567400,13.8025673828125,2.6286678314208984,0.11070014536380768,-0.6866210103034973
1772790399515600100,13.82260009765625,2.7743732929229736,0.06439470499753952,-1.074378252029419
1772790399535633400,13.84263330078125,2.7785251140594482,0.21241478621959686,-1.0296475887298584
1772790399555667200,13.862667236328125,2.7936246395111084,0.5066418647766113,-0.6879373788833618
1772790399575700200,13.8827001953125,2.9589662551879883,0.9497993588447571,-0.25120478868484497
1772790399595733200,13.902733154296875,3.2457640171051025,1.3513036966323853,0.18418635427951813
1772790399615767300,13.922767333984375,3.5837881565093994,1.6586552858352661,0.5966939926147461
1772790399635800300,13.94280029296875,3.8106577396392822,2.0573604106903076,0.9886716604232788
1772790399655833300,13.962833251953125,3.856504440307617,2.588724374771118,1.3463603258132935
1772790399675867400,13.982867431640624,3.6322572231292725,2.8344078063964844,1.6209756135940552
1772790399695900200,14.002900146484375,3.2399191856384277,2.608335256576538,1.690843939781189
1772790399715934200,14.022934326171875,2.6856608390808105,2.02612566947937,1.4717743396759033
1772790399735967200,14.04296728515625,2.067157030105591,1.4264791011810303,1.040205717086792
1772790399756000300,14.063000244140625,1.5675275325775146,0.8325228095054626,0.5467397570610046
1772790399776034300,14.083034423828124,1.2951631546020508,0.24499563872814178,0.0681404396891594
1772790399796067300,14.1030673828125,1.2192827463150024,-0.16853468120098114,-0.3868909776210785
1772790399816100900,14.123100830078124,1.2789607048034668,-0.4265159070491791,-0.7444823980331421
1772790399836134700,14.143134765625,1.375542402267456,-0.7052071690559387,-0.9403722882270813
1772790399856167700,14.163167724609375,1.4206515550613403,-1.031390905380249,-1.0190455913543701
1772790399876200700,14.18320068359375,1.3795973062515259,-1.380027174949646,-1.071137547492981
1772790399896234800,14.20323486328125,1.2654768228530884,-1.6932345628738403,-1.1411796808242798
1772790399916267500,14.223267578125,1.1063071489334106,-1.9112708568572998,-1.164042353630066
1772790399936300800,14.24330078125,0.8092928528785706,-1.9496456384658813,-1.0905647277832031
1772790399956334800,14.2633349609375,0.3955790102481842,-1.766395092010498,-0.996204674243927
1772790399976367600,14.28336767578125,0.04562048241496086,-1.4742060899734497,-0.8803427815437317
1772790399996401700,14.303401611328125,-0.1581246554851532,-1.1471699476242065,-0.6502310037612915
1772790400016434700,14.3234345703125,-0.31545594334602356,-0.8351433277130127,-0.27306535840034485
1772790400036467700,14.3434677734375,-0.4145713448524475,-0.6489138007164001,0.17259414494037628
1772790400056501500,14.36350146484375,-0.4195954203605652,-0.4927423298358917,0.4005466103553772
1772790400076534800,14.38353466796875,-0.47130998969078064,-0.47491753101348877,0.14142104983329773
1772790400096567600,14.403567626953125,-0.6870646476745605,-0.47233691811561584,-0.47204768657684326
1772790400116601600,14.4236015625,-1.1213582754135132,-0.5506106615066528,-1.1174261569976807
1772790400136635000,14.443634765625,-1.8789921998977661,-0.6826302409172058,-1.5456819534301758
1772790400156667600,14.463667724609374,-2.886118173599243,-0.7811458706855774,-1.7283422946929932
1772790400176701700,14.48370166015625,-3.7733500003814697,-0.7071030735969543,-1.6701029539108276
1772790400196734700,14.503734619140625,-4.339962005615234,-0.618955671787262,-1.3680684566497803
1772790400216767700,14.523767822265626,-4.563035488128662,-0.4727097451686859,-1.0256330966949463
1772790400236801500,14.543801513671875,-4.60666036605835,-0.18213997781276703,-0.7880783677101135
1772790400256834800,14.563834716796874,-4.66594934463501,0.20481066405773163,-0.7795650362968445
1772790400276867600,14.58386767578125,-4.752435207366943,0.5552797317504883,-0.9052199125289917
1772790400296901600,14.603901611328125,-4.750723361968994,0.9668254852294922,-0.9821916222572327
1772790400316935000,14.623934814453126,-4.586815357208252,1.5814859867095947,-0.9483751058578491
1772790400336968700,14.64396875,-4.1175856590271,2.18768048286438,-0.7715291976928711
1772790400357001700,14.664001708984374,-3.3397939205169678,2.3457531929016113,-0.4547525942325592
1772790400377034800,14.68403466796875,-2.376094102859497,1.5459423065185547,-0.12564128637313843
1772790400397068800,14.70406884765625,-1.437408447265625,0.25547730922698975,0.0007539408979937434
1772790400417101600,14.7241015625,-0.653622567653656,-0.9076740145683289,-0.18867138028144836
1772790400437134800,14.744134765625,0.08131402730941772,-1.884750485420227,-0.6783832907676697
1772790400457169000,14.7641689453125,0.7000705003738403,-2.7078604698181152,-1.2986243963241577
1772790400477201700,14.78420166015625,1.0053629875183105,-3.443364381790161,-1.8557239770889282
1772790400497235000,14.80423486328125,0.9179577827453613,-4.169119358062744,-2.163872241973877
1772790400517268700,14.824268798828125,0.5288880467414856,-4.749969482421875,-2.262944221496582
1772790400537301800,14.8443017578125,-0.014856710098683834,-5.058160305023193,-2.2736127376556396
1772790400557334800,14.864334716796876,-0.6064939498901367,-4.895730972290039,-2.2381887435913086
1772790400577368800,14.884368896484375,-1.1055450439453125,-4.405055046081543,-2.173842668533325
1772790400597401600,14.904401611328124,-1.383373737335205,-3.674809694290161,-2.0735697746276855
1772790400617435600,14.924435546875,-1.4066944122314453,-2.74910569190979,-1.848039150238037
1772790400637469000,14.944468994140625,-1.3096363544464111,-1.7512990236282349,-1.3758339881896973
1772790400657501700,14.964501708984375,-1.156090497970581,-0.6828992366790771,-0.7005389332771301
1772790400677535700,14.98453564453125,-0.9923548102378845,0.4427902102470398,0.15492486953735352
1772790400697568800,15.00456884765625,-0.9488241076469421,1.337375521659851,1.033423900604248
1772790400717601800,15.024601806640625,-0.9437931180000305,1.8975485563278198,1.7801780700683594
1772790400737635600,15.044635498046874,-0.8510253429412842,2.178600311279297,2.278608560562134
1772790400757668600,15.064668701171875,-0.6112761497497559,2.164802312850952,2.4109456539154053
1772790400777701600,15.08470166015625,-0.19812853634357452,1.980678677558899,2.1146390438079834
1772790400797735700,15.104735595703126,0.164247527718544,1.8206509351730347,1.5695585012435913
1772790400817768400,15.1247685546875,0.3163513243198395,1.6343902349472046,1.0098326206207275
1772790400837801500,15.144801513671876,0.3752463161945343,1.4306977987289429,0.553504228591919
1772790400857835500,15.16483544921875,0.5805675387382507,1.1164170503616333,0.13016146421432495
1772790400877868300,15.184868408203124,0.9408892393112183,0.7315322756767273,-0.2643546760082245
1772790400897901600,15.204901611328125,1.3266339302062988,0.2457040399312973,-0.5722635388374329
1772790400917935400,15.224935302734375,1.6116374731063843,-0.17314648628234863,-0.7855195999145508
1772790400937968400,15.244968505859376,1.7212190628051758,-0.4258255958557129,-0.8817747831344604
1772790400958001400,15.26500146484375,1.74307382106781,-0.4948592782020569,-0.8145749568939209
1772790400978035500,15.285035400390624,1.7524592876434326,-0.35726091265678406,-0.5680056214332581
1772790400998068500,15.305068359375,1.7848776578903198,-0.058693405240774155,-0.1728420853614807
1772790401018102500,15.3251025390625,1.8422787189483643,0.37558212876319885,0.27427148818969727
1772790401038135600,15.345135498046876,1.9405796527862549,0.8901296257972717,0.6224156022071838
1772790401058168300,15.365168212890625,2.009645462036133,1.4293984174728394,0.879347026348114
1772790401078202400,15.385202392578124,1.971511721611023,1.9878787994384766,1.1433768272399902
1772790401098235400,15.4052353515625,1.8755325078964233,2.580153703689575,1.425532341003418
1772790401118268400,15.425268310546874,1.8221806287765503,3.1067733764648438,1.666575312614441
1772790401138302500,15.445302490234376,1.7400751113891602,3.4526994228363037,1.882569670677185
1772790401158335500,15.46533544921875,1.6584718227386475,3.74255633354187,2.0414183139801025
1772790401178368500,15.485368408203126,1.6228227615356445,3.8341846466064453,2.031144380569458
1772790401198402300,15.50540234375,1.6574857234954834,3.7493767738342285,1.8215960264205933
1772790401218435600,15.525435546875,1.7430155277252197,3.453444719314575,1.450208067893982
1772790401238468400,15.54546826171875,1.848945140838623,2.888761520385742,0.9880799055099487
1772790401258502400,15.56550244140625,1.9284378290176392,2.0998995304107666,0.4752195179462433
1772790401278535400,15.585535400390626,1.9807926416397095,1.1959878206253052,-0.07305716723203659
1772790401298568400,15.605568359375,2.0330631732940674,0.20732229948043823,-0.6242771744728088
1772790401318602500,15.6256025390625,2.065530300140381,-0.8092435598373413,-1.1188472509384155
1772790401338635500,15.645635498046875,2.025777578353882,-1.7271417379379272,-1.505174160003662
1772790401358669600,15.665669677734375,1.877946138381958,-2.485032320022583,-1.7446287870407104
1772790401378702300,15.685702392578126,1.555303692817688,-3.024770975112915,-1.8166310787200928
1772790401398735600,15.705735595703125,1.1323989629745483,-3.2502169609069824,-1.707463026046753
1772790401418769700,15.725769775390624,0.7520226240158081,-3.1428310871124268,-1.3925682306289673
1772790401438802400,15.745802490234375,0.5317041277885437,-2.7467293739318848,-0.9570737481117249
1772790401458835500,15.76583544921875,0.5761775374412537,-2.0998353958129883,-0.6230539679527283
1772790401478869500,15.785869384765626,0.7459479570388794,-1.3873175382614136,-0.5193043947219849
1772790401498902500,15.805902587890625,0.7977182269096375,-0.7541675567626953,-0.41049590706825256
1772790401518935600,15.825935546875,0.6116349101066589,-0.3137046694755554,-0.10855976492166519
1772790401538969600,15.845969482421875,0.19126956164836884,-0.05144747719168663,0.2783932685852051
1772790401559002400,15.86600244140625,-0.4044199287891388,0.0010285128373652697,0.6812360882759094
1772790401579035600,15.88603564453125,-1.1244432926177979,-0.04285825043916702,0.9617063403129578
1772790401599069700,15.906069580078125,-1.7497799396514893,-0.20154589414596558,1.0128238201141357
1772790401619102500,15.9261025390625,-2.2275593280792236,-0.44079098105430603,0.81218022108078
1772790401639135500,15.946135498046875,-2.610337734222412,-0.6659087538719177,0.45503541827201843
1772790401659169500,15.96616943359375,-2.9050676822662354,-0.7709702253341675,0.11281869560480118
1772790401679202600,15.98620263671875,-3.10426926612854,-0.7094093561172485,-0.23190167546272278
1772790401699235300,16.0062353515625,-3.2014613151550293,-0.33728188276290894,-0.6580939888954163
1772790401719269600,16.02626953125,-3.1845667362213135,0.3089684844017029,-1.0783461332321167
1772790401739302400,16.046302490234375,-3.1173582077026367,1.045741081237793,-1.3367897272109985
1772790401759336400,16.06633642578125,-3.0373947620391846,1.6240112781524658,-1.307032823562622
1772790401779369500,16.086369384765625,-2.948885440826416,1.8200716972351074,-0.927315354347229
1772790401799402500,16.106402587890624,-2.788823366165161,1.5921255350112915,-0.31718993186950684
1772790401819436800,16.126436767578124,-2.4864847660064697,1.1112055778503418,0.2554070055484772
1772790401839469600,16.146469482421875,-2.010707139968872,0.6042025089263916,0.5487832427024841
1772790401859502800,16.1665029296875,-1.4766825437545776,0.10198947787284851,0.5347867012023926
1772790401879537000,16.186536865234373,-1.0023488998413086,-0.42323407530784607,0.311123251914978
1772790401899569700,16.206569580078124,-0.7103843688964844,-0.9623849391937256,-0.05489387363195419
1772790401919603000,16.22660302734375,-0.6505867838859558,-1.4302074909210205,-0.5240885019302368
1772790401939636700,16.24663671875,-0.7333692908287048,-1.7283350229263306,-1.022722840309143
1772790401959669800,16.266669677734374,-0.8491116166114807,-1.845286250114441,-1.4360305070877075
1772790401979702800,16.286702880859377,-0.9035687446594238,-1.8114899396896362,-1.6584985256195068
1772790401999736800,16.30673681640625,-0.875916600227356,-1.5782440900802612,-1.6467795372009277
1772790402019769600,16.32676953125,-0.8410497307777405,-1.2198600769042969,-1.4202725887298584
1772790402039803000,16.346802978515626,-0.8549767136573792,-0.7500292658805847,-1.0584089756011963
1772790402059837000,16.3668369140625,-0.8730899095535278,-0.14174620807170868,-0.6474312543869019
1772790402079869700,16.38686962890625,-0.8935155868530273,0.5812681913375854,-0.16554474830627441
1772790402099903000,16.406903076171876,-0.8604505658149719,1.2971045970916748,0.4344867467880249
1772790402119936800,16.426936767578123,-0.7971882224082947,1.9192911386489868,1.0512974262237549
1772790402139969800,16.4469697265625,-0.6854997873306274,2.442898988723755,1.5935256481170654
1772790402160003600,16.467003662109374,-0.497472882270813,2.7411324977874756,1.9968024492263794
1772790402180036900,16.487036865234376,-0.24114178121089935,2.7542014122009277,2.191422462463379
1772790402200069600,16.507069580078124,0.12682479619979858,2.5710034370422363,2.091554641723633
1772790402220103700,16.527103759765627,0.5785000920295715,2.4148950576782227,1.5988333225250244
1772790402240137000,16.547136962890626,1.0223342180252075,2.3719162940979004,0.8770641684532166
1772790402260169700,16.567169677734373,1.259002685546875,2.3916687965393066,0.3080875277519226
1772790402280203800,16.587203857421876,1.3765733242034912,2.12984037399292,0.18133996427059174
1772790402300236800,16.60723681640625,1.5283570289611816,1.7178491353988647,0.2718813121318817
1772790402320269800,16.627269775390626,1.8034045696258545,1.4213365316390991,0.28286686539649963
1772790402340303600,16.6473037109375,2.2735280990600586,1.1198253631591797,0.18927592039108276
1772790402360337000,16.6673369140625,2.795358419418335,0.7965000867843628,0.10381641238927841
1772790402380369700,16.68736962890625,3.2298264503479004,0.5287826061248779,0.11741238087415695
1772790402400403700,16.70740380859375,3.517429828643799,0.4016544818878174,0.28229400515556335
1772790402420436700,16.727436767578126,3.606473922729492,0.46385928988456726,0.6882390975952148
1772790402440469800,16.7474697265625,3.5822770595550537,0.8012107014656067,1.2425178289413452
1772790402460503800,16.76750390625,3.5013961791992188,1.36119544506073,1.7318024635314941
1772790402480536600,16.78753662109375,3.404892683029175,2.0059049129486084,2.0297415256500244
1772790402500569900,16.80756982421875,3.27559494972229,2.560447931289673,2.2173683643341064
1772790402520603600,16.827603759765626,3.0774199962615967,2.9271750450134277,2.3851242065429688
1772790402540636700,16.84763671875,2.857548952102661,3.0525336265563965,2.5048179626464844
1772790402560669700,16.867669677734376,2.686417579650879,3.034529209136963,2.494643449783325
1772790402580703700,16.887703857421876,2.5281410217285156,2.8165876865386963,2.295642614364624
1772790402600736800,16.90773681640625,2.3476741313934326,2.4524762630462646,1.9568977355957031
1772790402620769800,16.927769775390626,2.1191225051879883,1.9540143013000488,1.5104069709777832
1772790402640803800,16.947803955078125,1.8952840566635132,1.3840250968933105,1.021386981010437
1772790402660836600,16.967836669921876,1.6845537424087524,0.7352803945541382,0.5233654975891113
1772790402680871700,16.98787158203125,1.5077036619186401,0.08164665848016739,0.06789036840200424
1772790402700905000,17.007905029296875,1.334312915802002,-0.5370267033576965,-0.38046878576278687
1772790402720937700,17.027937744140626,1.1979516744613647,-1.0983893871307373,-0.7981946468353271
1772790402740971800,17.0479716796875,1.0305756330490112,-1.6003613471984863,-1.1437435150146484
1772790402761004800,17.0680048828125,0.7837664484977722,-1.9334847927093506,-1.3662077188491821
1772790402781037800,17.088037841796876,0.5487728118896484,-2.087263345718384,-1.483443260192871
1772790402801071900,17.10807177734375,0.38169142603874207,-2.0942039489746094,-1.4810539484024048
1772790402821104600,17.128104736328126,0.215129092335701,-1.9496961832046509,-1.2802473306655884
1772790402841137400,17.148137451171873,-0.0012423646403476596,-1.6848450899124146,-0.8964943289756775
1772790402861171500,17.16817138671875,-0.13108371198177338,-1.2874993085861206,-0.5283032655715942
1772790402881204500,17.18820458984375,-0.1472025066614151,-0.8404219746589661,-0.47981587052345276
1772790402901237500,17.208237548828127,-0.3105115294456482,-0.5336793661117554,-0.5776984691619873
1772790402921271600,17.228271484375,-0.6899701952934265,-0.4256516993045807,-0.5270547270774841
1772790402941304300,17.24830419921875,-1.2263662815093994,-0.4284256398677826,-0.48856860399246216
1772790402961338600,17.268338623046876,-1.7983604669570923,-0.5308098196983337,-0.5612398982048035
1772790402981371400,17.288371337890624,-2.432756185531616,-0.6874920725822449,-0.6840358376502991
1772790403001404400,17.308404296875,-2.973362445831299,-0.8904931545257568,-0.860148012638092
1772790403021438700,17.328438720703126,-3.371208667755127,-1.0121101140975952,-1.124732255935669
1772790403041471500,17.348471435546877,-3.7616374492645264,-0.9873637557029724,-1.3668924570083618
1772790403061504500,17.36850439453125,-4.170452117919922,-0.8238512873649597,-1.3933459520339966
1772790403081538600,17.38853857421875,-4.506742477416992,-0.5017206072807312,-1.1835029125213623
1772790403101571600,17.408571533203126,-4.633222579956055,-0.017914818599820137,-0.8232131600379944
1772790403121604400,17.428604248046874,-4.579768180847168,0.5677862167358398,-0.4054628014564514
1772790403141638400,17.448638427734377,-4.383199214935303,1.1926090717315674,0.06205644831061363
1772790403161671700,17.468671630859376,-4.069636344909668,1.8168751001358032,0.5444502830505371
1772790403181704400,17.488704345703123,-3.516557455062866,2.262984037399292,0.9457268714904785
1772790403201738500,17.508738525390626,-2.7229526042938232,2.3326125144958496,1.2813479900360107
1772790403221771500,17.528771484375,-1.8811941146850586,1.816379427909851,1.5520564317703247
1772790403241804500,17.548804443359376,-1.082140326499939,0.7561268210411072,1.579309344291687
1772790403261838300,17.56883837890625,-0.4176667332649231,-0.44400620460510254,1.1730835437774658
1772790403281871600,17.58887158203125,0.10592164099216461,-1.5379531383514404,0.39792871475219727
1772790403301904400,17.608904296875,0.4316696524620056,-2.4840784072875977,-0.49612000584602356
1772790403321938400,17.6289384765625,0.4512747824192047,-3.3301162719726562,-1.2550383806228638
1772790403341971700,17.6489716796875,0.16021843254566193,-3.9639556407928467,-1.784477949142456
1772790403362004500,17.66900439453125,-0.2119002640247345,-4.186244010925293,-2.082007884979248
1772790403382038500,17.68903857421875,-0.382779598236084,-3.9514894485473633,-2.1366655826568604
1772790403402071600,17.709071533203126,-0.3215990662574768,-3.2295398712158203,-1.8940571546554565
1772790403422104600,17.7291044921875,-0.2018047571182251,-2.0896244049072266,-1.3730640411376953
1772790403442138400,17.749138427734376,-0.09635502845048904,-0.7317413091659546,-0.6771707534790039
1772790403462171600,17.769171630859375,-0.04601036757230759,0.6970256567001343,0.08369410037994385
1772790403482205700,17.789205810546875,-0.00401604687795043,2.034911632537842,0.8572635650634766
1772790403502238500,17.809238525390626,0.06079091131687164,3.098076343536377,1.5728994607925415
1772790403522271700,17.829271728515625,0.16258011758327484,3.9124648571014404,2.177523612976074
1772790403542305500,17.849305419921876,0.34343698620796204,4.381484031677246,2.6146435737609863
1772790403562338600,17.869338623046875,0.5631940960884094,4.536855220794678,2.81184720993042
1772790403582371600,17.88937158203125,0.7860522270202637,4.400522708892822,2.727558135986328
1772790403602405600,17.909405517578126,1.0129297971725464,4.1539506912231445,2.3041412830352783
1772790403622438400,17.9294384765625,1.2606052160263062,3.9282562732696533,1.4601225852966309
1772790403642471400,17.949471435546876,1.3605759143829346,3.731208324432373,0.42410653829574585
1772790403662505700,17.969505615234375,1.2357256412506104,3.2988929748535156,-0.24666836857795715
1772790403682538500,17.98953857421875,1.1748329401016235,2.7125110626220703,-0.5181182622909546
1772790403702571500,18.009571533203125,1.3120750188827515,2.3769094944000244,-0.6936224102973938
1772790403722605600,18.02960546875,1.6893088817596436,2.2371716499328613,-0.844150960445404
1772790403742638600,18.049638671875,2.184661626815796,2.1602039337158203,-0.9653367400169373
1772790403762671400,18.06967138671875,2.599416494369507,2.152116537094116,-1.0749708414077759
1772790403782705700,18.08970556640625,2.7911648750305176,2.16583514213562,-1.2210087776184082
1772790403802738400,18.109738525390625,2.7612950801849365,2.173739194869995,-1.342008113861084
1772790403822771200,18.129771240234376,2.6479403972625732,2.2379558086395264,-1.4173401594161987
1772790403842805200,18.14980517578125,2.5997209548950195,2.3280255794525146,-1.4635443687438965
1772790403862838000,18.169838134765627,2.614663600921631,2.416445255279541,-1.4418261051177979
1772790403882871000,18.18987109375,2.6278154850006104,2.4429807662963867,-1.3933768272399902
1772790403902905300,18.2099052734375,2.6090362071990967,2.3325819969177246,-1.3879988193511963
1772790403922938000,18.229938232421876,2.5723044872283936,2.0791473388671875,-1.4215407371520996
1772790403942971100,18.24997119140625,2.507232666015625,1.6823278665542603,-1.4539570808410645
1772790403963005200,18.270005126953127,2.319615602493286,1.1016669273376465,-1.443621039390564
1772790403983038200,18.2900380859375,2.112600803375244,0.4659320116043091,-1.3457144498825073
1772790404003071000,18.310071044921877,1.9097142219543457,-0.14001889526844025,-1.1969268321990967
1772790404023105000,18.33010498046875,1.696843147277832,-0.6755281090736389,-0.9932045936584473
1772790404043138000,18.350137939453123,1.4811601638793945,-1.1427654027938843,-0.8018197417259216
1772790404063171000,18.370171142578126,1.2543991804122925,-1.4730244874954224,-0.6365266442298889
1772790404083205000,18.390205078125,0.9873624444007874,-1.6486260890960693,-0.4219416379928589
1772790404103238100,18.410238037109377,0.7072088122367859,-1.7019926309585571,-0.15013010799884796
1772790404123271200,18.430271240234376,0.4486244022846222,-1.6414883136749268,0.16571307182312012
1772790404143305000,18.450304931640623,0.2432778924703598,-1.445634365081787,0.5571146607398987
1772790404163338200,18.470338134765626,0.10120358318090439,-1.1951608657836914,0.9996095299720764
1772790404183372300,18.490372314453126,0.0027979169972240925,-0.9138680100440979,1.4930938482284546
1772790404203405000,18.510405029296876,-0.0904766395688057,-0.6333039402961731,2.05082368850708
1772790404223438300,18.530438232421876,-0.17173314094543457,-0.3646402657032013,2.609160900115967
1772790404243472100,18.55047216796875,-0.20108410716056824,-0.11375053226947784,3.083146333694458
1772790404263505200,18.570505126953126,-0.18828335404396057,0.11837564408779144,3.4824063777923584
1772790404283538200,18.5905380859375,-0.15881069004535675,0.2996295988559723,3.853980302810669
1772790404303572200,18.610572265625,-0.10770568996667862,0.4769817292690277,4.179092884063721
1772790404323605000,18.63060498046875,-0.02070394717156887,0.6450898051261902,4.455338954925537
1772790404343638300,18.65063818359375,0.07689398527145386,0.8086198568344116,4.677598476409912
1772790404363672300,18.67067236328125,0.16465765237808228,0.9766725301742554,4.925458908081055
1772790404383705000,18.690705078125,0.24338415265083313,1.1219559907913208,5.178601264953613
1772790404403738400,18.71073828125,0.37719017267227173,1.291104793548584,5.377564430236816
1772790404423772200,18.730772216796876,0.5886371731758118,1.4663801193237305,5.4908013343811035
1772790404443805200,18.75080517578125,0.8598406910896301,1.6132745742797852,5.519079685211182
1772790404463838200,18.770838134765626,1.1556425094604492,1.7331087589263916,5.483096122741699
1772790404483872300,18.790872314453125,1.4295926094055176,1.8377035856246948,5.439776420593262
1772790404503905000,18.810905029296876,1.6296159029006958,1.9142178297042847,5.453345775604248
1772790404523938300,18.830938232421875,1.7750072479248047,2.041943311691284,5.532510757446289
1772790404543972400,18.850972412109375,1.8784968852996826,2.1916861534118652,5.622809886932373
1772790404564005000,18.871005126953126,1.981499433517456,2.3706471920013428,5.6780853271484375
1772790404584038100,18.8910380859375,2.083256721496582,2.571697473526001,5.691235065460205
1772790404604072200,18.911072265625,2.1925394535064697,2.734575033187866,5.6269965171813965
1772790404624105200,18.931105224609375,2.280470609664917,2.8321404457092285,5.43163537979126
1772790404644138000,18.951137939453126,2.310298442840576,2.780296802520752,5.082024097442627
1772790404664172300,18.97117236328125,2.217224597930908,2.5526068210601807,4.611526012420654
1772790404684205000,18.991205078125,1.981065034866333,2.128920316696167,4.08384895324707
1772790404704238000,19.011238037109376,1.6510626077651978,1.5166603326797485,3.5430071353912354
1772790404724272000,19.031272216796875,1.2789783477783203,0.8091024160385132,2.9799513816833496
1772790404744305200,19.05130517578125,0.8249253034591675,0.05776502937078476,2.338937759399414
1772790404764338200,19.071338134765625,0.283068984746933,-0.7291008234024048,1.5672156810760498
1772790404784372000,19.0913720703125,-0.265469491481781,-1.3297743797302246,0.6821908354759216
1772790404804405200,19.1114052734375,-0.7788230776786804,-1.749893307685852,-0.2815408706665039
1772790404824438000,19.13143798828125,-1.2510590553283691,-1.964624047279358,-1.2954201698303223
1772790404844472000,19.15147216796875,-1.6251189708709717,-1.9336035251617432,-2.3270554542541504
1772790404864505000,19.171505126953125,-1.9471849203109741,-1.6809771060943604,-3.289921998977661
1772790404884538000,19.1915380859375,-2.2090225219726562,-1.2665530443191528,-4.0806989669799805
1772790404904572000,19.211572021484375,-2.4478743076324463,-0.7875087261199951,-4.657833576202393
1772790404924605200,19.231605224609375,-2.743610143661499,-0.37422844767570496,-5.006339073181152
1772790404944639200,19.25163916015625,-3.108365058898926,-0.03598276898264885,-5.122045516967773
1772790404964672000,19.271672119140625,-3.382643222808838,0.18199722468852997,-5.0150580406188965
1772790404984705300,19.291705322265624,-3.4564316272735596,0.20382076501846313,-4.697546005249023
1772790405004738000,19.311738037109375,-3.480548858642578,0.12039671838283539,-4.130399227142334
1772790405024772000,19.331772216796875,-3.49750018119812,0.0005241101025603712,-3.3363397121429443
1772790405044805000,19.35180517578125,-3.473708152770996,-0.09517871588468552,-2.444218397140503
1772790405064839200,19.371839111328125,-3.3452651500701904,-0.02630510739982128,-1.6191155910491943
1772790405084872000,19.391871826171876,-3.083662986755371,0.2482236623764038,-0.9837067127227783
1772790405104905200,19.4119052734375,-2.7288546562194824,0.660646915435791,-0.5019648671150208
1772790405124939300,19.431939208984375,-2.261091709136963,1.067354440689087,-0.10054285079240799
1772790405144972000,19.451971923828125,-1.7032585144042969,1.3385721445083618,0.21085843443870544
1772790405165005300,19.47200537109375,-1.1576635837554932,1.3702099323272705,0.4396063983440399
1772790405185039000,19.4920390625,-0.714006781578064,1.1701812744140625,0.6120343804359436
1772790405205072100,19.512072021484375,-0.42316269874572754,0.8108164072036743,0.6734061241149902
1772790405225105200,19.532105224609374,-0.24923992156982422,0.398171067237854,0.5933954119682312
1772790405245139200,19.55213916015625,-0.1068047434091568,0.012724317610263824,0.4495197534561157
1772790405265172000,19.572171875,0.05512769892811775,-0.3664056956768036,0.3463155925273895
1772790405285205200,19.592205322265624,0.17268602550029755,-0.8375841379165649,0.3256779611110687
1772790405305239300,19.6122392578125,0.18171067535877228,-1.203622817993164,0.34368279576301575
1772790405325272000,19.63227197265625,0.11009294539690018,-1.4628386497497559,0.3186618685722351
1772790405345305000,19.65230517578125,0.017437579110264778,-1.6768721342086792,0.22934557497501373
1772790405365339100,19.672339111328125,-0.09952312707901001,-1.839166283607483,0.08939965069293976
1772790405385372200,19.6923720703125,-0.2342260777950287,-1.759306788444519,-0.0392209067940712
1772790405405405000,19.712405029296875,-0.3308381140232086,-1.463649034500122,-0.08823798596858978
1772790405425439200,19.732439208984374,-0.31381624937057495,-0.8364267349243164,-0.03399178758263588
1772790405445472000,19.752471923828125,-0.1577499508857727,0.004071706905961037,0.17993541061878204
1772790405465505000,19.772505126953124,0.03502882272005081,0.8967635631561279,0.6631953120231628
1772790405485539000,19.7925390625,0.17189133167266846,1.8758225440979004,1.4887211322784424
1772790405505572000,19.812572021484375,0.38990142941474915,2.6892123222351074,2.456707715988159
1772790405525605000,19.832605224609374,0.7100520133972168,3.2634530067443848,3.172494411468506
1772790405545639000,19.852638916015625,1.0446585416793823,3.686110258102417,3.2687177658081055
1772790405565672200,19.872672119140624,1.1688637733459473,3.84171199798584,2.791870355606079
1772790405585705000,19.892705078125,1.0883276462554932,3.8486692905426025,1.9589427709579468
1772790405605739000,19.912739013671874,1.0301167964935303,3.700528144836426,1.0077012777328491
1772790405625772000,19.93277197265625,1.0138843059539795,3.456981897354126,0.1977253258228302
1772790405645805000,19.95280517578125,1.007110595703125,3.1357314586639404,-0.30799511075019836
1772790405665839000,19.972839111328124,0.9696124792098999,2.7891650199890137,-0.5212160348892212
1772790405685872000,19.9928720703125,0.9167457818984985,2.455505609512329,-0.49735119938850403
1772790405705905200,20.0129052734375,0.8843793272972107,2.1810073852539062,-0.36580806970596313
1772790405725939000,20.03293896484375,0.8838613629341125,1.9809255599975586,-0.24196122586727142
1772790405745972200,20.05297216796875,0.9275212287902832,1.7818598747253418,-0.1784863919019699
1772790405766005000,20.0730048828125,1.012664556503296,1.550013542175293,-0.21427340805530548
1772790405786039000,20.0930390625,1.1882041692733765,1.2757679224014282,-0.33238112926483154
1772790405806072000,20.113072021484374,1.489418864250183,0.9603002071380615,-0.4742927551269531
1772790405826105600,20.133105712890625,1.8593740463256836,0.6191708445549011,-0.5705356597900391
1772790405846139400,20.153139404296876,2.1937947273254395,0.32426515221595764,-0.5897125601768494
1772790405866172700,20.173172607421876,2.4289300441741943,0.0840429738163948,-0.5904374718666077
1772790405886205400,20.193205322265626,2.535311222076416,-0.07437703013420105,-0.6229786276817322
1772790405906239500,20.213239501953126,2.517063856124878,-0.19185411930084229,-0.6562473773956299
1772790405926272500,20.2332724609375,2.422914981842041,-0.29874008893966675,-0.6422404646873474
1772790405946305500,20.253305419921876,2.305182933807373,-0.4021058976650238,-0.5628591179847717
1772790405966339600,20.273339599609375,2.228148937225342,-0.5497645735740662,-0.43984556198120117
1772790405986372400,20.293372314453126,2.1908912658691406,-0.6964688301086426,-0.2600148022174835
1772790406006406700,20.31340673828125,2.1309118270874023,-0.8495294451713562,-0.009988718666136265
1772790406026439400,20.333439453125,1.998827576637268,-1.0050157308578491,0.2953285872936249
1772790406046472400,20.353472412109376,1.8190300464630127,-1.162310004234314,0.6042483448982239
1772790406066505500,20.37350537109375,1.5618970394134521,-1.2595902681350708,0.8928974270820618
1772790406086539500,20.39353955078125,1.2270450592041016,-1.291045069694519,1.22970449924469
1772790406106572300,20.413572265625,0.8407818078994751,-1.2326537370681763,1.5936717987060547
1772790406126606600,20.433606689453125,0.5004189014434814,-1.0621602535247803,1.9273003339767456
1772790406146639600,20.4536396484375,0.2507621943950653,-0.8418744802474976,2.223586320877075
1772790406166672400,20.47367236328125,0.03364691138267517,-0.5949547290802002,2.4889931678771973
1772790406186706400,20.49370654296875,-0.13352130353450775,-0.3577951490879059,2.661933183670044
1772790406206739500,20.513739501953125,-0.21332266926765442,-0.14558036625385284,2.705883264541626
1772790406226772500,20.5337724609375,-0.2381124347448349,0.029984530061483383,2.61677622795105
1772790406246806300,20.55380615234375,-0.24633760750293732,0.07185102254152298,2.46128511428833
1772790406266838500,20.573838623046875,-0.3297475576400757,-0.03299470245838165,2.262538194656372
1772790406286871600,20.59387158203125,-0.5164687037467957,-0.2697638273239136,2.0552518367767334
1772790406306904600,20.613904541015625,-0.9351724982261658,-0.5021201372146606,1.7565443515777588
1772790406326938400,20.6339384765625,-1.460503339767456,-0.6949449777603149,1.2895313501358032
1772790406346971400,20.653971435546875,-1.8743833303451538,-0.8295453786849976,0.6727248430252075
1772790406367004400,20.67400439453125,-2.0878825187683105,-0.8108555674552917,0.05932377651333809
1772790406387038500,20.69403857421875,-2.074007749557495,-0.7317461371421814,-0.399657666683197
1772790406407071500,20.714071533203125,-1.9086686372756958,-0.5673949718475342,-0.6391157507896423
1772790406427104500,20.7341044921875,-1.7785226106643677,-0.33625710010528564,-0.9556388854980469
1772790406447138600,20.754138671875,-1.7962051630020142,-0.08575298637151718,-1.4723623991012573
1772790406467171300,20.77417138671875,-2.005458116531372,-0.02047012187540531,-2.0240700244903564
1772790406487204600,20.79420458984375,-2.3615636825561523,-0.158269003033638,-2.4275920391082764
1772790406507238400,20.81423828125,-2.6203510761260986,-0.3665524423122406,-2.643894910812378
1772790406527271400,20.834271484375,-2.6249396800994873,-0.5628849267959595,-2.748335599899292
1772790406547304400,20.854304443359375,-2.3772246837615967,-0.7569361329078674,-2.7840380668640137
1772790406567338500,20.87433837890625,-1.978135347366333,-0.8940311670303345,-2.758430004119873
1772790406587371500,20.89437158203125,-1.5307629108428955,-0.9897060394287109,-2.6826820373535156
1772790406607404500,20.914404541015625,-1.0375452041625977,-1.1259187459945679,-2.54268741607666
1772790406627438600,20.9344384765625,-0.5132396221160889,-1.134417176246643,-2.3854291439056396
1772790406647471400,20.954471435546875,-0.10721540451049805,-0.9526036381721497,-2.2301197052001953
1772790406667504600,20.974504638671874,0.12423486262559891,-0.6544521450996399,-2.0525341033935547
1772790406687540500,20.99454052734375,0.23805303871631622,-0.3677343428134918,-1.8702789545059204
1772790406707573500,21.014573486328125,0.3010554313659668,-0.12633982300758362,-1.7050577402114868
1772790406727607600,21.034607666015624,0.32625988125801086,0.001677791471593082,-1.5418730974197388
1772790406747640300,21.054640380859375,0.35415488481521606,-0.0557362325489521,-1.3987622261047363
1772790406767673600,21.074673583984374,0.3917938768863678,-0.29895076155662537,-1.2404452562332153
1772790406787707600,21.094707763671874,0.41398707032203674,-0.6681578159332275,-1.005618691444397
1772790406807740400,21.114740478515625,0.2826937437057495,-1.0911424160003662,-0.6598826050758362
1772790406827773400,21.1347734375,-0.014285461977124214,-1.3617820739746094,-0.22591489553451538
1772790406847807200,21.15480712890625,-0.37241777777671814,-1.5223579406738281,0.18202093243598938
1772790406867840300,21.17484033203125,-0.739697277545929,-1.5243399143218994,0.5287038087844849
1772790406887873300,21.194873291015625,-0.9250276684761047,-1.5060617923736572,0.765333890914917
1772790406907907300,21.2149072265625,-0.8245341181755066,-1.3613203763961792,0.9915584921836853
1772790406927940000,21.234940185546876,-0.5444353222846985,-0.9886785745620728,1.1873624324798584
1772790406947973400,21.254973388671875,-0.1340310424566269,-0.594375729560852,1.2770004272460938
1772790406968007400,21.27500732421875,0.2489118129014969,-0.20763547718524933,1.2273883819580078
1772790406988040200,21.295040283203125,0.46555012464523315,0.03915565833449364,1.311158299446106
1772790407008073200,21.3150732421875,0.1793106347322464,0.10693923383951187,1.5970194339752197
1772790407028107300,21.335107177734375,-0.5026745796203613,-0.14403067529201508,1.6902351379394531
1772790407048140300,21.355140380859375,-1.1023191213607788,-0.5462297797203064,1.3139402866363525
1772790407068173000,21.375173095703126,-1.2594342231750488,-0.8624210357666016,0.5259194374084473
1772790407088207400,21.395207275390625,-1.0824549198150635,-0.7429723739624023,-0.4644651412963867
1772790407108240100,21.415240234375,-0.875244140625,-0.2458140254020691,-1.3542677164077759
1772790407128273200,21.435273193359375,-0.8444314002990723,0.21003419160842896,-1.7511199712753296
1772790407148307200,21.45530712890625,-1.0216267108917236,0.5393583178520203,-1.6636152267456055
1772790407168340200,21.47534033203125,-1.0650577545166016,0.9320842623710632,-1.3625706434249878
1772790407188373200,21.495373291015625,-0.6911419630050659,1.3747378587722778,-0.9315239191055298
1772790407208407000,21.515406982421876,0.004979046061635017,1.6966320276260376,-0.40560367703437805
1772790407228440300,21.5354404296875,0.6174477934837341,1.7169071435928345,0.06325140595436096
1772790407248473000,21.55547314453125,0.9671687483787537,1.3376178741455078,0.38469308614730835
1772790407268507100,21.575507080078125,1.0365267992019653,0.630089521408081,0.526313066482544
1772790407288540200,21.5955400390625,0.9275057911872864,-0.14231319725513458,0.47113102674484253
1772790407308573200,21.6155732421875,0.7627304196357727,-0.7468494176864624,0.2784404158592224
1772790407328607200,21.635607177734375,0.6200209259986877,-1.1826586723327637,0.06560350954532623
1772790407348640300,21.65564013671875,0.5926982164382935,-1.4402223825454712,-0.07761277258396149
1772790407368673300,21.67567333984375,0.6836243867874146,-1.5068389177322388,-0.12930552661418915
1772790407388707000,21.69570703125,0.7999560832977295,-1.381728172302246,-0.11101706326007843
1772790407408740400,21.715740234375,0.9650832414627075,-1.033406376838684,-0.06529991328716278
1772790407428773000,21.735773193359375,1.1896412372589111,-0.5147560238838196,0.042155176401138306
1772790407448807200,21.75580712890625,1.392112374305725,0.09843841940164566,0.29556214809417725
1772790407468840200,21.775840087890625,1.482103943824768,0.7435827851295471,0.7067670226097107
1772790407488873200,21.795873291015624,1.563909888267517,1.2876261472702026,1.1732971668243408
1772790407508907300,21.8159072265625,1.6896417140960693,1.7260305881500244,1.5666157007217407
1772790407528940300,21.835940185546875,1.7663432359695435,2.065446615219116,1.8540338277816772
1772790407548973300,21.855973388671874,1.7303780317306519,2.151679754257202,2.0020015239715576
1772790407569007000,21.876007080078125,1.634872555732727,1.9788988828659058,1.9833431243896484
1772790407589040400,21.896040283203124,1.487602949142456,1.5300116539001465,1.8174515962600708
1772790407609073200,21.9160732421875,1.360846757888794,0.8983182907104492,1.517805576324463
1772790407629107200,21.936107177734375,1.2675299644470215,0.18727295100688934,1.1163222789764404
1772790407649140200,21.95614013671875,1.140852451324463,-0.4562165439128876,0.6472834348678589
1772790407669173200,21.97617333984375,0.9254156947135925,-0.9504145383834839,0.15746338665485382
1772790407689207300,21.996207275390624,0.7014111280441284,-1.3363311290740967,-0.3181087374687195
1772790407709240300,22.016240234375,0.5128819346427917,-1.5706911087036133,-0.7139588594436646
1772790407729273300,22.0362734375,0.3162336051464081,-1.6414992809295654,-0.9420642256736755
1772790407749307100,22.05630712890625,0.09692414849996567,-1.6117302179336548,-1.0085904598236084
1772790407769340200,22.076340087890625,-0.09142258763313293,-1.465232014656067,-0.9652933478355408
1772790407789373200,22.096373291015624,-0.23003825545310974,-1.1773009300231934,-0.8466428518295288
1772790407809407200,22.1164072265625,-0.3677833378314972,-0.8470801711082458,-0.6785039305686951
1772790407829440000,22.13643994140625,-0.592799961566925,-0.4887768626213074,-0.4967530369758606
1772790407849473000,22.15647314453125,-0.8683231472969055,-0.11411405354738235,-0.3897690773010254
1772790407869507000,22.176507080078125,-1.114418387413025,0.18042463064193726,-0.4264812767505646
1772790407889540000,22.1965400390625,-1.3153855800628662,0.3803470730781555,-0.5684692859649658
1772790407909573000,22.216572998046875,-1.4372084140777588,0.5505185127258301,-0.7708048224449158
1772790407929607200,22.236607177734374,-1.4133163690567017,0.690096378326416,-1.0856072902679443
1772790407949640000,22.256639892578125,-1.3764771223068237,0.7721630334854126,-1.452646017074585
1772790407969673200,22.276673095703124,-1.4825769662857056,0.6639614701271057,-1.6005254983901978
1772790407989707000,22.29670703125,-1.7033705711364746,0.3632186949253082,-1.5034830570220947
1772790408009740000,22.316739990234375,-1.8906887769699097,0.022422485053539276,-1.3570384979248047
1772790408029773000,22.33677294921875,-1.948850154876709,-0.24978800117969513,-1.2871235609054565
1772790408049807000,22.35680712890625,-1.9351603984832764,-0.45504528284072876,-1.2993555068969727
1772790408069840100,22.376840087890624,-1.9582244157791138,-0.6242846250534058,-1.2756844758987427
1772790408089873200,22.396873046875,-2.073958158493042,-0.7681768536567688,-1.1874566078186035
1772790408109907200,22.4169072265625,-2.2104849815368652,-0.838923990726471,-1.040503740310669
1772790408129940000,22.43693994140625,-2.2776803970336914,-0.7884786128997803,-0.8596193790435791
1772790408149973200,22.45697314453125,-2.1706197261810303,-0.6513753533363342,-0.6774061918258667
1772790408170007000,22.477007080078124,-1.9390875101089478,-0.5077242255210876,-0.5122968554496765
1772790408190040000,22.4970400390625,-1.5880604982376099,-0.4070245027542114,-0.37287449836730957
1772790408210073000,22.517072998046874,-1.1030837297439575,-0.4035429358482361,-0.2852626442909241
1772790408230107100,22.537107177734374,-0.5888904333114624,-0.5464444160461426,-0.28405383229255676
1772790408250140200,22.55714013671875,-0.12258929759263992,-0.8006839156150818,-0.4001955986022949
1772790408270173200,22.577173095703124,0.27823641896247864,-1.1095155477523804,-0.5926105976104736
1772790408290207200,22.597207275390623,0.5994234681129456,-1.391979455947876,-0.780424952507019
1772790408310240000,22.617239990234374,0.7903929352760315,-1.5920016765594482,-0.8702134490013123
1772790408330273000,22.63727294921875,0.866349458694458,-1.7024943828582764,-0.8376957178115845
1772790408350307000,22.65730712890625,0.8882774114608765,-1.7901371717453003,-0.7262828946113586
1772790408370340000,22.677340087890624,0.8941062688827515,-1.843960165977478,-0.5468401908874512
1772790408390372900,22.697372802734375,0.87703937292099,-1.8727279901504517,-0.3140109181404114
1772790408410406100,22.71740625,0.8227623105049133,-1.8893591165542603,-0.02822045236825943
1772790408430440200,22.737440185546873,0.7298584580421448,-1.8310364484786987,0.2883545756340027
1772790408450473000,22.757472900390624,0.615082323551178,-1.6947017908096313,0.6032478213310242
1772790408470506200,22.77750634765625,0.4597180485725403,-1.4987833499908447,0.8715181350708008
1772790408490540000,22.7975400390625,0.31704533100128174,-1.2468640804290771,1.0513496398925781
1772790408510573000,22.817572998046874,0.228766068816185,-0.998012125492096,1.171047329902649
1772790408530606000,22.837606201171877,0.1605611890554428,-0.7634350657463074,1.2689112424850464
1772790408550640000,22.85764013671875,-0.006491188891232014,-0.572494387626648,1.3072572946548462
1772790408570673000,22.8776728515625,-0.23131205141544342,-0.47526612877845764,1.240593671798706
1772790408590706200,22.8977060546875,-0.45572811365127563,-0.40030133724212646,1.0450409650802612
1772790408610740200,22.917740234375,-0.6370877623558044,-0.2924981713294983,0.7537981271743774
1772790408630773000,22.93777294921875,-0.7536277174949646,-0.10839997977018356,0.40062838792800903
1772790408650806300,22.95780615234375,-0.7905029058456421,0.18449048697948456,0.026487533003091812
1772790408670840000,22.977840087890623,-0.7575500011444092,0.5428036451339722,-0.31500402092933655
1772790408690873000,22.997873046875,-0.6839072108268738,0.8700850605964661,-0.5464886426925659
1772790408710906000,23.017906005859373,-0.6123502254486084,1.1162197589874268,-0.6627135276794434
1772790408730940200,23.037940185546876,-0.47895991802215576,1.2880463600158691,-0.8040866255760193
1772790408750973000,23.057972900390624,-0.35849982500076294,1.4052661657333374,-1.0292757749557495
1772790408771006200,23.078006103515627,-0.34243616461753845,1.3523470163345337,-1.183978796005249
1772790408791040300,23.098040283203126,-0.4046790301799774,1.0801695585250854,-1.1871333122253418
1772790408811073000,23.118072998046873,-0.5030990839004517,0.6636730432510376,-1.0511176586151123
1772790408831106000,23.13810595703125,-0.5420414209365845,0.20340105891227722,-0.8687494993209839
1772790408851139800,23.158139892578124,-0.461715430021286,-0.22638386487960815,-0.6987588405609131
1772790408871172900,23.1781728515625,-0.24227096140384674,-0.5924856662750244,-0.5200551748275757
1772790408891206000,23.198205810546874,0.03410603851079941,-0.8855940103530884,-0.3122393786907196
1772790408911240000,23.218239990234373,0.282581090927124,-1.0941197872161865,-0.09575448930263519
1772790408931272700,23.238272705078124,0.4432285726070404,-1.2109737396240234,0.07101611793041229
1772790408951306000,23.258305908203123,0.5348591208457947,-1.1575136184692383,0.14838095009326935
1772790408971340000,23.278340087890626,0.6266980171203613,-0.8949166536331177,0.07131838798522949
1772790408991372800,23.298372802734374,0.7384817600250244,-0.37797871232032776,-0.08043944835662842
1772790409011405800,23.31840576171875,0.8086270689964294,0.313068687915802,-0.1401991844177246
1772790409031440000,23.33843994140625,0.771906316280365,1.084093451499939,0.003142263740301132
1772790409051473000,23.358472900390623,0.6899400949478149,1.927631139755249,0.3306266665458679
1772790409071505700,23.378505615234374,0.6062390804290771,2.658444404602051,0.7620006799697876
1772790409091540000,23.3985400390625,0.6030890941619873,3.2517879009246826,1.2386897802352905
1772790409111572700,23.41857275390625,0.7423350811004639,3.6746392250061035,1.7129299640655518
1772790409131605800,23.438605712890624,1.0330705642700195,3.824023962020874,2.1494412422180176
1772790409151640000,23.45864013671875,1.4437317848205566,3.6974387168884277,2.4823505878448486
1772790409171672800,23.4786728515625,1.914264440536499,3.31238055229187,2.6448841094970703
1772790409191705900,23.498705810546873,2.3114545345306396,2.6420183181762695,2.604086399078369
1772790409211739000,23.51873876953125,2.5286738872528076,1.784976840019226,2.3189563751220703
1772790409231773000,23.53877294921875,2.558734893798828,0.8251500725746155,1.7763161659240723
1772790409251805700,23.5588056640625,2.425020217895508,-0.1576484888792038,1.0503227710723877
1772790409271839000,23.5788388671875,2.199115753173828,-1.024155616760254,0.2277442067861557
1772790409291872800,23.598872802734373,2.034234046936035,-1.7557350397109985,-0.5618867874145508
1772790409311905800,23.61890576171875,1.9012408256530762,-2.3425538539886475,-1.0911524295806885
1772790409331938800,23.638938720703123,1.7648190259933472,-2.667649269104004,-1.284386396408081
1772790409351972900,23.658972900390626,1.5776478052139282,-2.670405626296997,-1.2460867166519165
1772790409372006000,23.679005859375,1.3828407526016235,-2.402648448944092,-1.097743034362793
1772790409392039000,23.699038818359377,1.1934064626693726,-1.9655457735061646,-0.926577091217041
1772790409412073000,23.719072998046876,0.9833879470825195,-1.4351212978363037,-0.7452896237373352
1772790409432105700,23.739105712890623,0.7724847793579102,-0.9017404913902283,-0.5031867027282715
1772790409452139000,23.759138916015626,0.6220195889472961,-0.36640650033950806,-0.24029035866260529
1772790409472172800,23.7791728515625,0.5670375823974609,0.18190056085586548,-0.18852517008781433
1772790409492205800,23.799205810546876,0.4409651458263397,0.6357164978981018,-0.32154473662376404
1772790409512238800,23.81923876953125,0.07681408524513245,0.7980164885520935,-0.3876883387565613
1772790409532273000,23.83927294921875,-0.4958187937736511,0.7739436626434326,-0.36347275972366333
1772790409552306000,23.859305908203126,-1.12839674949646,0.7034180760383606,-0.40314480662345886
1772790409572339000,23.8793388671875,-1.6867948770523071,0.6259261965751648,-0.597513735294342
1772790409592373000,23.899373046875,-2.095906972885132,0.5218812823295593,-0.8765645623207092
1772790409612405800,23.91940576171875,-2.392685890197754,0.3288812041282654,-1.1306378841400146
1772790409632438800,23.939438720703127,-2.5901265144348145,0.10674961656332016,-1.3270014524459839
1772790409652473000,23.95947314453125,-2.68017840385437,-0.06453877687454224,-1.4773143529891968
1772790409672505900,23.979505859375,-2.637590169906616,-0.09807836264371872,-1.576381802558899
1772790409692538600,23.99953857421875,-2.47986102104187,0.08694608509540558,-1.6234991550445557
1772790409712573000,24.019572998046876,-2.246309757232666,0.4994444251060486,-1.600365161895752
1772790409732606000,24.03960595703125,-1.88229238986969,1.0247005224227905,-1.4606040716171265
1772790409752638700,24.059638671875,-1.4034792184829712,1.4070452451705933,-1.2154855728149414
1772790409772672000,24.079672119140625,-0.8716989755630493,1.4127845764160156,-0.948685884475708
1772790409792705800,24.099705810546876,-0.4296368658542633,1.0365632772445679,-0.8243663311004639
1772790409812738800,24.11973876953125,-0.10875071585178375,0.40800586342811584,-0.9142307043075562
1772790409832772000,24.139772216796874,0.1294834166765213,-0.32355010509490967,-1.1156322956085205
1772790409852806100,24.15980615234375,0.3232651352882385,-1.081974744796753,-1.3547159433364868
1772790409872839200,24.179839111328125,0.3607320785522461,-1.808667778968811,-1.4612711668014526
1772790409892872200,24.1998720703125,0.14662060141563416,-2.4308013916015625,-1.4115890264511108
1772790409912906200,24.21990625,-0.19142748415470123,-2.8897132873535156,-1.2992963790893555
1772790409932939000,24.23993896484375,-0.5248233079910278,-3.1751458644866943,-1.1937448978424072
1772790409952972300,24.25997216796875,-0.7559207081794739,-3.2418770790100098,-1.0707981586456299
1772790409973006000,24.280006103515625,-0.8930529952049255,-3.0991594791412354,-0.9144277572631836
1772790409993039000,24.3000390625,-1.0268690586090088,-2.748706817626953,-0.7787988185882568
1772790410013072100,24.320072021484375,-1.1814559698104858,-2.2241148948669434,-0.698527991771698
1772790410033106200,24.340106201171874,-1.3835558891296387,-1.61299467086792,-0.6302034854888916
1772790410053139200,24.36013916015625,-1.6388875246047974,-0.957207441329956,-0.5057215094566345
1772790410073172000,24.380171875,-1.8702906370162964,-0.36511459946632385,-0.30203866958618164
1772790410093206300,24.400206298828124,-2.0189075469970703,0.18236394226551056,-0.06881794333457947
1772790410113239000,24.420239013671875,-2.0883889198303223,0.6764013767242432,0.2243524044752121
1772790410133272000,24.44027197265625,-2.1810028553009033,1.0562440156936646,0.6095448136329651
1772790410153305000,24.46030517578125,-2.2790956497192383,1.2842135429382324,1.0630688667297363
1772790410173339100,24.480339111328124,-2.249952793121338,1.2774690389633179,1.4812339544296265
1772790410193372000,24.500371826171875,-2.112492799758911,1.0585780143737793,1.6734387874603271
1772790410213405200,24.5204052734375,-1.8342982530593872,0.7990761399269104,1.482409954071045
1772790410233439200,24.540439208984374,-1.421052098274231,0.6129558086395264,0.9135531783103943
1772790410253470200,24.56047021484375,-1.0424038171768188,0.5305895805358887,0.26510995626449585
1772790410273503000,24.5805029296875,-0.7873063087463379,0.41762280464172363,-0.11684432625770569
1772790410293537000,24.600537109375,-0.5587021708488464,0.3428846597671509,-0.28423836827278137
1772790410313570000,24.620570068359374,-0.19233456254005432,0.28757771849632263,-0.38942471146583557
1772790410333603000,24.64060302734375,0.30714502930641174,0.1776357740163803,-0.4777178466320038
1772790410353636000,24.660635986328124,0.8125450611114502,0.006859770510345697,-0.5350402593612671
1772790410373670100,24.680670166015624,1.184112548828125,-0.1760874092578888,-0.5901412963867188
1772790410393703200,24.700703125,1.3802602291107178,-0.30474233627319336,-0.6155039072036743
1772790410413736200,24.720736083984374,1.430551290512085,-0.3016006052494049,-0.5788108706474304
1772790410433770200,24.740770263671877,1.4599769115447998,-0.11484429240226746,-0.48927196860313416
1772790410453803000,24.760802978515624,1.5569952726364136,0.2436283677816391,-0.32276180386543274
1772790410473836300,24.780836181640623,1.6868720054626465,0.6982858777046204,-0.05173696205019951
1772790410493870000,24.8008701171875,1.8508154153823853,1.2319226264953613,0.29013383388519287
1772790410513903000,24.820903076171874,2.054656744003296,1.797629714012146,0.6378411650657654
1772790410533936000,24.84093603515625,2.3089420795440674,2.3339579105377197,0.9469385743141174
1772790410553970200,24.86097021484375,2.50224232673645,2.707287073135376,1.2370964288711548
1772790410574003200,24.881003173828127,2.6010050773620605,2.962049961090088,1.4723334312438965
1772790410594036200,24.9010361328125,2.6846368312835693,3.117396593093872,1.5927058458328247
1772790410614070300,24.9210703125,2.734621047973633,3.143315076828003,1.600981593132019
1772790410634103000,24.94110302734375,2.720201253890991,3.042043685913086,1.471491813659668
1772790410654136000,24.961135986328124,2.7105538845062256,2.80344557762146,1.214596152305603
1772790410674170000,24.981170166015627,2.717283010482788,2.422572135925293,0.8632271885871887
1772790410694203100,25.001203125,2.7486443519592285,1.928231954574585,0.4916940927505493
1772790410714236000,25.02123583984375,2.7808284759521484,1.3484992980957031,0.13979677855968475
1772790410734269200,25.041269287109376,2.7977755069732666,0.7079252004623413,-0.13562653958797455
1772790410754303200,25.06130322265625,2.731146812438965,0.1074308529496193,-0.3089791536331177
1772790410774336000,25.0813359375,2.578213691711426,-0.41869500279426575,-0.4087182581424713
