time,seconds_elapsed,z,y,x
1772717579884348200,0.05134814453125,-0.876800537109375,-0.0688629150390625,0.047119140625
1772717579904381200,0.071381103515625,-1.0406341552734375,-0.0879058837890625,-0.020660400390625
1772717579924413200,0.0914130859375,-1.2021636962890625,-0.1081695556640625,0.0273284912109375
1772717579944445200,0.111445068359375,-1.3761138916015625,-0.0312347412109375,0.023773193359375
1772717579964477200,0.131477294921875,-1.3656768798828125,0.100341796875,-0.1069183349609375
1772717579984510200,0.15151025390625,-1.2946319580078125,0.198822021484375,-0.0412445068359375
1772717580004542200,0.171542236328125,-1.16741943359375,0.0863189697265625,0.02557373046875
1772717580024574200,0.19157421875,-1.148406982421875,-0.04791259765625,0.0816192626953125
1772717580044607200,0.211607177734375,-1.0680694580078125,-0.2438201904296875,0.1864776611328125
1772717580064639200,0.23163916015625,-1.0251007080078125,-0.145111083984375,0.22149658203125
1772717580084671200,0.251671142578125,-1.135223388671875,0.0327911376953125,0.1763458251953125
1772717580104703200,0.271703125,-1.137237548828125,0.042327880859375,0.352569580078125
1772717580124736300,0.291736328125,-0.87567138671875,0.1055145263671875,0.1524200439453125
1772717580144768300,0.311768310546875,-0.646484375,0.1497344970703125,0.005706787109375
1772717580164800300,0.33180029296875,-0.69451904296875,0.1077117919921875,0.0146636962890625
1772717580184833300,0.351833251953125,-0.5839996337890625,-0.2086334228515625,0.0623321533203125
1772717580204865300,0.371865234375,-0.5106964111328125,-0.0032806396484375,-0.0052490234375
1772717580224897000,0.39189697265625,-0.8831634521484375,-0.33636474609375,0.05657958984375
1772717580244929300,0.41192919921875,-1.7197265625,-0.5339202880859375,0.3242950439453125
1772717580264962300,0.43196240234375,-0.9370269775390625,-0.1206207275390625,0.0451507568359375
1772717580284994000,0.451994140625,-0.9041290283203125,-0.04022216796875,-0.1220245361328125
1772717580305026300,0.4720263671875,-0.705963134765625,-0.1698760986328125,0.0351409912109375
1772717580325059000,0.49205908203125,-0.5213623046875,-0.2850494384765625,-0.0781402587890625
1772717580345091300,0.51209130859375,-0.932586669921875,-0.3538665771484375,-0.3218536376953125
1772717580365123300,0.532123291015625,-1.3636627197265625,-0.303253173828125,-0.23370361328125
1772717580385155300,0.5521552734375,-1.7066497802734375,-0.269683837890625,-0.1281585693359375
1772717580405188400,0.572188232421875,-1.8668670654296875,-0.1822357177734375,-0.2664947509765625
1772717580425220400,0.592220458984375,-1.8744354248046875,-0.081085205078125,-0.25048828125
1772717580445252000,0.612252197265625,-1.66790771484375,0.03631591796875,-0.0430145263671875
1772717580465285400,0.632285400390625,-1.3314971923828125,0.1109619140625,0.0902252197265625
1772717580485317000,0.652317138671875,-1.17327880859375,0.224945068359375,0.0430145263671875
1772717580505349000,0.67234912109375,-1.071441650390625,0.274444580078125,0.0391845703125
1772717580525381400,0.69238134765625,-0.8172607421875,0.14862060546875,0.0702972412109375
1772717580545414100,0.7124140625,-0.4376678466796875,0.048187255859375,-0.022308349609375
1772717580565446100,0.732446044921875,-0.1650848388671875,0.004669189453125,0.021942138671875
1772717580585478400,0.752478515625,-0.0313873291015625,-0.019683837890625,0.0177154541015625
1772717580605511200,0.77251123046875,-0.0050201416015625,0.0034332275390625,0.0089874267578125
1772717580625543200,0.792543212890625,-0.0054473876953125,0.0046234130859375,0.0089874267578125
1772717580645575200,0.8125751953125,-0.0056304931640625,0.0044708251953125,0.008819580078125
1772717580665607200,0.832607177734375,-0.0069732666015625,0.003662109375,0.0088043212890625
1772717580685640400,0.852640380859375,-0.200836181640625,-0.0261993408203125,-0.002471923828125
1772717580705672200,0.872672119140625,-3.2390594482421875,-0.0768585205078125,0.1231689453125
1772717580725704200,0.8927041015625,-1.562835693359375,0.5450592041015625,0.0740966796875
1772717580745737200,0.9127373046875,-1.81671142578125,0.4173126220703125,0.1509246826171875
1772717580765769200,0.932769287109375,-1.7744598388671875,0.1983184814453125,0.1069488525390625
1772717580785801200,0.95280126953125,-1.544708251953125,-0.1016082763671875,0.0353546142578125
1772717580805833200,0.972833251953125,-1.741302490234375,-0.2882537841796875,-0.2688446044921875
1772717580825866200,0.9928662109375,-2.2097625732421875,-0.2278289794921875,-0.6102294921875
1772717580845898200,1.012898193359375,-2.4199981689453125,-0.0456390380859375,-0.692169189453125
1772717580865930200,1.03293017578125,-2.220916748046875,-0.0157318115234375,-0.5944976806640625
1772717580885963300,1.05296337890625,-1.69061279296875,-0.0276336669921875,-0.534271240234375
1772717580905995000,1.0729951171875,-1.25054931640625,0.0126495361328125,-0.4114837646484375
1772717580926027300,1.09302734375,-1.046356201171875,0.1305694580078125,-0.2166900634765625
1772717580946059300,1.113059326171875,-1.0636444091796875,0.237030029296875,-0.25482177734375
1772717580966092000,1.133092041015625,-0.646759033203125,0.1759185791015625,-0.1755218505859375
1772717580986124300,1.153124267578125,-0.36370849609375,0.09710693359375,-0.001708984375
1772717581006156300,1.17315625,-0.1716156005859375,0.0745086669921875,-0.02911376953125
1772717581026189300,1.193189208984375,-0.1613922119140625,0.192047119140625,-0.0942230224609375
1772717581046221300,1.21322119140625,-0.5645904541015625,0.381683349609375,-0.112823486328125
1772717581066253300,1.23325341796875,-0.647491455078125,0.2442626953125,-0.026580810546875
1772717581086285000,1.25328515625,-0.469818115234375,0.1952972412109375,-0.0484619140625
1772717581106318300,1.273318359375,-0.3424835205078125,0.13421630859375,-0.095062255859375
1772717581126350000,1.29335009765625,-0.3298187255859375,0.1367645263671875,-0.1038970947265625
1772717581146382300,1.31338232421875,-0.33990478515625,0.1050567626953125,-0.0413665771484375
1772717581166415000,1.3334150390625,-0.2109832763671875,0.0396881103515625,-0.0142974853515625
1772717581186447000,1.353447021484375,-0.09906005859375,-0.0014495849609375,-0.0149993896484375
1772717581206479400,1.373479248046875,-0.0622406005859375,0.025634765625,0.00836181640625
1772717581226511000,1.393510986328125,-0.03314208984375,0.0257568359375,0.032806396484375
1772717581246544100,1.413544189453125,0.121612548828125,-0.094818115234375,0.06866455078125
1772717581266576100,1.433576171875,0.005218505859375,-0.0060577392578125,0.0121002197265625
1772717581286608000,1.45360791015625,-0.136077880859375,-0.0048980712890625,0.0698089599609375
1772717581306641200,1.47364111328125,-0.0837554931640625,0.1523284912109375,0.0827484130859375
1772717581326673200,1.493673095703125,-1.426544189453125,0.3701019287109375,-0.1521148681640625
1772717581346705000,1.513704833984375,-1.0346527099609375,0.4979248046875,0.1742401123046875
1772717581366737200,1.533737060546875,-0.9717559814453125,0.3520660400390625,-0.019287109375
1772717581386770000,1.55377001953125,-1.2735443115234375,0.3263397216796875,0.053070068359375
1772717581406802000,1.573802001953125,-1.5504302978515625,0.4106597900390625,0.1276702880859375
1772717581426834200,1.593834228515625,-2.210968017578125,0.43524169921875,0.092803955078125
1772717581446866000,1.613865966796875,-2.6447601318359375,0.30926513671875,-0.0987396240234375
1772717581466899000,1.63389892578125,-2.828582763671875,0.0806732177734375,-0.2662811279296875
1772717581486931200,1.65393115234375,-3.0258026123046875,-0.1084136962890625,-0.3854827880859375
1772717581506963000,1.673962890625,-3.161895751953125,-0.2115325927734375,-0.4485931396484375
1772717581526996200,1.693996337890625,-3.0749053955078125,-0.16156005859375,-0.544403076171875
1772717581547028000,1.714028076171875,-2.8493194580078125,0.024810791015625,-0.6655426025390625
1772717581567060000,1.73406005859375,-2.3979034423828125,0.1920013427734375,-0.504608154296875
1772717581587092000,1.754092041015625,-1.9065704345703125,0.282196044921875,-0.2468414306640625
1772717581607125000,1.774125,-1.47967529296875,0.3207855224609375,-0.0709381103515625
1772717581627157000,1.794156982421875,-1.1881866455078125,0.3086090087890625,-0.0568084716796875
1772717581647189000,1.81418896484375,-1.045806884765625,0.2826995849609375,-0.2243499755859375
1772717581667222000,1.834221923828125,-1.01544189453125,0.30712890625,-0.1108856201171875
1772717581687254000,1.85425390625,-0.6717376708984375,0.2410430908203125,-0.055694580078125
1772717581707286000,1.8742861328125,-0.4900360107421875,0.1959686279296875,0.03106689453125
1772717581727318000,1.894318115234375,-0.417755126953125,0.162750244140625,0.008941650390625
1772717581747351000,1.91435107421875,-0.3644256591796875,0.1185760498046875,-0.065185546875
1772717581767383000,1.934383056640625,-0.2589874267578125,0.0516510009765625,-0.00030517578125
1772717581787415000,1.9544150390625,-0.033660888671875,0.0117950439453125,0.0090179443359375
1772717581807447000,1.974447021484375,-0.0034027099609375,-0.000701904296875,0.009124755859375
1772717581827480000,1.99447998046875,-0.00250244140625,0.00115966796875,0.0049896240234375
1772717581847512000,2.014511962890625,-0.0035552978515625,0.0009307861328125,0.0050201416015625
1772717581867543800,2.034543701171875,-0.00299072265625,0.0015869140625,0.0049285888671875
1772717581887577000,2.0545771484375,-0.0040740966796875,0.0011749267578125,0.0041046142578125
1772717581907609000,2.074609130859375,-0.0038604736328125,0.001556396484375,0.0041351318359375
1772717581927640800,2.094640869140625,-0.0036163330078125,0.001434326171875,0.004638671875
1772717581947673000,2.114673095703125,-0.0059967041015625,0.0010528564453125,0.0044403076171875
1772717581967705900,2.134705810546875,-0.007049560546875,0.0012359619140625,0.0046844482421875
1772717581987738000,2.154738037109375,0.0057830810546875,0.2161712646484375,0.0064544677734375
1772717582007770000,2.17477001953125,-0.4851837158203125,0.0447540283203125,0.0684814453125
1772717582027802000,2.194802001953125,-0.3587646484375,0.2878570556640625,0.0493927001953125
1772717582047835100,2.214835205078125,-0.8198394775390625,0.3164520263671875,-0.13470458984375
1772717582067867100,2.2348671875,-1.058563232421875,0.3065185546875,0.0146331787109375
1772717582087899000,2.25489892578125,-0.9137115478515625,0.401092529296875,0.093048095703125
1772717582107932200,2.27493212890625,-1.0285186767578125,0.26666259765625,0.1046142578125
1772717582127964000,2.2949638671875,-1.260040283203125,0.3319854736328125,0.05596923828125
1772717582147996000,2.314995849609375,-1.622161865234375,0.313323974609375,-0.0355987548828125
1772717582168028200,2.335028076171875,-1.8314361572265625,0.203033447265625,0.09173583984375
1772717582188061000,2.35506103515625,-2.1722412109375,0.0131683349609375,0.1303253173828125
1772717582208094000,2.375093994140625,-2.546875,-0.1243133544921875,0.02947998046875
1772717582228126000,2.3951259765625,-2.958984375,-0.068145751953125,-0.2081451416015625
1772717582248158000,2.415157958984375,-3.201324462890625,-0.0089263916015625,-0.4965362548828125
1772717582268191000,2.43519091796875,-2.9434661865234375,0.030120849609375,-0.6468505859375
1772717582288223000,2.455222900390625,-2.572662353515625,0.1041412353515625,-0.638092041015625
1772717582308255000,2.4752548828125,-2.204833984375,0.247589111328125,-0.490875244140625
1772717582328288000,2.4952880859375,-1.813995361328125,0.36944580078125,-0.27532958984375
1772717582348320000,2.515320068359375,-1.5026702880859375,0.418731689453125,-0.082855224609375
1772717582368352000,2.53535205078125,-1.171478271484375,0.3585205078125,0.0775299072265625
1772717582388383700,2.5553837890625,-0.898590087890625,0.2685546875,0.0458221435546875
1772717582408417000,2.5754169921875,-0.738250732421875,0.2664031982421875,-0.0701446533203125
1772717582428449000,2.595448974609375,-0.6280517578125,0.2782440185546875,-0.0560302734375
1772717582448481000,2.61548095703125,-0.414337158203125,0.1959991455078125,-0.055908203125
1772717582468513000,2.635512939453125,-0.3722686767578125,0.1472625732421875,-0.0037384033203125
1772717582488545800,2.6555458984375,-0.3873138427734375,0.1119842529296875,0.1089935302734375
1772717582508578000,2.675578125,-0.2586669921875,0.10821533203125,0.0662384033203125
1772717582528610000,2.695610107421875,-0.116729736328125,0.079620361328125,-0.027008056640625
1772717582548642800,2.715642822265625,-0.0170135498046875,0.00762939453125,-0.027862548828125
1772717582568675000,2.735675048828125,-0.0020294189453125,0.004150390625,0.0051116943359375
1772717582588707000,2.75570703125,-0.003387451171875,0.0033416748046875,0.00506591796875
1772717582608738800,2.77573876953125,-0.0035858154296875,0.0028533935546875,0.00347900390625
1772717582628772000,2.795772216796875,-0.0054931640625,0.0039215087890625,0.004547119140625
1772717582648803800,2.815803955078125,-0.0057525634765625,0.004638671875,0.0040740966796875
1772717582668835800,2.8358359375,-0.0059814453125,0.00262451171875,0.0048370361328125
1772717582688868000,2.8558681640625,-0.0060272216796875,0.0035858154296875,0.004547119140625
1772717582708900900,2.87590087890625,-0.0059356689453125,0.0027313232421875,0.0044708251953125
1772717582728933000,2.89593310546875,0.6291656494140625,0.1126251220703125,-0.0498046875
1772717582748965000,2.915965087890625,-1.88787841796875,0.1369476318359375,0.1011962890625
1772717582768998000,2.935997802734375,-0.8460845947265625,0.1297149658203125,-0.0831298828125
1772717582789030100,2.956030029296875,-1.2646942138671875,0.412353515625,0.0906524658203125
1772717582809062000,2.976061767578125,-1.2444000244140625,0.0496826171875,0.16778564453125
1772717582829094000,2.996093994140625,-0.877593994140625,-0.078704833984375,0.282257080078125
1772717582849127200,3.016127197265625,-0.8729400634765625,-0.0709381103515625,0.2701416015625
1772717582869159000,3.036158935546875,-1.252166748046875,0.0989990234375,0.0125579833984375
1772717582889191000,3.05619091796875,-1.6291961669921875,0.21063232421875,-0.24884033203125
1772717582909223200,3.07622314453125,-1.8140106201171875,0.175323486328125,-0.070098876953125
1772717582929256000,3.096255859375,-1.9409332275390625,0.0132293701171875,0.135101318359375
1772717582949288000,3.116287841796875,-2.0024871826171875,-0.1304931640625,0.040771484375
1772717582969320000,3.13631982421875,-2.3268280029296875,-0.084228515625,-0.2174835205078125
1772717582989353000,3.15635302734375,-2.7751617431640625,0.0284576416015625,-0.2445220947265625
1772717583009385000,3.176385009765625,-2.8455963134765625,0.0754241943359375,-0.020172119140625
1772717583029417000,3.1964169921875,-2.7654876708984375,0.108306884765625,-0.0655670166015625
1772717583049449000,3.216448974609375,-2.6902923583984375,0.16754150390625,-0.28033447265625
1772717583069482000,3.23648193359375,-2.64105224609375,0.202545166015625,-0.3050689697265625
1772717583089514000,3.256513916015625,-2.5199737548828125,0.21392822265625,-0.171173095703125
1772717583109546000,3.2765458984375,-2.2784576416015625,0.2838134765625,-0.221588134765625
1772717583129578000,3.296577880859375,-2.044891357421875,0.394195556640625,-0.3553619384765625
1772717583149611000,3.316611083984375,-1.677154541015625,0.3868560791015625,-0.25885009765625
1772717583169643000,3.33664306640625,-1.486053466796875,0.422119140625,-0.2207489013671875
1772717583189675000,3.356675048828125,-1.36419677734375,0.4007110595703125,-0.125244140625
1772717583209707800,3.376707763671875,-1.1447296142578125,0.2043914794921875,-0.0330047607421875
1772717583229739800,3.39673974609375,-0.9864044189453125,0.1851348876953125,-0.052398681640625
1772717583249771800,3.416771728515625,-1.049957275390625,0.2158203125,-0.1529998779296875
1772717583269803800,3.4368037109375,-1.0032196044921875,0.075592041015625,-0.161834716796875
1772717583289836500,3.45683642578125,-0.777435302734375,-0.07904052734375,-0.01007080078125
1772717583309868800,3.476868896484375,-0.6160736083984375,-0.059600830078125,-0.1661834716796875
1772717583329900800,3.49690087890625,-0.425079345703125,-0.0162811279296875,-0.3017578125
1772717583349932500,3.5169326171875,-0.2494659423828125,-0.0470123291015625,-0.1597900390625
1772717583369965800,3.5369658203125,-0.1937408447265625,-0.062042236328125,0.02789306640625
1772717583389997800,3.556997802734375,-0.307525634765625,0.012847900390625,0.1755218505859375
1772717583410029600,3.577029541015625,-0.44036865234375,-0.04217529296875,0.112762451171875
1772717583430062800,3.597062744140625,-0.32965087890625,-0.169647216796875,0.0831298828125
1772717583450094600,3.617094482421875,-0.0784149169921875,-0.0168914794921875,0.0348052978515625
1772717583470126600,3.637126708984375,-0.22015380859375,0.086334228515625,-0.038970947265625
1772717583490158800,3.657158935546875,-0.5321502685546875,-0.0859527587890625,-0.30633544921875
1772717583510191600,3.677191650390625,-0.6404876708984375,0.025360107421875,-0.1588897705078125
1772717583530223900,3.697223876953125,-0.6973419189453125,0.1905364990234375,-0.261566162109375
1772717583550255900,3.717255859375,-0.55462646484375,-0.006683349609375,-0.3261871337890625
1772717583570287600,3.73728759765625,-0.48724365234375,-0.08953857421875,-0.256866455078125
1772717583590321000,3.75732080078125,-0.7586822509765625,0.0038909912109375,0.042205810546875
1772717583610352600,3.7773525390625,-0.8396148681640625,-0.016937255859375,0.09014892578125
1772717583630384600,3.797384521484375,-0.6100616455078125,-0.02569580078125,-0.023345947265625
1772717583650416600,3.817416748046875,-0.248809814453125,-0.0128173828125,-0.0609893798828125
1772717583670449700,3.83744970703125,-0.105499267578125,-0.091766357421875,0.0116119384765625
1772717583690481700,3.857481689453125,-0.04315185546875,-0.0970916748046875,-0.003326416015625
1772717583710514000,3.877513916015625,-0.0315399169921875,-0.06036376953125,0.0057373046875
1772717583730546700,3.897546630859375,-0.134490966796875,-0.0830078125,0.060821533203125
1772717583750578700,3.91757861328125,-0.3704833984375,-0.1873016357421875,0.1412353515625
1772717583770610700,3.937610595703125,-0.232818603515625,-0.121429443359375,0.12554931640625
1772717583790642700,3.957642578125,-0.1365966796875,-0.0970001220703125,0.0757598876953125
1772717583810675700,3.97767578125,-0.0917816162109375,-0.11639404296875,0.0375518798828125
1772717583830704600,3.99770458984375,-0.2095947265625,-0.1320648193359375,-0.0769805908203125
1772717583850736600,4.017736572265625,-0.370880126953125,0.0198974609375,-0.1610260009765625
1772717583870769000,4.037768798828125,-0.432342529296875,0.0361328125,-0.101654052734375
1772717583890801700,4.0578017578125,-0.4419708251953125,-0.024139404296875,0.01361083984375
1772717583910834000,4.077833984375,-0.5490264892578125,0.176483154296875,-0.0156402587890625
1772717583930865700,4.09786572265625,-0.43927001953125,0.18548583984375,-0.108612060546875
1772717583950897700,4.117897705078125,-0.365753173828125,0.13189697265625,-0.1596832275390625
1772717583970930700,4.1379306640625,-0.3855743408203125,0.0852203369140625,-0.3092193603515625
1772717583990962700,4.157962646484375,-0.328033447265625,0.001739501953125,-0.381317138671875
1772717584010994700,4.17799462890625,-0.525787353515625,0.1956939697265625,-0.32672119140625
1772717584031027700,4.19802783203125,-0.8978118896484375,0.2816009521484375,-0.180145263671875
1772717584051059700,4.218059814453125,-1.0711822509765625,0.19580078125,-0.0558624267578125
1772717584071091700,4.238091796875,-0.740386962890625,0.18743896484375,-0.23309326171875
1772717584091123700,4.258123779296875,-1.028594970703125,0.765106201171875,-0.65118408203125
1772717584111156700,4.27815673828125,-1.8405303955078125,0.502716064453125,-0.8217010498046875
1772717584131188700,4.298188720703125,-2.07598876953125,0.4967498779296875,-0.747039794921875
1772717584151220700,4.318220703125,-1.964935302734375,0.4033355712890625,-0.1599578857421875
1772717584171252700,4.338252685546875,-2.356719970703125,0.356048583984375,0.132293701171875
1772717584191285500,4.358285400390625,-3.1027069091796875,0.251373291015625,0.0825347900390625
1772717584211317800,4.37831787109375,-3.4383544921875,0.1904754638671875,-0.1354522705078125
1772717584231349200,4.398349365234375,-3.4210205078125,0.249603271484375,-0.3375091552734375
1772717584251382300,4.41838232421875,-3.0962982177734375,0.058929443359375,-0.128814697265625
1772717584271415300,4.438415283203125,-2.674163818359375,-0.1533966064453125,0.024566650390625
1772717584291447000,4.458447021484375,-2.5539398193359375,-0.080230712890625,-0.1444244384765625
1772717584311479300,4.478479248046875,-2.6482086181640625,0.1811676025390625,-0.4691619873046875
1772717584331512300,4.49851220703125,-2.3726043701171875,0.390777587890625,-0.385589599609375
1772717584351544300,4.51854443359375,-1.7147979736328125,0.3590545654296875,-0.2465667724609375
1772717584371576300,4.538576416015625,-1.21881103515625,0.2887115478515625,-0.17669677734375
1772717584391608300,4.5586083984375,-0.881805419921875,0.24127197265625,-0.1968536376953125
1772717584411641300,4.578641357421875,-0.6409759521484375,0.1758880615234375,-0.2049560546875
1772717584431673300,4.59867333984375,-0.50506591796875,0.1443939208984375,0.0232086181640625
1772717584451705300,4.618705322265625,-0.47100830078125,0.12701416015625,0.195465087890625
1772717584471738400,4.63873828125,-0.4753570556640625,0.150634765625,0.1517181396484375
1772717584491770400,4.658770263671875,-0.4380340576171875,0.0997772216796875,-0.0728607177734375
1772717584511802000,4.678802001953125,-0.404937744140625,0.157806396484375,0.052642822265625
1772717584531834400,4.69883447265625,-0.5732574462890625,0.157562255859375,0.209686279296875
1772717584551867100,4.7188671875,-0.5582275390625,0.207305908203125,-0.07550048828125
1772717584571899100,4.738899169921875,-0.3177947998046875,0.1043548583984375,-0.1722259521484375
1772717584591931400,4.758931396484375,-0.028961181640625,0.015899658203125,-0.0149993896484375
1772717584611963400,4.77896337890625,-0.00042724609375,0.0016632080078125,0.0050201416015625
1772717584631996200,4.79899609375,-0.0028533935546875,0.0005950927734375,0.0051727294921875
1772717584652028400,4.8190283203125,-0.002288818359375,0.00067138671875,0.0047607421875
1772717584672060200,4.83906005859375,-0.004791259765625,0.000640869140625,0.005859375
1772717584692092200,4.859092041015625,-0.0040283203125,0.000396728515625,0.005126953125
1772717584712125200,4.879125244140625,-0.0059814453125,0.0002899169921875,0.005340576171875
1772717584732157200,4.8991572265625,0.4913177490234375,-0.0330352783203125,-0.10748291015625
1772717584752189200,4.919189208984375,-3.00982666015625,-0.614837646484375,-0.4665374755859375
1772717584772222200,4.93922216796875,-2.7078704833984375,-0.1165313720703125,-0.2224273681640625
1772717584792254200,4.959254150390625,-2.5837249755859375,0.1881561279296875,-0.4212188720703125
1772717584812286500,4.979286376953125,-2.06317138671875,-0.1062164306640625,-0.3285675048828125
1772717584832318200,4.999318115234375,-1.8128509521484375,-0.315277099609375,-0.3562774658203125
1772717584852351200,5.019351318359375,-1.7684173583984375,-0.209503173828125,-0.26177978515625
1772717584872383200,5.03938330078125,-1.7212677001953125,0.0087127685546875,-0.36212158203125
1772717584892415200,5.059415283203125,-1.5700836181640625,0.1738739013671875,-0.1454620361328125
1772717584912447200,5.079447265625,-1.1211090087890625,0.1383819580078125,0.000762939453125
1772717584932480300,5.099480224609375,-0.55340576171875,-0.0068511962890625,-0.003570556640625
1772717584952512300,5.11951220703125,-0.17755126953125,-0.00457763671875,0.014312744140625
1772717584972544300,5.139544189453125,-0.0327606201171875,0.01678466796875,-0.066009521484375
1772717584992577300,5.159577392578125,-0.0039215087890625,0.017181396484375,0.00433349609375
1772717585012609300,5.179609375,-0.0020751953125,0.019195556640625,0.0030975341796875
1772717585032641300,5.199641357421875,-0.000640869140625,0.0191650390625,0.0037841796875
1772717585052673300,5.21967333984375,-0.0023345947265625,0.0199737548828125,0.0027313232421875
1772717585072706300,5.239706298828125,-0.0021514892578125,0.01934814453125,0.0032196044921875
1772717585092738000,5.259738037109375,-0.00408935546875,0.0182952880859375,0.00244140625
1772717585112770300,5.279770263671875,-0.0055999755859375,0.019195556640625,0.002166748046875
1772717585132802300,5.29980224609375,-0.0056915283203125,0.0195159912109375,0.0027313232421875
1772717585152835300,5.31983544921875,0.0248260498046875,1.9096221923828125,0.194183349609375
1772717585172867300,5.339867431640625,-2.5842437744140625,-0.3634490966796875,-0.0220794677734375
1772717585192899300,5.3598994140625,-2.1919708251953125,0.739501953125,-0.422637939453125
1772717585212931000,5.37993115234375,-1.883270263671875,0.551544189453125,0.27752685546875
1772717585232964900,5.39996484375,-1.5189666748046875,-0.4320220947265625,0.49334716796875
1772717585252996900,5.419996826171875,-0.2950286865234375,-0.520111083984375,0.1130828857421875
1772717585273028900,5.44002880859375,-0.5362396240234375,-0.492340087890625,-0.0225677490234375
1772717585293061600,5.4600615234375,-1.73260498046875,-0.8438568115234375,-0.120513916015625
1772717585313094000,5.480093994140625,-1.9816741943359375,-0.085479736328125,-0.1202545166015625
1772717585333126000,5.5001259765625,-2.19482421875,-0.0944671630859375,-0.0218048095703125
1772717585353157600,5.52015771484375,-1.6810760498046875,-0.2353057861328125,-0.0553131103515625
1772717585373191000,5.54019091796875,-1.116668701171875,-0.3974456787109375,-0.2987060546875
1772717585393223000,5.560222900390625,-1.0836944580078125,-0.4130096435546875,-0.332275390625
1772717585413254700,5.580254638671875,-1.102752685546875,-0.2776336669921875,-0.3144378662109375
1772717585433287000,5.600286865234375,-0.8950653076171875,-0.187652587890625,-0.2346343994140625
1772717585453319700,5.620319580078125,-0.5923614501953125,-0.1612396240234375,-0.286376953125
1772717585473352000,5.64035205078125,-0.3915557861328125,-0.1561737060546875,-0.27392578125
1772717585493384000,5.660384033203125,-0.3397674560546875,-0.01092529296875,-0.181396484375
1772717585513416000,5.680416015625,-0.536651611328125,0.063934326171875,-0.2034912109375
1772717585533449000,5.700448974609375,-0.470062255859375,0.1221923828125,-0.13555908203125
1772717585553481000,5.72048095703125,-0.2784881591796875,0.086212158203125,-0.062255859375
1772717585573512700,5.7405126953125,0.0028076171875,-0.0037078857421875,0.0019073486328125
1772717585593546000,5.7605458984375,-0.0040283203125,0.003021240234375,0.003875732421875
1772717585613577700,5.78057763671875,-0.0035858154296875,0.0029296875,0.003509521484375
1772717585633609700,5.800609619140625,-0.0059814453125,0.0033721923828125,0.0036773681640625
1772717585653642000,5.82064208984375,-0.006256103515625,0.002716064453125,0.003631591796875
1772717585673674800,5.8406748046875,-0.00732421875,0.002716064453125,0.0026702880859375
1772717585693706800,5.860706787109375,-0.1134490966796875,-0.194000244140625,-0.0427093505859375
1772717585713739000,5.880739013671875,-1.7180328369140625,-0.19610595703125,-0.2600555419921875
1772717585733770800,5.900770751953125,-1.4799652099609375,0.1974639892578125,-0.1927032470703125
1772717585753804000,5.920803955078125,-1.2909698486328125,0.2539825439453125,-0.1140899658203125
1772717585773835800,5.940835693359375,-1.0028228759765625,0.1102294921875,-0.0142059326171875
1772717585793867800,5.96086767578125,-0.8143310546875,0.05902099609375,0.1389617919921875
1772717585813899800,5.980899658203125,-0.9343109130859375,0.0747222900390625,0.156402587890625
1772717585833932800,6.000932861328125,-1.04681396484375,0.127197265625,0.034271240234375
1772717585853964800,6.02096484375,-1.1166839599609375,0.15447998046875,0.1223602294921875
1772717585873996800,6.040996826171875,-1.2667236328125,0.1169281005859375,0.1495819091796875
1772717585894029800,6.06102978515625,-1.588653564453125,0.1661834716796875,0.0559539794921875
1772717585914061800,6.081061767578125,-1.9804840087890625,0.264495849609375,-0.02203369140625
1772717585934094000,6.101093994140625,-2.29052734375,0.3570556640625,-0.15069580078125
1772717585954125800,6.121125732421875,-2.7310333251953125,0.4809112548828125,-0.18310546875
1772717585974158800,6.141158935546875,-3.03076171875,0.5475616455078125,-0.2478179931640625
1772717585994190800,6.16119091796875,-3.0657958984375,0.5924072265625,-0.2461700439453125
1772717586014222800,6.181222900390625,-2.7510223388671875,0.509765625,-0.120574951171875
1772717586034254800,6.2012548828125,-2.672393798828125,0.367034912109375,-0.2001800537109375
1772717586054288000,6.221287841796875,-2.9525146484375,0.4161529541015625,-0.39208984375
1772717586074320000,6.24131982421875,-3.2694549560546875,0.6497650146484375,-0.3143157958984375
1772717586094352000,6.261351806640625,-3.061859130859375,0.7578887939453125,-0.0598297119140625
1772717586114384000,6.2813837890625,-2.6596221923828125,0.9049224853515625,-0.039154052734375
1772717586134417000,6.3014169921875,-2.2664031982421875,1.016571044921875,-0.096649169921875
1772717586154448600,6.32144873046875,-2.0600433349609375,1.061492919921875,-0.1153717041015625
1772717586174481000,6.34148095703125,-1.69976806640625,1.004669189453125,-0.07568359375
1772717586194514000,6.361513916015625,-1.240203857421875,0.860015869140625,-0.12408447265625
1772717586214545400,6.38154541015625,-0.810150146484375,0.5532379150390625,-0.1682586669921875
1772717586234577400,6.401577392578125,-0.5521392822265625,0.3374176025390625,-0.1124114990234375
1772717586254609700,6.421609619140625,-0.37506103515625,0.2779693603515625,-0.0950775146484375
1772717586274642400,6.441642333984375,-0.3228912353515625,0.231536865234375,-0.0089263916015625
1772717586294674400,6.46167431640625,-0.3980255126953125,0.1104583740234375,0.044586181640625
1772717586314706700,6.481706787109375,-0.37921142578125,0.1563262939453125,-0.1672821044921875
1772717586334738400,6.501738525390625,-0.2375946044921875,0.1159210205078125,-0.1408233642578125
1772717586354771500,6.521771484375,-0.2275390625,0.0844268798828125,-0.07745361328125
1772717586374803500,6.541803466796875,-0.198822021484375,0.1029052734375,-0.062469482421875
1772717586394835500,6.56183544921875,-0.19989013671875,0.2142181396484375,-0.041351318359375
1772717586414867500,6.581867431640625,-0.160675048828125,0.272369384765625,-0.0502777099609375
1772717586434900500,6.601900390625,-0.1298828125,0.105712890625,-0.0587615966796875
1772717586454932500,6.621932373046875,-0.07000732421875,0.0154266357421875,-0.039276123046875
1772717586474964500,6.641964599609375,0.0016021728515625,-0.000396728515625,0.0037994384765625
1772717586494996500,6.66199658203125,-0.0028076171875,0.000335693359375,0.0033416748046875
1772717586515029500,6.682029541015625,-0.00238037109375,0.001861572265625,0.0031280517578125
1772717586535061200,6.702061279296875,-0.00323486328125,0.0002288818359375,0.002349853515625
1772717586555093500,6.722093505859375,-0.0012054443359375,0.0009307861328125,0.0039825439453125
1772717586575126500,6.74212646484375,-0.0030059814453125,0.0004730224609375,0.003570556640625
1772717586595158500,6.762158447265625,-0.00286865234375,0.00115966796875,0.00311279296875
1772717586615190500,6.7821904296875,-0.005035400390625,0.0017242431640625,0.00335693359375
1772717586635222500,6.802222412109375,-0.0073089599609375,0.001190185546875,0.0043792724609375
1772717586655255600,6.822255615234375,-0.0635833740234375,0.0051727294921875,0.0147705078125
1772717586675287600,6.84228759765625,-1.7996978759765625,0.2989044189453125,0.1901092529296875
1772717586695319300,6.8623193359375,-1.7369384765625,-0.338134765625,-0.203582763671875
1772717586715351600,6.8823515625,-0.0428314208984375,-0.0003662109375,0.0052642822265625
1772717586735384600,6.902384521484375,-0.8928375244140625,-0.2130889892578125,-0.1854705810546875
1772717586755416300,6.922416259765625,-1.0625762939453125,-0.612640380859375,-0.19293212890625
1772717586775448600,6.942448486328125,-0.64935302734375,-0.159332275390625,-0.0090484619140625
1772717586795480600,6.96248046875,-0.372802734375,-0.0034942626953125,0.04339599609375
1772717586815513300,6.982513427734375,-0.2664031982421875,-0.00897216796875,0.104034423828125
1772717586835545600,7.002545654296875,-0.2366180419921875,-0.1937255859375,0.161712646484375
1772717586855577300,7.022577392578125,-0.2535858154296875,-0.08544921875,0.05865478515625
1772717586875610600,7.042610595703125,-0.4400482177734375,-0.0686187744140625,-0.170318603515625
1772717586895642600,7.062642578125,-0.444305419921875,-0.1152191162109375,-0.193023681640625
1772717586915674400,7.08267431640625,-0.63385009765625,0.0624847412109375,-0.3958587646484375
1772717586935706400,7.102706298828125,-0.497650146484375,0.110015869140625,-0.230926513671875
1772717586955739400,7.122739501953125,-0.196075439453125,0.093536376953125,-0.0694122314453125
1772717586975771400,7.142771484375,-0.279541015625,0.2353668212890625,-0.05706787109375
1772717586995803600,7.1628037109375,-0.4667510986328125,0.47930908203125,-0.014404296875
1772717587015835600,7.182835693359375,-0.840728759765625,-0.19879150390625,-0.0196380615234375
1772717587035868400,7.202868408203125,-1.161163330078125,-0.4721221923828125,-0.023773193359375
1772717587055900700,7.222900634765625,-0.659515380859375,-0.0425872802734375,0.1535491943359375
1772717587075932400,7.242932373046875,-1.110687255859375,0.395782470703125,-0.050750732421875
1772717587095964400,7.26296435546875,-2.7738037109375,1.0897369384765625,-0.6068572998046875
1772717587115997400,7.28299755859375,-3.612945556640625,1.07830810546875,-0.2172393798828125
1772717587136029400,7.303029541015625,-3.2127227783203125,0.476531982421875,0.25
1772717587156061400,7.3230615234375,-3.059326171875,0.286285400390625,-0.1554412841796875
1772717587176093700,7.34309375,-3.34765625,0.239959716796875,-0.003265380859375
1772717587196126500,7.36312646484375,-2.8091888427734375,0.0985260009765625,0.0952911376953125
1772717587216158700,7.38315869140625,-2.2201080322265625,-0.098724365234375,-0.011505126953125
1772717587236190700,7.403190673828125,-2.028228759765625,0.1442108154296875,-0.5261383056640625
1772717587256223700,7.4232236328125,-1.9950714111328125,0.169921875,-0.2218475341796875
1772717587276255700,7.443255859375,-1.5972442626953125,0.21661376953125,-0.1684417724609375
1772717587296287700,7.463287841796875,-1.5225677490234375,0.1628265380859375,-0.2250823974609375
1772717587316319700,7.48331982421875,-1.60107421875,0.44598388671875,-0.40777587890625
1772717587336352800,7.503352783203125,-1.6245574951171875,0.6004486083984375,-0.4208831787109375
1772717587356384800,7.523384765625,-1.5511016845703125,0.5780029296875,-0.333282470703125
1772717587376416800,7.543416748046875,-1.311614990234375,0.4814910888671875,-0.284149169921875
1772717587396448500,7.563448486328125,-1.0731048583984375,0.409423828125,-0.418914794921875
1772717587416481800,7.583481689453125,-0.747344970703125,0.348602294921875,-0.40325927734375
1772717587436513500,7.603513427734375,-0.4062042236328125,0.2203369140625,-0.24993896484375
1772717587456545800,7.6235458984375,-0.1227264404296875,0.147705078125,-0.1251983642578125
1772717587476577800,7.643577880859375,-0.0391998291015625,0.05010986328125,-0.0404510498046875
1772717587496610600,7.663610595703125,-0.0238494873046875,0.0388031005859375,-0.001190185546875
1772717587516642800,7.683642822265625,-0.0028839111328125,0.0279083251953125,0.00579833984375
1772717587536674800,7.7036748046875,-0.0039825439453125,0.0271148681640625,0.006072998046875
1772717587556706600,7.72370654296875,-0.0041351318359375,0.0270843505859375,0.0064697265625
1772717587576739800,7.74373974609375,-0.0057830810546875,0.0263519287109375,0.0057373046875
1772717587596771800,7.763771728515625,-0.005462646484375,0.02581787109375,0.0070037841796875
1772717587616803600,7.783803466796875,-0.00799560546875,0.197021484375,0.0899505615234375
1772717587636836900,7.8038369140625,0.193115234375,0.1599578857421875,0.03369140625
1772717587656868600,7.82386865234375,-0.0094451904296875,0.0014190673828125,0.0225372314453125
1772717587676900600,7.843900634765625,-1.8667755126953125,-0.4875335693359375,0.123046875
1772717587696932900,7.863932861328125,-1.49273681640625,-0.144012451171875,0.187530517578125
1772717587716965600,7.883965576171875,-1.6458282470703125,-0.1042633056640625,0.1801910400390625
1772717587736998000,7.903997802734375,-1.704315185546875,-0.0152587890625,0.212982177734375
1772717587757030000,7.92402978515625,-1.828216552734375,-0.0753021240234375,0.2265472412109375
1772717587777061600,7.9440615234375,-1.6580657958984375,-0.1776580810546875,0.047607421875
1772717587797095000,7.964094970703125,-1.8163299560546875,-0.028472900390625,-0.332427978515625
1772717587817126700,7.984126708984375,-2.24267578125,0.1314239501953125,-0.1484375
1772717587837157600,8.00415771484375,-2.0746307373046875,0.2727813720703125,0.034088134765625
1772717587857189600,8.024189697265625,-1.6644287109375,0.231292724609375,0.004669189453125
1772717587877222700,8.04422265625,-1.2913818359375,0.1972808837890625,0.0059967041015625
1772717587897254700,8.064254638671875,-1.033538818359375,0.1346282958984375,-0.0346832275390625
1772717587917286700,8.08428662109375,-0.739776611328125,0.1420745849609375,-0.131378173828125
1772717587937319700,8.104319580078124,-0.6690826416015625,0.1841583251953125,-0.525604248046875
1772717587957351700,8.1243515625,-0.505340576171875,0.058990478515625,-0.4981231689453125
1772717587977383700,8.1443837890625,-0.3951416015625,0.07537841796875,-0.1929473876953125
1772717587997415700,8.164415771484375,-0.2779541015625,0.092437744140625,-0.1093597412109375
1772717588017448700,8.18444873046875,-0.651519775390625,0.1064300537109375,-0.1414794921875
1772717588037480700,8.204480712890625,-0.6519927978515625,0.1976776123046875,-0.1643218994140625
1772717588057512700,8.2245126953125,-0.35235595703125,0.403411865234375,-0.2801055908203125
1772717588077544700,8.244544677734375,-0.93743896484375,0.3902435302734375,-0.22515869140625
1772717588097577700,8.26457763671875,-1.1646881103515625,0.2029876708984375,-0.4365386962890625
1772717588117609700,8.284609619140625,-1.172607421875,0.0536956787109375,-0.443389892578125
1772717588137641700,8.304641845703125,-1.4014434814453125,-0.0164031982421875,-0.2798614501953125
1772717588157673700,8.324673828125,-1.3409423828125,-0.0147247314453125,-0.165130615234375
1772717588177706800,8.344706787109375,-1.1089324951171875,-0.03729248046875,-0.3023681640625
1772717588197738800,8.36473876953125,-1.21417236328125,0.270751953125,-0.27032470703125
1772717588217770200,8.384770263671875,-1.4262847900390625,0.149139404296875,-0.2954254150390625
1772717588237802500,8.404802490234376,-1.3789215087890625,-0.048095703125,-0.19281005859375
1772717588257838600,8.424838623046876,-1.118499755859375,-0.1029815673828125,0.1545562744140625
1772717588277870300,8.444870361328125,-1.1068267822265625,-0.1602935791015625,0.083831787109375
1772717588297902300,8.46490234375,-1.0260467529296875,-0.1533660888671875,-0.1622467041015625
1772717588317935400,8.484935302734375,-0.9139862060546875,-0.1836090087890625,-0.2315826416015625
1772717588337967400,8.50496728515625,-0.937774658203125,-0.1721038818359375,-0.0288543701171875
1772717588357999400,8.524999267578124,-1.0773773193359375,-0.2256622314453125,0.0796661376953125
1772717588378031600,8.545031494140625,-1.1431884765625,-0.1584320068359375,0.01971435546875
1772717588398064400,8.565064453125,-1.0538330078125,-0.0597991943359375,-0.1027679443359375
1772717588418096400,8.585096435546875,-0.910491943359375,-0.065277099609375,-0.135284423828125
1772717588438128400,8.60512841796875,-0.7779083251953125,-0.11761474609375,-0.1119232177734375
1772717588458160400,8.625160400390625,-0.7598724365234375,-0.1685638427734375,-0.0516510009765625
1772717588478193400,8.645193359375,-0.7754364013671875,-0.2444610595703125,-0.0908355712890625
1772717588498225400,8.665225341796875,-0.839141845703125,-0.2361907958984375,-0.17999267578125
1772717588518257400,8.68525732421875,-0.9627532958984375,-0.194122314453125,-0.1523590087890625
1772717588538290400,8.70529052734375,-0.9998931884765625,-0.1591033935546875,-0.0590972900390625
1772717588558322400,8.725322509765626,-0.9774169921875,-0.173980712890625,-0.086334228515625
1772717588578354400,8.7453544921875,-0.9835052490234375,-0.1757965087890625,-0.1651458740234375
1772717588598386200,8.76538623046875,-1.029541015625,-0.1808929443359375,-0.2256317138671875
1772717588618419500,8.78541943359375,-1.080902099609375,-0.1645965576171875,-0.2023468017578125
1772717588638451500,8.805451416015625,-1.070648193359375,-0.127655029296875,-0.209747314453125
1772717588658483500,8.8254833984375,-1.0238037109375,-0.2003936767578125,-0.2279815673828125
1772717588678515500,8.845515380859375,-0.835540771484375,-0.2712554931640625,-0.157257080078125
1772717588698548200,8.86554833984375,-0.8042755126953125,-0.287994384765625,-0.128387451171875
1772717588718580500,8.88558056640625,-0.8271484375,-0.3054962158203125,-0.1072235107421875
1772717588738612500,8.905612548828126,-0.847442626953125,-0.2939453125,-0.0772857666015625
1772717588758644200,8.925644287109375,-0.828826904296875,-0.2828826904296875,-0.043670654296875
1772717588778677500,8.945677490234376,-0.8695831298828125,-0.314666748046875,-0.0101776123046875
1772717588798709500,8.96570947265625,-0.928741455078125,-0.2552642822265625,-0.063446044921875
1772717588818741200,8.9857412109375,-0.9899749755859375,-0.2752685546875,-0.1307830810546875
1772717588838774500,9.0057744140625,-0.99920654296875,-0.2800750732421875,-0.155914306640625
1772717588858806300,9.02580615234375,-1.0241851806640625,-0.2645263671875,-0.1866455078125
1772717588878838300,9.04583837890625,-1.028564453125,-0.23028564453125,-0.1454620361328125
1772717588898870500,9.06587060546875,-0.993133544921875,-0.28131103515625,-0.098968505859375
1772717588918903300,9.0859033203125,-0.9869232177734375,-0.3139801025390625,-0.04345703125
1772717588938935300,9.105935302734375,-0.979461669921875,-0.3226318359375,-0.0331878662109375
1772717588958967600,9.125967529296876,-0.979278564453125,-0.3257293701171875,-0.029327392578125
1772717588978999300,9.145999267578125,-0.981842041015625,-0.3230438232421875,0.0055694580078125
1772717588999032600,9.166032470703126,-0.986907958984375,-0.35791015625,0.0249786376953125
1772717589019064300,9.186064208984375,-0.96435546875,-0.3700103759765625,0.056976318359375
1772717589039096300,9.206096435546876,-0.9351043701171875,-0.3881683349609375,0.0786285400390625
1772717589059128300,9.22612841796875,-0.9319000244140625,-0.4093780517578125,0.0781097412109375
1772717589079161300,9.246161376953125,-0.9528961181640625,-0.4207611083984375,0.1051025390625
1772717589099193300,9.266193359375,-0.9819488525390625,-0.44012451171875,0.073394775390625
1772717589119225600,9.2862255859375,-0.971832275390625,-0.4877471923828125,0.017974853515625
1772717589139257300,9.30625732421875,-0.916961669921875,-0.47723388671875,-0.0374298095703125
1772717589159290400,9.326290283203125,-0.9158935546875,-0.4568023681640625,-0.0250244140625
1772717589179322400,9.346322265625,-0.9816131591796875,-0.4208221435546875,0.0163421630859375
1772717589199354400,9.366354248046875,-0.986968994140625,-0.37921142578125,0.0254058837890625
1772717589219387100,9.38638720703125,-0.941253662109375,-0.357177734375,0.0276641845703125
1772717589239419000,9.4064189453125,-0.8673553466796875,-0.3530120849609375,-0.0003204345703125
1772717589259451000,9.426450927734376,-0.865203857421875,-0.310943603515625,-0.0462646484375
1772717589279483100,9.446483154296875,-0.69342041015625,-0.4344635009765625,0.0005645751953125
1772717589299516000,9.466515869140625,-0.63165283203125,-0.57989501953125,0.0591278076171875
1772717589319548000,9.4865478515625,-0.875396728515625,-0.4774627685546875,0.056884765625
1772717589339580200,9.506580078125,-1.061737060546875,-0.3294525146484375,0.0751495361328125
