time,seconds_elapsed,z,y,x
1772717579904381200,0.071381103515625,0.5890699028968811,0.6853915452957153,-2.277029037475586
1772717579924413200,0.0914130859375,1.4139007329940796,0.8408942222595215,-1.8542428016662598
1772717579944445200,0.111445068359375,1.5834848880767822,0.7426026463508606,-0.6819294095039368
1772717579964477200,0.131477294921875,1.6265817880630493,0.06292370706796646,0.6769019365310669
1772717579984510200,0.15151025390625,1.9632408618927002,0.15851934254169464,1.4961955547332764
1772717580004542200,0.171542236328125,1.8280526399612427,1.4214732646942139,1.6507371664047241
1772717580024574200,0.19157421875,0.6697640419006348,1.5823203325271606,1.616994023323059
1772717580044607200,0.211607177734375,-0.3342617154121399,1.0539380311965942,1.2490265369415283
1772717580064639200,0.23163916015625,-1.1721129417419434,0.8120602965354919,0.9925432205200195
1772717580084671200,0.251671142578125,-1.3241902589797974,-0.03399866074323654,1.539755940437317
1772717580104703200,0.271703125,-1.2855108976364136,-1.8891587257385254,2.6675539016723633
1772717580124736300,0.291736328125,-1.511629343032837,-4.252607822418213,3.2125144004821777
1772717580144768300,0.311768310546875,-1.7448650598526,-6.428108215332031,3.029169797897339
1772717580164800300,0.33180029296875,-1.4484928846359253,-7.25614070892334,1.7112390995025635
1772717580184833300,0.351833251953125,-0.6947432160377502,-3.44209885597229,-1.9218624830245972
1772717580204865300,0.371865234375,-0.48130014538764954,0.8704394698143005,-3.082589626312256
1772717580224897000,0.39189697265625,-0.4436093270778656,3.3703298568725586,-3.0287320613861084
1772717580244929300,0.41192919921875,0.3723835051059723,2.3811264038085938,-1.6210589408874512
1772717580264962300,0.43196240234375,0.22871077060699463,2.228248119354248,-0.4055635333061218
1772717580284994000,0.451994140625,-0.3869676887989044,1.0082813501358032,0.5579001307487488
1772717580305026300,0.4720263671875,-0.8454217314720154,0.04422658681869507,0.3049159348011017
1772717580325059000,0.49205908203125,-0.8294896483421326,-0.5754501819610596,-1.1804015636444092
1772717580345091300,0.51209130859375,-0.9177601933479309,-0.05607939511537552,-2.3097355365753174
1772717580365123300,0.532123291015625,-0.7672832608222961,0.9546434283256531,-2.362208127975464
1772717580385155300,0.5521552734375,-0.6179842948913574,0.8069841861724854,-1.5778571367263794
1772717580405188400,0.572188232421875,-0.8110789060592651,0.1282983273267746,-0.970504879951477
1772717580425220400,0.592220458984375,-1.045761227607727,-0.17513234913349152,-0.47021836042404175
1772717580445252000,0.612252197265625,-0.9231345653533936,-0.22702287137508392,-0.1701645851135254
1772717580465285400,0.632285400390625,-0.5167558789253235,0.057875245809555054,-0.21684397757053375
1772717580485317000,0.652317138671875,0.021896136924624443,0.5592091679573059,-0.3553122580051422
1772717580505349000,0.67234912109375,0.27456697821617126,1.0849262475967407,-0.06528278440237045
1772717580525381400,0.69238134765625,0.2536764144897461,0.5493247509002686,0.6464083790779114
1772717580545414100,0.7124140625,-0.12651902437210083,-0.8233169913291931,1.1576577425003052
1772717580565446100,0.732446044921875,-0.2650463283061981,-2.016402006149292,1.3881587982177734
1772717580585478400,0.752478515625,-0.2384432852268219,-2.263096570968628,1.4523158073425293
1772717580605511200,0.77251123046875,-0.27868399024009705,-2.2725768089294434,1.4408878087997437
1772717580625543200,0.792543212890625,-0.31522440910339355,-2.27375864982605,1.4313973188400269
1772717580645575200,0.8125751953125,-0.3496267795562744,-2.279759407043457,1.417628526687622
1772717580665607200,0.832607177734375,-0.3888017535209656,-2.288473129272461,1.3996412754058838
1772717580685640400,0.852640380859375,-0.5909340381622314,1.7526843547821045,1.2905412912368774
1772717580705672200,0.872672119140625,-1.8551398515701294,0.4265933930873871,-2.935105800628662
1772717580725704200,0.8927041015625,-1.485207438468933,1.772360920906067,-2.5029709339141846
1772717580745737200,0.9127373046875,-0.7717921137809753,1.6770187616348267,0.2642952501773834
1772717580765769200,0.932769287109375,-0.2971082925796509,1.8623837232589722,0.00817034114152193
1772717580785801200,0.95280126953125,0.21294377744197845,1.8574316501617432,-0.39100968837738037
1772717580805833200,0.972833251953125,-0.23740974068641663,-0.15219540894031525,-0.4324388802051544
1772717580825866200,0.9928662109375,-0.9477760195732117,-0.4837978780269623,-0.13782911002635956
1772717580845898200,1.012898193359375,-1.2852544784545898,0.2728879153728485,0.2762708365917206
1772717580865930200,1.03293017578125,-1.6058861017227173,0.20017066597938538,0.8075166344642639
1772717580885963300,1.05296337890625,-2.0850672721862793,-0.6593518853187561,0.899893045425415
1772717580905995000,1.0729951171875,-2.3992600440979004,-1.384474754333496,0.7136749625205994
1772717580926027300,1.09302734375,-2.3044936656951904,-1.3544187545776367,0.8897867202758789
1772717580946059300,1.113059326171875,-2.1495847702026367,-0.6826571822166443,1.6641738414764404
1772717580966092000,1.133092041015625,-1.9364956617355347,-0.5099650621414185,1.904693365097046
1772717580986124300,1.153124267578125,-1.5795849561691284,-0.5804985165596008,1.5550246238708496
1772717581006156300,1.17315625,-1.4606348276138306,-0.812691330909729,0.6981209516525269
1772717581026189300,1.193189208984375,-1.429791808128357,0.06381645798683167,-0.1725904643535614
1772717581046221300,1.21322119140625,-1.4996991157531738,-0.3245583772659302,-0.5931759476661682
1772717581066253300,1.23325341796875,-1.5410469770431519,-1.0005815029144287,-0.28563371300697327
1772717581086285000,1.25328515625,-1.5996965169906616,-1.2435568571090698,0.16486898064613342
1772717581106318300,1.273318359375,-1.7602020502090454,-0.8974565863609314,0.47008371353149414
1772717581126350000,1.29335009765625,-1.8699705600738525,-0.5420015454292297,0.7560777068138123
1772717581146382300,1.31338232421875,-1.8045028448104858,-0.3733324408531189,1.1083569526672363
1772717581166415000,1.3334150390625,-1.7441999912261963,-0.27937135100364685,1.3369686603546143
1772717581186447000,1.353447021484375,-1.8597465753555298,-0.11053042858839035,1.4063745737075806
1772717581206479000,1.37347900390625,-1.9297446012496948,-0.1140521913766861,1.4482802152633667
1772717581226511000,1.393510986328125,-1.916431188583374,-0.3069438934326172,1.4658229351043701
1772717581246544100,1.413544189453125,-2.1721456050872803,-3.4408533573150635,-0.1079806387424469
1772717581266576100,1.433576171875,-2.3143999576568604,-4.176844596862793,-1.0489542484283447
1772717581286608000,1.45360791015625,-2.4898624420166016,-2.148076057434082,-2.346708059310913
1772717581306641200,1.47364111328125,-2.0860347747802734,-0.8061831593513489,-4.3253326416015625
1772717581326673200,1.493673095703125,-1.3405638933181763,-0.4696720242500305,-3.2823288440704346
1772717581346705000,1.513704833984375,-0.7034223079681396,0.7898920774459839,-2.8248353004455566
1772717581366737200,1.533737060546875,-1.060921311378479,0.5771708488464355,-3.5538547039031982
1772717581386770000,1.55377001953125,-1.3561675548553467,-0.18920955061912537,-3.932178020477295
1772717581406802000,1.573802001953125,-1.1944851875305176,-0.4411475658416748,-4.389440536499023
1772717581426834200,1.593834228515625,-0.7402762770652771,0.16110949218273163,-3.8462870121002197
1772717581446866000,1.613865966796875,-0.5265179872512817,0.8780111074447632,-2.8936986923217773
1772717581466899000,1.63389892578125,-0.7650120258331299,0.6836323738098145,-2.0420119762420654
1772717581486931200,1.65393115234375,-1.055477499961853,0.18705011904239655,-1.0143330097198486
1772717581506963000,1.673962890625,-1.230823040008545,0.00955231860280037,0.15781450271606445
1772717581526996200,1.693996337890625,-1.4339779615402222,-0.10393201559782028,1.2294583320617676
1772717581547028000,1.714028076171875,-1.910404920578003,0.1596970558166504,2.083000898361206
1772717581567060000,1.73406005859375,-2.2638943195343018,0.19645148515701294,2.561521291732788
1772717581587092000,1.754092041015625,-2.261953830718994,-0.2913002669811249,2.683624029159546
1772717581607125000,1.774125,-1.9772008657455444,-0.9160749912261963,2.398329973220825
1772717581627157000,1.794156982421875,-1.6207748651504517,-1.0407721996307373,1.8668580055236816
1772717581647189000,1.81418896484375,-1.3792076110839844,-0.5699542760848999,1.4102779626846313
1772717581667222000,1.834221923828125,-1.1584372520446777,0.04348030313849449,1.3616889715194702
1772717581687254000,1.85425390625,-1.0161516666412354,0.01656697876751423,1.233860969543457
1772717581707286000,1.8742861328125,-0.798151969909668,-0.14685143530368805,0.9476619362831116
1772717581727318000,1.894318115234375,-0.6786690950393677,-0.15135179460048676,0.6251683235168457
1772717581747351000,1.91435107421875,-0.7271518707275391,0.12888938188552856,0.41553860902786255
1772717581767383000,1.934383056640625,-0.8518567681312561,0.21546655893325806,0.49380016326904297
1772717581787415000,1.9544150390625,-0.8984829187393188,-0.08793184161186218,0.5334023237228394
1772717581807447000,1.974447021484375,-0.8871058225631714,-0.10723341256380081,0.5417102575302124
1772717581827480000,1.99447998046875,-0.8877652883529663,-0.11346222460269928,0.5400362014770508
1772717581847512000,2.014511962890625,-0.8869354724884033,-0.12457292526960373,0.536744236946106
1772717581867543800,2.034543701171875,-0.8861829042434692,-0.13438208401203156,0.5373305678367615
1772717581887577000,2.0545771484375,-0.8866907358169556,-0.1437912881374359,0.5311599969863892
1772717581907609000,2.074609130859375,-0.8929219245910645,-0.15644437074661255,0.5329827666282654
1772717581927640800,2.094640869140625,-0.8908640742301941,-0.16837990283966064,0.5307914614677429
1772717581947673000,2.114673095703125,-0.8909317851066589,-0.18414922058582306,0.5231071710586548
1772717581967705900,2.134705810546875,-0.9542900919914246,-0.5712339282035828,0.27682554721832275
1772717581987738000,2.154738037109375,-0.8945791125297546,-3.053318738937378,-1.8837288618087769
1772717582007770000,2.17477001953125,-0.6893680095672607,0.7179118990898132,-2.0158674716949463
1772717582027802000,2.194802001953125,-0.8371960520744324,0.7234576344490051,-3.0195746421813965
1772717582047835100,2.214835205078125,-1.2077183723449707,1.1587809324264526,-3.057589292526245
1772717582067867100,2.2348671875,-1.1138893365859985,1.4682880640029907,-2.138612747192383
1772717582087899000,2.25489892578125,-0.8379441499710083,0.9134827256202698,-1.9001158475875854
1772717582107932200,2.27493212890625,-1.1423563957214355,-0.5901225209236145,-2.407349109649658
1772717582127964000,2.2949638671875,-1.268917202949524,-1.3581750392913818,-2.7037041187286377
1772717582147996000,2.314995849609375,-1.1610835790634155,1.0311726331710815,-3.084606409072876
1772717582168028200,2.335028076171875,-0.7898799777030945,2.559504985809326,-3.0459907054901123
1772717582188061000,2.35506103515625,-0.5275362133979797,2.238654136657715,-2.8383541107177734
1772717582208094000,2.375093994140625,-0.4526346027851105,1.292136311531067,-2.6152570247650146
1772717582228126000,2.3951259765625,-0.5819311738014221,0.14218004047870636,-1.6578258275985718
1772717582248158000,2.415157958984375,-0.7575971484184265,-0.49706315994262695,0.09486577659845352
1772717582268191000,2.43519091796875,-1.0850220918655396,0.00013103149831295013,1.3349080085754395
1772717582288223000,2.455222900390625,-1.488146185874939,0.48346343636512756,2.1421306133270264
1772717582308255000,2.4752548828125,-1.9124274253845215,0.4145704507827759,2.7192530632019043
1772717582328288000,2.4952880859375,-2.215008020401001,0.10179737210273743,3.0270073413848877
1772717582348320000,2.515320068359375,-2.2475812435150146,0.009402350522577763,3.176656723022461
1772717582368352000,2.53535205078125,-1.9070887565612793,-0.10080330073833466,3.002401113510132
1772717582388383700,2.5553837890625,-1.6733169555664062,-0.22286126017570496,2.568894863128662
1772717582408417000,2.5754169921875,-1.7148340940475464,-0.032415419816970825,2.2390644550323486
1772717582428449000,2.595448974609375,-1.5535787343978882,0.29193586111068726,1.9835137128829956
1772717582448481000,2.61548095703125,-1.6335103511810303,0.1949368268251419,1.4592479467391968
1772717582468513000,2.635512939453125,-1.5734401941299438,0.060711320489645004,1.0794028043746948
1772717582488545800,2.6555458984375,-1.3259400129318237,0.3458707630634308,1.0075900554656982
1772717582508578000,2.675578125,-1.1077256202697754,0.32277950644493103,0.9591473937034607
1772717582528610000,2.695610107421875,-1.0158131122589111,-0.05076178163290024,0.8507365584373474
1772717582548642800,2.715642822265625,-1.013717770576477,-0.19171135127544403,0.8219249844551086
1772717582568675000,2.735675048828125,-1.0164556503295898,-0.2100452482700348,0.8203540444374084
1772717582588707000,2.75570703125,-1.0169742107391357,-0.2306147962808609,0.8175306916236877
1772717582608738800,2.77573876953125,-1.0194190740585327,-0.25244760513305664,0.8142123222351074
1772717582628772000,2.795772216796875,-1.0209321975708008,-0.2774540185928345,0.8138028979301453
1772717582648803800,2.815803955078125,-1.0225204229354858,-0.2983191907405853,0.8140368461608887
1772717582668835800,2.8358359375,-1.0262982845306396,-0.32289546728134155,0.8055432438850403
1772717582688868000,2.8558681640625,-1.0309338569641113,-0.3511904776096344,0.8000563383102417
1772717582708900900,2.87590087890625,-1.0324519872665405,-0.38010373711586,0.7884652614593506
1772717582728933000,2.89593310546875,-0.6459223628044128,-10.069567680358887,-5.2465338706970215
1772717582748965000,2.915965087890625,-0.7791061401367188,2.9062201976776123,-5.732415676116943
1772717582768998000,2.935997802734375,-0.43024006485939026,1.5879870653152466,-4.667074203491211
1772717582789030100,2.956030029296875,-0.20157434046268463,2.098623752593994,-2.226553201675415
1772717582809062000,2.976061767578125,-0.31713441014289856,-0.2500375509262085,-1.951549768447876
1772717582829094000,2.996093994140625,-0.2851366400718689,-1.0865869522094727,-2.71628737449646
1772717582849127200,3.016127197265625,0.08241217583417892,-1.4129118919372559,-3.70385479927063
1772717582869159000,3.036158935546875,0.4685187339782715,-0.9736643433570862,-3.7830560207366943
1772717582889191000,3.05619091796875,0.4776313602924347,0.22996722161769867,-3.0979270935058594
1772717582909223200,3.07622314453125,0.5254470705986023,0.9292068481445312,-2.351433753967285
1772717582929256000,3.096255859375,0.6304592490196228,0.45705920457839966,-1.540928602218628
1772717582949288000,3.116287841796875,0.5550443530082703,-0.08300772309303284,-1.4157068729400635
1772717582969320000,3.13631982421875,0.17644883692264557,0.3507860600948334,-1.2393028736114502
1772717582989353000,3.15635302734375,-0.018672121688723564,1.2016032934188843,-0.2836458683013916
1772717583009385000,3.176385009765625,0.24593116343021393,1.058948278427124,0.5817939639091492
1772717583029417000,3.1964169921875,0.2541017532348633,-0.011337211355566978,1.2451262474060059
1772717583049449000,3.216448974609375,-0.10960857570171356,-0.17072521150112152,2.002823829650879
1772717583069482000,3.23648193359375,-0.22734150290489197,0.45308127999305725,2.863943099975586
1772717583089514000,3.256513916015625,-0.018704529851675034,0.4351836144924164,3.5981526374816895
1772717583109546000,3.2765458984375,-0.07035936415195465,-0.2197202742099762,4.093419551849365
1772717583129578000,3.296577880859375,-0.45645493268966675,-0.34211376309394836,4.404578685760498
1772717583149611000,3.316611083984375,-0.7405936121940613,-0.29702866077423096,4.119616508483887
1772717583169643000,3.33664306640625,-0.9722194075584412,-0.1618199497461319,3.7089357376098633
1772717583189675000,3.356675048828125,-1.009021282196045,-0.0618700236082077,3.426074981689453
1772717583209707800,3.376707763671875,-1.1458097696304321,-0.5560450553894043,2.7372663021087646
1772717583229739800,3.39673974609375,-1.356299877166748,-0.9856934547424316,1.9274948835372925
1772717583249771800,3.416771728515625,-1.5162084102630615,-0.864706814289093,1.6512795686721802
1772717583269803800,3.4368037109375,-1.6261175870895386,-1.2244831323623657,1.7303645610809326
1772717583289836500,3.45683642578125,-1.5390599966049194,-1.7312748432159424,1.5213823318481445
1772717583309868800,3.476868896484375,-1.44157075881958,-1.1384626626968384,1.1307109594345093
1772717583329900800,3.49690087890625,-1.7562336921691895,-0.5160015225410461,0.47818616032600403
1772717583349932500,3.5169326171875,-1.9178224802017212,-0.41733551025390625,-0.23382797837257385
1772717583369965800,3.5369658203125,-1.8536549806594849,-0.9553931355476379,-1.0563173294067383
1772717583389997800,3.556997802734375,-1.2644797563552856,-1.3335905075073242,-1.4317706823349
1772717583410029600,3.577029541015625,-0.8702914118766785,-1.1978634595870972,-1.249503493309021
1772717583430062800,3.597062744140625,-0.7399994730949402,-1.6393734216690063,-1.1826421022415161
1772717583450094600,3.617094482421875,-0.6008359789848328,-1.7563247680664062,-1.1816327571868896
1772717583470126600,3.637126708984375,-0.29422780871391296,0.3838784396648407,-1.2770419120788574
1772717583490158800,3.657158935546875,-0.8232418298721313,0.016508709639310837,-1.70795738697052
1772717583510191600,3.677191650390625,-1.1058259010314941,-1.9709112644195557,-1.4479981660842896
1772717583530223900,3.697223876953125,-1.1715023517608643,-1.1586617231369019,-0.41052648425102234
1772717583550255900,3.717255859375,-1.0998151302337646,-0.44994550943374634,-0.33764350414276123
1772717583570287600,3.73728759765625,-1.6416298151016235,-0.9772055149078369,-1.006256103515625
1772717583590321000,3.75732080078125,-1.5574519634246826,-1.170237421989441,-0.7054574489593506
1772717583610352600,3.7773525390625,-0.9660071730613708,-1.2305538654327393,0.26777201890945435
1772717583630384600,3.797384521484375,-0.6383371353149414,-1.0772864818572998,1.0682766437530518
1772717583650416600,3.817416748046875,-0.48941826820373535,-0.33596447110176086,1.1037436723709106
1772717583670449700,3.83744970703125,-0.4640006721019745,0.6541145443916321,0.6866591572761536
1772717583690481700,3.857481689453125,-0.5244571566581726,0.67823326587677,0.2055622637271881
1772717583710514000,3.877513916015625,-0.6292956471443176,0.7523598670959473,-0.04572894796729088
1772717583730546700,3.897546630859375,-0.5899875164031982,0.571742057800293,-0.09584492444992065
1772717583750578700,3.91757861328125,-0.4159761071205139,0.7612816691398621,0.10913114994764328
1772717583770610700,3.937610595703125,-0.2160521298646927,0.5556689500808716,0.1477806568145752
1772717583790642700,3.957642578125,-0.15158206224441528,0.12000267207622528,-0.18218861520290375
1772717583810675700,3.97767578125,-0.1457718461751938,-0.4089149534702301,-0.7268681526184082
1772717583830704600,3.99770458984375,-0.24060992896556854,0.03220491111278534,-0.7894734740257263
1772717583850736600,4.017736572265625,-0.13583727180957794,0.7248767018318176,-0.5884042978286743
1772717583870769000,4.037768798828125,-0.5801019668579102,-0.5941634178161621,-0.7496379613876343
1772717583890801700,4.0578017578125,-0.5147711634635925,-1.5234729051589966,-0.7399927377700806
1772717583910834000,4.077833984375,-0.018564755097031593,-0.43482285737991333,-0.3446725308895111
1772717583930865700,4.09786572265625,0.383055716753006,0.9400123953819275,0.04050939530134201
1772717583950897700,4.117897705078125,0.6670387983322144,1.6033916473388672,0.17703744769096375
1772717583970930700,4.1379306640625,0.7917576432228088,1.1531516313552856,-0.045223601162433624
1772717583990962700,4.157962646484375,0.6344883441925049,-0.08978728950023651,-0.6453679800033569
1772717584010994700,4.17799462890625,-0.21068064868450165,-0.18658505380153656,-0.9918904304504395
1772717584031027700,4.19802783203125,-0.1962236613035202,-0.5653279423713684,-0.6926454901695251
1772717584051059700,4.218059814453125,0.5388717651367188,0.594576358795166,-0.5872928500175476
1772717584071091700,4.238091796875,0.8873978853225708,0.6320812702178955,-2.4491829872131348
1772717584091123700,4.258123779296875,-0.027872847393155098,0.6447276473045349,-3.940985679626465
1772717584111156700,4.27815673828125,-0.8963668346405029,0.6246989965438843,-3.90938138961792
1772717584131188700,4.298188720703125,-1.6543221473693848,1.5704904794692993,-3.548978328704834
1772717584151220700,4.318220703125,-1.834983229637146,1.6695021390914917,-3.7867748737335205
1772717584171252700,4.338252685546875,-1.8216201066970825,0.22716350853443146,-4.153234004974365
1772717584191285500,4.358285400390625,-1.4202735424041748,-1.0573911666870117,-3.094115734100342
1772717584211317800,4.37831787109375,-1.1685832738876343,-0.8101478815078735,-1.2935457229614258
1772717584231349200,4.398349365234375,-1.212631344795227,0.2770175635814667,0.3164602518081665
1772717584251382300,4.41838232421875,-0.9136075973510742,0.8088469505310059,1.0324044227600098
1772717584271415300,4.438415283203125,-0.8081209063529968,-0.050685279071331024,1.268518328666687
1772717584291447000,4.458447021484375,-1.077484369277954,-0.4015273153781891,1.689536213874817
1772717584311479300,4.478479248046875,-1.5560153722763062,-0.1419699490070343,2.7564656734466553
1772717584331512300,4.49851220703125,-1.4967930316925049,0.4202272295951843,3.7891829013824463
1772717584351544300,4.51854443359375,-1.3584376573562622,0.46996253728866577,3.8794121742248535
1772717584371576300,4.538576416015625,-1.3822040557861328,0.053366467356681824,3.7238004207611084
1772717584391608300,4.5586083984375,-1.4705674648284912,0.4590071737766266,3.316509962081909
1772717584411641300,4.578641357421875,-1.6058365106582642,1.169668197631836,2.537454843521118
1772717584431673300,4.59867333984375,-1.336382269859314,1.1320675611495972,2.0080316066741943
1772717584451705300,4.618705322265625,-0.7264102101325989,0.71053147315979,1.6072784662246704
1772717584471738400,4.63873828125,-0.10498375445604324,1.0214154720306396,0.9405173063278198
1772717584491770400,4.658770263671875,0.09124122560024261,1.5315624475479126,-0.0948876366019249
1772717584511802000,4.678802001953125,-0.08654587715864182,-0.14015081524848938,-0.587949275970459
1772717584531834400,4.69883447265625,-0.03567168861627579,-1.3804600238800049,0.04365915432572365
1772717584551867100,4.7188671875,0.05916181579232216,-1.0102976560592651,0.7942337989807129
1772717584571899100,4.738899169921875,0.08367462456226349,-0.24941310286521912,1.021541714668274
1772717584591931400,4.758931396484375,0.09669448435306549,-0.13250401616096497,0.9965959191322327
1772717584611963400,4.77896337890625,0.09257948398590088,-0.14120842516422272,0.9935805201530457
1772717584631996200,4.79899609375,0.08975553512573242,-0.13984227180480957,0.9968453049659729
1772717584652028400,4.8190283203125,0.0882890373468399,-0.13890573382377625,0.9957999587059021
1772717584672060200,4.83906005859375,0.08812234550714493,-0.13365881145000458,0.9947518110275269
1772717584692092200,4.859092041015625,0.0862789899110794,-0.1297065168619156,0.9911837577819824
1772717584712125200,4.879125244140625,0.08273179084062576,-0.12824775278568268,0.9813045263290405
1772717584732157200,4.8991572265625,1.5867385864257812,-7.750255107879639,-6.67629337310791
1772717584752189200,4.919189208984375,-0.8441053032875061,3.2562639713287354,-6.780584335327148
1772717584772222200,4.93922216796875,-0.919819712638855,-0.807974100112915,-1.675614356994629
1772717584792254200,4.959254150390625,-1.8249313831329346,1.9635227918624878,2.3464596271514893
1772717584812286500,4.979286376953125,-1.1654661893844604,0.17387130856513977,0.32988685369491577
1772717584832318200,4.999318115234375,-1.2087922096252441,0.7536095380783081,0.06265673786401749
1772717584852351200,5.019351318359375,-1.9299906492233276,-1.1379016637802124,0.5210493803024292
1772717584872383200,5.03938330078125,-2.570188045501709,-1.6343492269515991,1.1151068210601807
1772717584892415200,5.059415283203125,-2.3714959621429443,-1.1327319145202637,2.13045072555542
1772717584912447200,5.079447265625,-1.8602607250213623,-0.6776801943778992,2.504096269607544
1772717584932480300,5.099480224609375,-1.8748514652252197,-0.927935004234314,1.861281394958496
1772717584952512300,5.11951220703125,-2.0738322734832764,-1.5882493257522583,1.1938800811767578
1772717584972544300,5.139544189453125,-2.239917516708374,-1.8026988506317139,0.8819002509117126
1772717584992577300,5.159577392578125,-2.264486312866211,-1.8259809017181396,0.7992801666259766
1772717585012609300,5.179609375,-2.2805540561676025,-1.85739266872406,0.7226822972297668
1772717585032641300,5.199641357421875,-2.297229766845703,-1.8816685676574707,0.6384625434875488
1772717585052673300,5.21967333984375,-2.310056209564209,-1.9031193256378174,0.5473006367683411
1772717585072706300,5.239706298828125,-2.320950984954834,-1.92988121509552,0.45846113562583923
1772717585092738000,5.259738037109375,-2.3316845893859863,-1.9525233507156372,0.3621314764022827
1772717585112770300,5.279770263671875,-2.3406293392181396,-1.970702052116394,0.2683602571487427
1772717585132802300,5.29980224609375,-2.3447866439819336,-1.9836703538894653,0.14790357649326324
1772717585152835300,5.31983544921875,-1.2803905010223389,7.139461994171143,-12.958703994750977
1772717585172867300,5.339867431640625,-1.626740574836731,3.5332822799682617,-6.617415904998779
1772717585192899300,5.3598994140625,-2.5744831562042236,1.5734957456588745,-0.6886628270149231
1772717585212931000,5.37993115234375,-2.135430335998535,0.5418668985366821,3.947892665863037
1772717585232964900,5.39996484375,-0.982690691947937,-4.341992378234863,3.7412266731262207
1772717585252996900,5.419996826171875,-1.9319026470184326,-1.573188304901123,-0.705636739730835
1772717585273028900,5.44002880859375,-1.874570369720459,-0.40194961428642273,-2.8895139694213867
1772717585293061600,5.4600615234375,-1.5975801944732666,0.9199808835983276,-2.304431438446045
1772717585313094000,5.480093994140625,-1.8387815952301025,0.03099994733929634,-1.0185786485671997
1772717585333126000,5.5001259765625,-1.811689019203186,-1.4817136526107788,1.1271250247955322
1772717585353157600,5.52015771484375,-1.4939372539520264,-1.8178496360778809,1.5505523681640625
1772717585373191000,5.54019091796875,-1.577741265296936,-1.2436141967773438,0.2340652495622635
1772717585393223000,5.560222900390625,-1.5849034786224365,-0.553114116191864,-0.3573401868343353
1772717585413254700,5.580254638671875,-1.4515223503112793,-0.6352059245109558,-0.10962755978107452
1772717585433287000,5.600286865234375,-1.577331781387329,-0.918320894241333,0.12208903580904007
1772717585453319700,5.620319580078125,-1.84724760055542,-1.237966537475586,-0.07687178254127502
1772717585473352000,5.64035205078125,-1.8426403999328613,-1.1011844873428345,-0.7041239142417908
1772717585493384000,5.660384033203125,-1.519248604774475,-0.003969196230173111,-1.2872989177703857
1772717585513416000,5.680416015625,-1.1923394203186035,0.6472223401069641,-1.1405774354934692
1772717585533449000,5.700448974609375,-1.080163598060608,-0.07421309500932693,-0.5941010117530823
1772717585553481000,5.72048095703125,-1.2047488689422607,-0.499174565076828,-0.05518369376659393
1772717585573512700,5.7405126953125,-1.2367113828659058,-0.5512189865112305,-0.011400077491998672
1772717585593546000,5.7605458984375,-1.2392051219940186,-0.5539577603340149,-0.02233075723052025
1772717585613577700,5.78057763671875,-1.2410272359848022,-0.5645891427993774,-0.03585019335150719
1772717585633609700,5.800609619140625,-1.239808440208435,-0.5772854685783386,-0.05373053997755051
1772717585653642000,5.82064208984375,-1.2393231391906738,-0.5914897918701172,-0.06939250230789185
1772717585673674800,5.8406748046875,-1.232092261314392,-0.6468801498413086,-0.10428978502750397
1772717585693706800,5.860706787109375,0.10383628308773041,-4.923686981201172,-5.103301525115967
1772717585713739000,5.880739013671875,-0.723116934299469,0.8898380994796753,-5.197140216827393
1772717585733770800,5.900770751953125,-0.47583329677581787,-0.25724560022354126,-3.3486645221710205
1772717585753804000,5.920803955078125,-0.36150678992271423,0.6011525392532349,-2.0834436416625977
1772717585773835800,5.940835693359375,-0.1238919347524643,1.9211238622665405,-2.614891529083252
1772717585793867800,5.96086767578125,0.00005610845983028412,2.115147113800049,-3.14121150970459
1772717585813899800,5.980899658203125,-0.1882617473602295,1.041146993637085,-3.048670530319214
1772717585833932800,6.000932861328125,-0.5157048106193542,0.6674973964691162,-2.9818503856658936
1772717585853964800,6.02096484375,-0.4419216811656952,0.6711475849151611,-3.126099109649658
1772717585873996800,6.040996826171875,-0.05927582085132599,0.8305186033248901,-2.884052038192749
1772717585894029800,6.06102978515625,0.023880766704678535,0.6297664046287537,-2.51979660987854
1772717585914061800,6.081061767578125,0.12319999188184738,0.24662800133228302,-1.7076326608657837
1772717585934094000,6.101093994140625,0.26948997378349304,0.31501805782318115,-1.5248119831085205
1772717585954125800,6.121125732421875,0.3435823619365692,0.7152301669120789,-0.9472658634185791
1772717585974158800,6.141158935546875,0.186635822057724,0.5988626480102539,0.7591679096221924
1772717585994190800,6.16119091796875,-0.040194083005189896,0.19032645225524902,2.443382978439331
1772717586014222800,6.181222900390625,0.027630701661109924,-0.2505504786968231,2.7208003997802734
1772717586034254800,6.2012548828125,-0.07401371002197266,-0.19477342069149017,2.727280616760254
1772717586054288000,6.221287841796875,-0.5476788282394409,0.4340575933456421,3.101013660430908
1772717586074320000,6.24131982421875,-0.6924691200256348,0.9032014608383179,4.2020978927612305
1772717586094352000,6.261351806640625,-0.25820180773735046,0.7667027115821838,5.15761137008667
1772717586114384000,6.2813837890625,-0.1743081957101822,-0.042370717972517014,5.590900897979736
1772717586134417000,6.3014169921875,-0.27303022146224976,-0.4862547516822815,5.580480098724365
1772717586154448600,6.32144873046875,-0.31312069296836853,-0.2991875410079956,5.661859512329102
1772717586174481000,6.34148095703125,-0.2966023087501526,-0.5005975365638733,5.564952373504639
1772717586194514000,6.361513916015625,-0.538476288318634,-1.0691980123519897,5.033297538757324
1772717586214545400,6.38154541015625,-1.0942444801330566,-1.6440156698226929,4.162577152252197
1772717586234577400,6.401577392578125,-1.527566909790039,-1.567703127861023,3.2963738441467285
1772717586254609700,6.421609619140625,-1.564776062965393,-0.9248579144477844,2.3088104724884033
1772717586274642400,6.441642333984375,-1.0785871744155884,-0.34012067317962646,1.3125451803207397
1772717586294674400,6.46167431640625,-0.6483290195465088,0.4589669406414032,0.837490975856781
1772717586314706700,6.481706787109375,-0.8053562045097351,0.5642422437667847,0.6017172932624817
1772717586334738400,6.501738525390625,-1.29551100730896,-0.17784753441810608,0.14397449791431427
1772717586354771500,6.521771484375,-1.3604875802993774,-1.3365792036056519,-0.04336346313357353
1772717586374803500,6.541803466796875,-0.988673746585846,-1.091004490852356,-0.0933869406580925
1772717586394835500,6.56183544921875,-0.5151016712188721,0.04800647869706154,-0.37728917598724365
1772717586414867500,6.581867431640625,-0.28332242369651794,-0.10546514391899109,-0.9459266066551208
1772717586434900500,6.601900390625,-0.3009721636772156,-0.651974618434906,-1.0038163661956787
1772717586454932500,6.621932373046875,-0.3954389691352844,-1.0095226764678955,-0.8500362038612366
1772717586474964500,6.641964599609375,-0.3877062499523163,-1.0026665925979614,-0.8529815077781677
1772717586494996500,6.66199658203125,-0.375114768743515,-0.9978815317153931,-0.8606206178665161
1772717586515029500,6.682029541015625,-0.36639443039894104,-0.9926814436912537,-0.8667888641357422
1772717586535061200,6.702061279296875,-0.35862278938293457,-0.9842289090156555,-0.875285804271698
1772717586555093500,6.722093505859375,-0.34735608100891113,-0.9769230484962463,-0.885814905166626
1772717586575126500,6.74212646484375,-0.34005752205848694,-0.9662047028541565,-0.8953032493591309
1772717586595158500,6.762158447265625,-0.33236274123191833,-0.9568760395050049,-0.9118825197219849
1772717586615190500,6.7821904296875,-0.31788894534111023,-0.9529348611831665,-0.9269165992736816
1772717586635222500,6.802222412109375,-0.30612313747406006,-0.9483478665351868,-0.9415087103843689
1772717586655255600,6.822255615234375,-0.11981645226478577,0.858524739742279,0.11570294946432114
1772717586675287600,6.84228759765625,0.7174930572509766,10.50755786895752,3.986644983291626
1772717586695319300,6.8623193359375,1.4685345888137817,0.6527063250541687,-0.9678349494934082
1772717586715351600,6.8823515625,1.4742321968078613,-0.2583520710468292,-0.999376654624939
1772717586735384600,6.902384521484375,0.7416577935218811,-0.6331154108047485,0.5034716725349426
1772717586755416300,6.922416259765625,-0.11992861330509186,-1.245675802230835,-0.22091709077358246
1772717586775448600,6.942448486328125,-0.09645690768957138,-0.5151480436325073,-0.018307290971279144
1772717586795480600,6.96248046875,0.272359162569046,0.06423872709274292,0.0804264172911644
1772717586815513300,6.982513427734375,0.5189839601516724,0.19942913949489594,0.003454867284744978
1772717586835545600,7.002545654296875,0.9241102933883667,-0.6606346368789673,-0.5562959909439087
1772717586855577300,7.022577392578125,1.153116226196289,-0.49853086471557617,-0.9589932560920715
1772717586875610600,7.042610595703125,0.8945990800857544,0.3141286373138428,-0.4716810882091522
1772717586895642600,7.062642578125,0.851900041103363,0.543786346912384,0.13747180998325348
1772717586915674400,7.08267431640625,0.5913698673248291,1.7869292497634888,0.9841025471687317
1772717586935706400,7.102706298828125,0.3683713674545288,2.5917890071868896,1.6229240894317627
1772717586955739400,7.122739501953125,0.4436000883579254,2.9768223762512207,1.4104384183883667
1772717586975771400,7.142771484375,0.6185482740402222,3.435187339782715,-0.04615351930260658
1772717586995803600,7.1628037109375,-0.3179014027118683,-0.15991057455539703,-2.9328126907348633
1772717587015835600,7.182835693359375,-0.7037916779518127,-3.6774590015411377,-3.819493293762207
1772717587035868400,7.202868408203125,-0.844319760799408,-2.298621654510498,-4.127285957336426
1772717587055900700,7.222900634765625,0.1083066537976265,-1.6098787784576416,-6.587912559509277
1772717587075932400,7.242932373046875,0.6226796507835388,0.12270353734493256,-10.075305938720703
1772717587095964400,7.26296435546875,-1.097411036491394,0.48018234968185425,-9.707218170166016
1772717587115997400,7.28299755859375,-2.019744873046875,0.20635442435741425,-5.976062774658203
1772717587136029400,7.303029541015625,-1.1731451749801636,0.08504490554332733,-4.451779365539551
1772717587156061400,7.3230615234375,-1.5187709331512451,1.002989649772644,-4.792779922485352
1772717587176093700,7.34309375,-1.7019801139831543,-0.1099468320608139,-2.2673115730285645
1772717587196126500,7.36312646484375,-1.5175392627716064,-1.301724910736084,-0.4813849925994873
1772717587216158700,7.38315869140625,-1.2182728052139282,-0.6563836336135864,-0.04609389975667
1772717587236190700,7.403190673828125,-1.3229825496673584,0.8688926100730896,0.3763427436351776
1772717587256223700,7.4232236328125,-1.3533796072006226,1.2316023111343384,1.4201163053512573
1772717587276255700,7.443255859375,-1.084555983543396,0.181147500872612,1.7374944686889648
1772717587296287700,7.463287841796875,-0.8999176621437073,-0.3627776503562927,1.4686747789382935
1772717587316319700,7.48331982421875,-0.9279771447181702,0.06820877641439438,1.5628633499145508
1772717587336352800,7.503352783203125,-0.8853691220283508,0.6742268800735474,1.9129316806793213
1772717587356384800,7.523384765625,-0.9506927132606506,0.5381826758384705,2.390632152557373
1772717587376416800,7.543416748046875,-0.9861969947814941,-0.5290224552154541,2.8116824626922607
1772717587396448500,7.563448486328125,-1.2800647020339966,-0.9829791784286499,3.1730945110321045
1772717587416481800,7.583481689453125,-1.479729413986206,-0.7383917570114136,3.2893099784851074
1772717587436513500,7.603513427734375,-1.560508370399475,-0.6107217073440552,3.144357204437256
1772717587456545800,7.6235458984375,-1.4309002161026,-0.9236133694648743,2.7663159370422363
1772717587476577800,7.643577880859375,-1.372255802154541,-0.8195123672485352,2.535268545150757
1772717587496610600,7.663610595703125,-1.3385396003723145,-0.5701209306716919,2.4708259105682373
1772717587516642800,7.683642822265625,-1.3462151288986206,-0.6126563549041748,2.455275535583496
1772717587536674800,7.7036748046875,-1.3645305633544922,-0.6759071946144104,2.440072774887085
1772717587556706600,7.72370654296875,-1.3791072368621826,-0.7427501678466797,2.4188950061798096
1772717587576739800,7.74373974609375,-1.4016910791397095,-0.8007094264030457,2.3983821868896484
1772717587596771800,7.763771728515625,-1.420781135559082,-0.8570454716682434,2.3719868659973145
1772717587616803600,7.783803466796875,-0.7664907574653625,2.412463903427124,-0.1973082572221756
1772717587636836900,7.8038369140625,0.15267404913902283,1.8849332332611084,-3.375096082687378
1772717587656868600,7.82386865234375,0.546660304069519,2.6271588802337646,-4.876532077789307
1772717587676900600,7.843900634765625,0.5702992081642151,3.1965529918670654,-4.733325958251953
1772717587696932900,7.863932861328125,0.7008183598518372,1.6875439882278442,-3.336574077606201
1772717587716965600,7.883965576171875,0.3416181802749634,-0.37716352939605713,-3.0642926692962646
1772717587736998000,7.903997802734375,0.6141132712364197,-1.0336825847625732,-2.5963473320007324
1772717587757030000,7.92402978515625,1.523956060409546,-0.38414832949638367,-1.953220248222351
1772717587777061600,7.9440615234375,2.075828790664673,0.5223722457885742,-2.2573652267456055
1772717587797095000,7.964094970703125,1.4683974981307983,0.7595837116241455,-2.6259942054748535
1772717587817126700,7.984126708984375,0.9300422072410583,-0.3301684856414795,-1.372887134552002
1772717587837157600,8.00415771484375,1.1293519735336304,-1.4464125633239746,0.1940125823020935
1772717587857189600,8.024189697265625,1.1586787700653076,-1.8530044555664062,0.9480035901069641
1772717587877222700,8.04422265625,1.2712674140930176,-1.5940755605697632,1.0989782810211182
1772717587897254700,8.064254638671875,1.115752100944519,-1.3215758800506592,1.075160026550293
1772717587917286700,8.08428662109375,0.5979219675064087,-1.109717845916748,0.7798959016799927
1772717587937319700,8.104319580078124,-0.4341958165168762,-0.9616711735725403,0.36917799711227417
1772717587957351700,8.1243515625,-1.3947778940200806,-1.1360893249511719,0.19092044234275818
1772717587977383700,8.1443837890625,-1.554278016090393,-1.2966023683547974,0.022048890590667725
1772717587997415700,8.164415771484375,-1.5420283079147339,-1.714672327041626,-0.09601297229528427
1772717588017448700,8.18444873046875,-1.6667537689208984,1.0410761833190918,0.9830371141433716
1772717588037480700,8.204480712890625,-1.554661750793457,4.24908971786499,2.163505792617798
1772717588057512700,8.2245126953125,-0.9246498942375183,1.8484646081924438,-0.15544795989990234
1772717588077544700,8.244544677734375,-0.47766679525375366,1.6995395421981812,-1.4013242721557617
1772717588097577700,8.26457763671875,-0.7520973086357117,3.3030571937561035,-1.2122325897216797
1772717588117609700,8.284609619140625,-1.0844457149505615,3.4390079975128174,-0.06223838031291962
1772717588137641700,8.304641845703125,-0.3158290386199951,2.3416738510131836,1.6096446514129639
1772717588157673700,8.324673828125,1.186883807182312,2.468961000442505,1.9199860095977783
1772717588177706800,8.344706787109375,0.8026394844055176,1.5120127201080322,1.1257288455963135
1772717588197738800,8.36473876953125,-0.2814922034740448,0.6839175820350647,0.3134104907512665
1772717588217770200,8.384770263671875,-0.7938992381095886,-0.0214161965996027,1.054402470588684
1772717588237802500,8.404802490234376,-1.0920212268829346,-0.6081689596176147,1.7204227447509766
1772717588257838600,8.424838623046876,-0.9630731344223022,-1.527574896812439,1.8554803133010864
1772717588277870300,8.444870361328125,-0.9869431853294373,-1.8913124799728394,1.8818795680999756
1772717588297902300,8.46490234375,-1.3697893619537354,-1.4584741592407227,1.7150671482086182
1772717588317935400,8.484935302734375,-1.9482403993606567,-0.8650509119033813,1.3229680061340332
1772717588337967400,8.50496728515625,-2.1502702236175537,-0.7844801545143127,0.7434725761413574
1772717588357999400,8.524999267578124,-1.7709029912948608,-0.6527832746505737,0.437700092792511
1772717588378031600,8.545031494140625,-1.4567025899887085,-0.45790138840675354,0.672725260257721
1772717588398064400,8.565064453125,-1.5383628606796265,-0.5841755867004395,1.0744993686676025
1772717588418096400,8.585096435546875,-1.618576169013977,-0.5118614435195923,1.115667700767517
1772717588438128400,8.60512841796875,-1.6765258312225342,-0.5723985433578491,0.8506379723548889
1772717588458160400,8.625160400390625,-1.5324469804763794,-0.5322278738021851,0.5271876454353333
1772717588478193400,8.645193359375,-1.347618579864502,-0.31158700585365295,0.34681084752082825
1772717588498225400,8.665225341796875,-1.2476853132247925,-0.09039667248725891,0.23144550621509552
1772717588518257400,8.68525732421875,-1.1916345357894897,-0.23530328273773193,0.2808957099914551
1772717588538290400,8.70529052734375,-1.0387873649597168,-0.5408651232719421,0.3225591480731964
1772717588558322400,8.725322509765626,-0.9336748719215393,-0.7595012784004211,0.25106281042099
1772717588578354400,8.7453544921875,-0.9260643124580383,-0.7369723320007324,0.1713060438632965
1772717588598386200,8.76538623046875,-1.0652447938919067,-0.637705385684967,0.18884582817554474
1772717588618419500,8.78541943359375,-1.190580129623413,-0.6197234392166138,0.2729329466819763
1772717588638451500,8.805451416015625,-1.3068969249725342,-0.1624155342578888,0.6386246085166931
1772717588658483500,8.8254833984375,-1.4885920286178589,0.08008121699094772,1.202876091003418
1772717588678515500,8.845515380859375,-1.6188697814941406,-0.2271292358636856,0.6873158812522888
1772717588698548200,8.86554833984375,-1.5767614841461182,-0.5304980874061584,0.16505853831768036
1772717588718580500,8.88558056640625,-1.6297553777694702,-0.7283737659454346,-0.1352853775024414
1772717588738612500,8.905612548828126,-1.631729006767273,-0.8810546398162842,-0.2588351368904114
1772717588758644200,8.925644287109375,-1.542797327041626,-1.046829104423523,-0.4881092607975006
1772717588778677500,8.945677490234376,-1.3715572357177734,-1.065827488899231,-0.6557740569114685
1772717588798709500,8.96570947265625,-1.298465371131897,-1.0503835678100586,-0.6665593981742859
1772717588818741200,8.9857412109375,-1.2355282306671143,-0.8801857233047485,-0.580338716506958
1772717588838774500,9.0057744140625,-1.158149003982544,-0.5700876116752625,-0.41717082262039185
1772717588858806300,9.02580615234375,-1.3136541843414307,-0.5361083745956421,-0.12506003677845
1772717588878838300,9.04583837890625,-1.4480901956558228,-0.49203288555145264,0.07191680371761322
1772717588898870500,9.06587060546875,-1.524552345275879,-0.5005059242248535,0.14694686233997345
1772717588918903300,9.0859033203125,-1.4716808795928955,-0.6147932410240173,0.10960886627435684
1772717588938935300,9.105935302734375,-1.3044694662094116,-0.5573960542678833,0.09583999961614609
1772717588958967600,9.125967529296876,-1.1489111185073853,-0.44576296210289,0.15043821930885315
1772717588978999300,9.145999267578125,-0.9938808083534241,-0.37005937099456787,0.19169756770133972
1772717588999032600,9.166032470703126,-0.9008962512016296,-0.317412406206131,0.24175843596458435
1772717589019064300,9.186064208984375,-0.8174925446510315,-0.2636239230632782,0.2542223334312439
1772717589039096300,9.206096435546876,-0.726633608341217,-0.1611400842666626,0.24773819744586945
1772717589059128300,9.22612841796875,-0.6795456409454346,-0.0751434788107872,0.2629360854625702
1772717589079161300,9.246161376953125,-0.6381517648696899,-0.1883217692375183,0.2890391945838928
1772717589099193300,9.266193359375,-0.6157199144363403,-0.13967764377593994,0.3912598192691803
1772717589119225600,9.2862255859375,-0.5889990925788879,0.08901657164096832,0.564701497554779
1772717589139257300,9.30625732421875,-0.5379555821418762,0.41718238592147827,0.43135330080986023
1772717589159290400,9.326290283203125,-0.5277961492538452,0.5556454658508301,0.14604997634887695
1772717589179322400,9.346322265625,-0.5638808608055115,0.46833211183547974,0.11699093133211136
1772717589199354400,9.366354248046875,-0.6061212420463562,0.2819693982601166,0.22233955562114716
1772717589219387100,9.38638720703125,-0.6362898945808411,0.16966930031776428,0.39099323749542236
1772717589239419000,9.4064189453125,-0.6274236440658569,0.030632011592388153,0.43191418051719666
1772717589259451000,9.426450927734376,-0.7191155552864075,0.31849825382232666,1.124621868133545
1772717589279483100,9.446483154296875,-0.9506925344467163,-0.027147062122821808,0.5538977980613708
1772717589299516000,9.466515869140625,-0.9726772904396057,-0.2814008891582489,-0.6549596786499023
1772717589319548000,9.4865478515625,-0.9636980295181274,-0.31629908084869385,-0.7942841053009033
1772717589339580200,9.506580078125,-1.0299179553985596,-0.2587983012199402,-0.10072651505470276
