time,seconds_elapsed,z,y,x
1772717579884348200,0.05134814453125,-0.045330729335546494,0.038785479962825775,-1.838437557220459
1772717579904381200,0.071381103515625,0.5926989912986755,0.7001621127128601,-2.271921157836914
1772717579924413200,0.0914130859375,1.4175292253494263,0.855665385723114,-1.8491339683532715
1772717579944445200,0.111445068359375,1.5871132612228394,0.7573739886283875,-0.6768202781677246
1772717579964477200,0.131477294921875,1.6302101612091064,0.07769506424665451,0.682011067867279
1772717579984510200,0.15151025390625,1.9668691158294678,0.17329081892967224,1.5013048648834229
1772717580004542200,0.171542236328125,1.8316806554794312,1.4362448453903198,1.6558467149734497
1772717580024574200,0.19157421875,0.6733925342559814,1.597091555595398,1.6221028566360474
1772717580044607200,0.211607177734375,-0.3306333124637604,1.0687092542648315,1.2541354894638062
1772717580064639200,0.23163916015625,-1.1684848070144653,0.8268318772315979,0.9976526498794556
1772717580084671200,0.251671142578125,-1.3205620050430298,-0.019227223470807076,1.5448651313781738
1772717580104703200,0.271703125,-1.2818832397460938,-1.8743867874145508,2.672663927078247
1772717580124736300,0.291736328125,-1.5080013275146484,-4.2378363609313965,3.2176239490509033
1772717580144768300,0.311768310546875,-1.7412368059158325,-6.413336753845215,3.0342788696289062
1772717580164800300,0.33180029296875,-1.4448647499084473,-7.241369247436523,1.71634840965271
1772717580184833300,0.351833251953125,-0.6911150813102722,-3.4273273944854736,-1.9167531728744507
1772717580204865300,0.371865234375,-0.477672278881073,0.8852112889289856,-3.077479839324951
1772717580224897000,0.39189697265625,-0.4399819076061249,3.3851020336151123,-3.0236215591430664
1772717580244929300,0.41192919921875,0.37601277232170105,2.3958969116210938,-1.6159512996673584
1772717580264962300,0.43196240234375,0.23233842849731445,2.2430200576782227,-0.4004534184932709
1772717580284994000,0.451994140625,-0.38333994150161743,1.0230532884597778,0.5630100965499878
1772717580305026300,0.4720263671875,-0.8417930006980896,0.058997541666030884,0.3100244402885437
1772717580325059000,0.49205908203125,-0.8258616924285889,-0.5606784820556641,-1.175291895866394
1772717580345091300,0.51209130859375,-0.9141321778297424,-0.041307758539915085,-2.304625988006592
1772717580365123300,0.532123291015625,-0.7636553049087524,0.9694151282310486,-2.357098340988159
1772717580385155300,0.5521552734375,-0.6143555641174316,0.8217551112174988,-1.5727486610412598
1772717580405188400,0.572188232421875,-0.8074515461921692,0.14307060837745667,-0.9653943181037903
1772717580425220400,0.592220458984375,-1.0421329736709595,-0.1603609174489975,-0.46510910987854004
1772717580445252000,0.612252197265625,-0.9195056557655334,-0.21225208044052124,-0.16505633294582367
1772717580465285400,0.632285400390625,-0.5131272077560425,0.07264623790979385,-0.21173541247844696
1772717580485317000,0.652317138671875,0.025524001568555832,0.573980987071991,-0.3502024710178375
1772717580505349000,0.67234912109375,0.27819541096687317,1.099697470664978,-0.06017385795712471
1772717580525381400,0.69238134765625,0.2573050260543823,0.5640958547592163,0.6515170335769653
1772717580545414100,0.7124140625,-0.12289103120565414,-0.8085452914237976,1.1627672910690308
1772717580565446100,0.732446044921875,-0.26141801476478577,-2.0016305446624756,1.3932678699493408
1772717580585478400,0.752478515625,-0.23481570184230804,-2.248324394226074,1.4574260711669922
1772717580605511200,0.77251123046875,-0.27505525946617126,-2.257805824279785,1.4459962844848633
1772717580625543200,0.792543212890625,-0.3115967810153961,-2.258986711502075,1.4365074634552002
1772717580645575200,0.8125751953125,-0.34599947929382324,-2.264986991882324,1.4227391481399536
1772717580665607200,0.832607177734375,-0.3851737976074219,-2.2737014293670654,1.404750943183899
1772717580685640400,0.852640380859375,-0.5873056054115295,1.7674555778503418,1.2956502437591553
1772717580705672200,0.872672119140625,-1.8515115976333618,0.4413648843765259,-2.9299964904785156
1772717580725704200,0.8927041015625,-1.4815796613693237,1.7871328592300415,-2.497860908508301
1772717580745737200,0.9127373046875,-0.7681648135185242,1.6917911767959595,0.26940590143203735
1772717580765769200,0.932769287109375,-0.29348114132881165,1.8771562576293945,0.013281184248626232
1772717580785801200,0.95280126953125,0.21657171845436096,1.8722033500671387,-0.38590002059936523
1772717580805833200,0.972833251953125,-0.23378212749958038,-0.13742336630821228,-0.4273287057876587
1772717580825866200,0.9928662109375,-0.9441478848457336,-0.4690263271331787,-0.13271969556808472
1772717580845898200,1.012898193359375,-1.2816263437271118,0.2876594662666321,0.2813802659511566
1772717580865930200,1.03293017578125,-1.6022576093673706,0.2149418592453003,0.812625527381897
1772717580885963300,1.05296337890625,-2.08143949508667,-0.644580066204071,0.9050028324127197
1772717580905995000,1.0729951171875,-2.39563250541687,-1.3697025775909424,0.718785285949707
1772717580926027300,1.09302734375,-2.30086612701416,-1.3396466970443726,0.894896924495697
1772717580946059300,1.113059326171875,-2.1459569931030273,-0.6678853631019592,1.6692837476730347
1772717580966092000,1.133092041015625,-1.9328677654266357,-0.4951932430267334,1.9098031520843506
1772717580986124300,1.153124267578125,-1.5759564638137817,-0.5657272934913635,1.5601335763931274
1772717581006156300,1.17315625,-1.4570071697235107,-0.7979192733764648,0.7032310962677002
1772717581026189300,1.193189208984375,-1.4261645078659058,0.0785888209939003,-0.16747981309890747
1772717581046221300,1.21322119140625,-1.496071696281433,-0.3097860813140869,-0.5880653858184814
1772717581066253300,1.23325341796875,-1.5374186038970947,-0.9858101010322571,-0.2805246114730835
1772717581086285000,1.25328515625,-1.5960686206817627,-1.2287851572036743,0.16997864842414856
1772717581106318300,1.273318359375,-1.7565739154815674,-0.8826850056648254,0.4751931428909302
1772717581126350000,1.29335009765625,-1.8663430213928223,-0.5272294878959656,0.7611879110336304
1772717581146382300,1.31338232421875,-1.8008750677108765,-0.35856056213378906,1.1134668588638306
1772717581166415000,1.3334150390625,-1.7405719757080078,-0.2645997107028961,1.3420782089233398
1772717581186447000,1.353447021484375,-1.8561185598373413,-0.09575875103473663,1.4114841222763062
1772717581206479400,1.373479248046875,-1.9261165857315063,-0.09928051382303238,1.4533897638320923
1772717581226511000,1.393510986328125,-1.9128026962280273,-0.29217272996902466,1.4709317684173584
1772717581246544100,1.413544189453125,-2.168517827987671,-3.426081418991089,-0.10287072509527206
1772717581266576100,1.433576171875,-2.310772180557251,-4.162072658538818,-1.0438443422317505
1772717581286608000,1.45360791015625,-2.486234426498413,-2.1333043575286865,-2.3415985107421875
1772717581306641200,1.47364111328125,-2.082406759262085,-0.7914115786552429,-4.320223331451416
1772717581326673200,1.493673095703125,-1.336936116218567,-0.4549001455307007,-3.277218818664551
1772717581346705000,1.513704833984375,-0.699794590473175,0.8046640157699585,-2.819725275039673
1772717581366737200,1.533737060546875,-1.0572935342788696,0.5919426679611206,-3.5487449169158936
1772717581386770000,1.55377001953125,-1.3525398969650269,-0.17443758249282837,-3.927067995071411
1772717581406802000,1.573802001953125,-1.1908572912216187,-0.4263758063316345,-4.384330749511719
1772717581426834200,1.593834228515625,-0.7366489768028259,0.17588181793689728,-3.8411765098571777
1772717581446866000,1.613865966796875,-0.5228898525238037,0.8927826881408691,-2.888589382171631
1772717581466899000,1.63389892578125,-0.7613844275474548,0.6984044313430786,-2.0369017124176025
1772717581486931200,1.65393115234375,-1.0518503189086914,0.20182260870933533,-1.009222149848938
1772717581506963000,1.673962890625,-1.2271947860717773,0.024323714897036552,0.1629236787557602
1772717581526996200,1.693996337890625,-1.4303503036499023,-0.08915997296571732,1.234568476676941
1772717581547028000,1.714028076171875,-1.9067777395248413,0.17446954548358917,2.088111639022827
1772717581567060000,1.73406005859375,-2.2602665424346924,0.2112232893705368,2.5666310787200928
1772717581587092000,1.754092041015625,-2.2583260536193848,-0.2765282690525055,2.6887340545654297
1772717581607125000,1.774125,-1.973573088645935,-0.9013031721115112,2.40343976020813
1772717581627157000,1.794156982421875,-1.6171480417251587,-1.0259993076324463,1.87196946144104
1772717581647189000,1.81418896484375,-1.3755799531936646,-0.5551822781562805,1.4153881072998047
1772717581667222000,1.834221923828125,-1.1548097133636475,0.05825238674879074,1.366799235343933
1772717581687254000,1.85425390625,-1.0125231742858887,0.03133821487426758,1.2389699220657349
1772717581707286000,1.8742861328125,-0.7945242524147034,-0.13207946717739105,0.9527719616889954
1772717581727318000,1.894318115234375,-0.6750415563583374,-0.13657967746257782,0.6302785873413086
1772717581747351000,1.91435107421875,-0.7235238552093506,0.1436610221862793,0.42064815759658813
1772717581767383000,1.934383056640625,-0.8482279777526855,0.2302374690771103,0.4989086091518402
1772717581787415000,1.9544150390625,-0.8948551416397095,-0.07315996289253235,0.5385122299194336
1772717581807447000,1.974447021484375,-0.8834781050682068,-0.0924614891409874,0.5468202233314514
1772717581827480000,1.99447998046875,-0.8841380476951599,-0.09868982434272766,0.5451469421386719
1772717581847512000,2.014511962890625,-0.883307933807373,-0.1098008006811142,0.5418545007705688
1772717581867543800,2.034543701171875,-0.8825550675392151,-0.11961028724908829,0.5424403548240662
1772717581887577000,2.0545771484375,-0.8830634355545044,-0.12901896238327026,0.5362706184387207
1772717581907609000,2.074609130859375,-0.8892942070960999,-0.14167244732379913,0.5380927324295044
1772717581927640800,2.094640869140625,-0.8872363567352295,-0.15360793471336365,0.5359014868736267
1772717581947673000,2.114673095703125,-0.8873037695884705,-0.16937758028507233,0.5282167196273804
1772717581967705900,2.134705810546875,-0.9506627321243286,-0.5564616322517395,0.28193607926368713
1772717581987738000,2.154738037109375,-0.8909506797790527,-3.0385475158691406,-1.878619909286499
1772717582007770000,2.17477001953125,-0.6857402920722961,0.7326838374137878,-2.0107574462890625
1772717582027802000,2.194802001953125,-0.8335683345794678,0.7382295727729797,-3.0144646167755127
1772717582047835100,2.214835205078125,-1.2040910720825195,1.1735533475875854,-3.052478551864624
1772717582067867100,2.2348671875,-1.1102614402770996,1.4830597639083862,-2.133502960205078
1772717582087899000,2.25489892578125,-0.8343164324760437,0.9282546639442444,-1.8950058221817017
1772717582107932200,2.27493212890625,-1.1387290954589844,-0.5753501057624817,-2.402238368988037
1772717582127964000,2.2949638671875,-1.2652896642684937,-1.3434028625488281,-2.698593854904175
1772717582147996000,2.314995849609375,-1.1574561595916748,1.0459448099136353,-3.079495906829834
1772717582168028200,2.335028076171875,-0.786251962184906,2.5742766857147217,-3.0408811569213867
1772717582188061000,2.35506103515625,-0.5239084959030151,2.2534260749816895,-2.8332440853118896
1772717582208094000,2.375093994140625,-0.4490073621273041,1.3069087266921997,-2.6101462841033936
1772717582228126000,2.3951259765625,-0.57830411195755,0.1569526046514511,-1.6527148485183716
1772717582248158000,2.415157958984375,-0.753970205783844,-0.48229047656059265,0.09997692704200745
1772717582268191000,2.43519091796875,-1.0813946723937988,0.014903315342962742,1.3400185108184814
1772717582288223000,2.455222900390625,-1.4845190048217773,0.49823588132858276,2.1472413539886475
1772717582308255000,2.4752548828125,-1.9087998867034912,0.4293425679206848,2.724363327026367
1772717582328288000,2.4952880859375,-2.2113797664642334,0.11656869202852249,3.032116413116455
1772717582348320000,2.515320068359375,-2.2439534664154053,0.024174312129616737,3.1817667484283447
1772717582368352000,2.53535205078125,-1.9034613370895386,-0.08603101968765259,3.007511615753174
1772717582388383700,2.5553837890625,-1.6696892976760864,-0.20808929204940796,2.574004888534546
1772717582408417000,2.5754169921875,-1.7112066745758057,-0.017643176019191742,2.2441749572753906
1772717582428449000,2.595448974609375,-1.549951434135437,0.30670827627182007,1.9886244535446167
1772717582448481000,2.61548095703125,-1.629882574081421,0.20970875024795532,1.4643579721450806
1772717582468513000,2.635512939453125,-1.569812297821045,0.075483039021492,1.08451247215271
1772717582488545800,2.6555458984375,-1.3223122358322144,0.36064261198043823,1.0126999616622925
1772717582508578000,2.675578125,-1.104097843170166,0.33755141496658325,0.9642573595046997
1772717582528610000,2.695610107421875,-1.012184977531433,-0.03599022328853607,0.8558459877967834
1772717582548642800,2.715642822265625,-1.0100901126861572,-0.17693935334682465,0.8270350694656372
1772717582568675000,2.735675048828125,-1.0128281116485596,-0.19527308642864227,0.8254643678665161
1772717582588707000,2.75570703125,-1.0133463144302368,-0.2158430814743042,0.8226403594017029
1772717582608738800,2.77573876953125,-1.015791893005371,-0.23767514526844025,0.8193231225013733
1772717582628772000,2.795772216796875,-1.0173043012619019,-0.2626822292804718,0.81891268491745
1772717582648803800,2.815803955078125,-1.0188926458358765,-0.2835472822189331,0.8191468119621277
1772717582668835800,2.8358359375,-1.0226703882217407,-0.30812373757362366,0.8106529116630554
1772717582688868000,2.8558681640625,-1.0273064374923706,-0.3364182412624359,0.8051667809486389
1772717582708900900,2.87590087890625,-1.0288246870040894,-0.36533138155937195,0.7935759425163269
1772717582728933000,2.89593310546875,-0.6422945261001587,-10.05479621887207,-5.241424083709717
1772717582748965000,2.915965087890625,-0.7754789590835571,2.920992612838745,-5.727304935455322
1772717582768998000,2.935997802734375,-0.42661231756210327,1.6027590036392212,-4.661964416503906
1772717582789030100,2.956030029296875,-0.1979471743106842,2.113396167755127,-2.221442461013794
1772717582809062000,2.976061767578125,-0.31350624561309814,-0.2352660447359085,-1.9464404582977295
1772717582829094000,2.996093994140625,-0.2815091609954834,-1.071814775466919,-2.711177110671997
1772717582849127200,3.016127197265625,0.08603954315185547,-1.3981395959854126,-3.698744297027588
1772717582869159000,3.036158935546875,0.47214651107788086,-0.9588924646377563,-3.7779459953308105
1772717582889191000,3.05619091796875,0.4812585115432739,0.24473971128463745,-3.0928163528442383
1772717582909223200,3.07622314453125,0.5290742516517639,0.9439792633056641,-2.346323013305664
1772717582929256000,3.096255859375,0.6340861320495605,0.4718319773674011,-1.535817265510559
1772717582949288000,3.116287841796875,0.5586718320846558,-0.06823551654815674,-1.410596489906311
1772717582969320000,3.13631982421875,0.18007628619670868,0.3655582666397095,-1.2341924905776978
1772717582989353000,3.15635302734375,-0.015044462867081165,1.2163753509521484,-0.27853575348854065
1772717583009385000,3.176385009765625,0.2495587021112442,1.0737204551696777,0.5869042277336121
1772717583029417000,3.1964169921875,0.25773006677627563,0.003434146288782358,1.2502353191375732
1772717583049449000,3.216448974609375,-0.10598129034042358,-0.1559528410434723,2.0079345703125
1772717583069482000,3.23648193359375,-0.22371405363082886,0.46785348653793335,2.869053602218628
1772717583089514000,3.256513916015625,-0.015076953917741776,0.44995570182800293,3.6032629013061523
1772717583109546000,3.2765458984375,-0.06673162430524826,-0.20494835078716278,4.09852933883667
1772717583129578000,3.296577880859375,-0.45282793045043945,-0.32734110951423645,4.409689903259277
1772717583149611000,3.316611083984375,-0.7369664311408997,-0.28225618600845337,4.124727249145508
1772717583169643000,3.33664306640625,-0.9685922265052795,-0.1470475047826767,3.7140464782714844
1772717583189675000,3.356675048828125,-1.0053938627243042,-0.047097738832235336,3.431185483932495
1772717583209707800,3.376707763671875,-1.1421825885772705,-0.5412725806236267,2.7423770427703857
1772717583229739800,3.39673974609375,-1.352673053741455,-0.9709206223487854,1.9326062202453613
1772717583249771800,3.416771728515625,-1.5125809907913208,-0.8499345183372498,1.6563900709152222
1772717583269803800,3.4368037109375,-1.6224901676177979,-1.2097108364105225,1.7354750633239746
1772717583289836500,3.45683642578125,-1.5354326963424683,-1.7165024280548096,1.5264930725097656
1772717583309868800,3.476868896484375,-1.437943696975708,-1.123690128326416,1.1358219385147095
1772717583329900800,3.49690087890625,-1.7526057958602905,-0.5012298226356506,0.48329582810401917
1772717583349932500,3.5169326171875,-1.91419517993927,-0.4025631546974182,-0.22871732711791992
1772717583369965800,3.5369658203125,-1.8500282764434814,-0.9406202435493469,-1.0512058734893799
1772717583389997800,3.556997802734375,-1.260852575302124,-1.3188180923461914,-1.4266599416732788
1772717583410029600,3.577029541015625,-0.8666636943817139,-1.1830915212631226,-1.2443934679031372
1772717583430062800,3.597062744140625,-0.7363717555999756,-1.6246014833450317,-1.1775320768356323
1772717583450094600,3.617094482421875,-0.5972082614898682,-1.7415528297424316,-1.1765227317810059
1772717583470126600,3.637126708984375,-0.2906006872653961,0.39865097403526306,-1.2719310522079468
1772717583490158800,3.657158935546875,-0.8196152448654175,0.03128175809979439,-1.7028456926345825
1772717583510191600,3.677191650390625,-1.1021987199783325,-1.9561387300491333,-1.442887306213379
1772717583530223900,3.697223876953125,-1.1678746938705444,-1.1438897848129272,-0.40541645884513855
1772717583550255900,3.717255859375,-1.096187949180603,-0.43517303466796875,-0.332532674074173
1772717583570287600,3.73728759765625,-1.6380022764205933,-0.962433397769928,-1.001145839691162
1772717583590321000,3.75732080078125,-1.553824543952942,-1.1554651260375977,-0.7003468871116638
1772717583610352600,3.7773525390625,-0.9623804092407227,-1.2157809734344482,0.27288347482681274
1772717583630384600,3.797384521484375,-0.6347103714942932,-1.0625135898590088,1.0733880996704102
1772717583650416600,3.817416748046875,-0.4857904016971588,-0.3211926817893982,1.1088534593582153
1772717583670449700,3.83744970703125,-0.4603729248046875,0.6688864827156067,0.6917691230773926
1772717583690481700,3.857481689453125,-0.5208301544189453,0.6930059194564819,0.21067334711551666
1772717583710514000,3.877513916015625,-0.6256687045097351,0.767132580280304,-0.04061773419380188
1772717583730546700,3.897546630859375,-0.5863599181175232,0.5865141153335571,-0.09073469787836075
1772717583750578700,3.91757861328125,-0.4123481512069702,0.7760533690452576,0.11424081772565842
1772717583770610700,3.937610595703125,-0.21242517232894897,0.5704416632652283,0.15289181470870972
1772717583790642700,3.957642578125,-0.1479543149471283,0.1347745954990387,-0.17707863450050354
1772717583810675700,3.97767578125,-0.1421440988779068,-0.3941430449485779,-0.7217581868171692
1772717583830704600,3.99770458984375,-0.23698218166828156,0.046976830810308456,-0.7843635082244873
1772717583850736600,4.017736572265625,-0.13221023976802826,0.7396492958068848,-0.5832932591438293
1772717583870769000,4.037768798828125,-0.5764742493629456,-0.5793914794921875,-0.7445279359817505
1772717583890801700,4.0578017578125,-0.5111434459686279,-1.508700966835022,-0.7348827719688416
1772717583910834000,4.077833984375,-0.014937138184905052,-0.42005079984664917,-0.3395623564720154
1772717583930865700,4.09786572265625,0.38668325543403625,0.9547845125198364,0.04561968147754669
1772717583950897700,4.117897705078125,0.670666515827179,1.6181635856628418,0.18214742839336395
1772717583970930700,4.1379306640625,0.7953850030899048,1.167923927307129,-0.040113065391778946
1772717583990962700,4.157962646484375,0.6381149888038635,-0.07501432299613953,-0.640256404876709
1772717584010994700,4.17799462890625,-0.20705410838127136,-0.17181196808815002,-0.9867786765098572
1772717584031027700,4.19802783203125,-0.19259554147720337,-0.5505563616752625,-0.6875360608100891
1772717584051059700,4.218059814453125,0.5424987077713013,0.6093490719795227,-0.5821816325187683
1772717584071091700,4.238091796875,0.8910260200500488,0.6468527913093567,-2.4440736770629883
1772717584091123700,4.258123779296875,-0.02424568496644497,0.6595001220703125,-3.9358749389648438
1772717584111156700,4.27815673828125,-0.8927397727966309,0.6394715905189514,-3.9042704105377197
1772717584131188700,4.298188720703125,-1.6506948471069336,1.5852628946304321,-3.543867588043213
1772717584151220700,4.318220703125,-1.8313560485839844,1.684274673461914,-3.7816641330718994
1772717584171252700,4.338252685546875,-1.8179917335510254,0.2419348657131195,-4.148124694824219
1772717584191285500,4.358285400390625,-1.4166464805603027,-1.0426185131072998,-3.0890047550201416
1772717584211317800,4.37831787109375,-1.1649556159973145,-0.7953759431838989,-1.288435697555542
1772717584231349200,4.398349365234375,-1.2090047597885132,0.29179057478904724,0.3215719163417816
1772717584251382300,4.41838232421875,-0.909980297088623,0.8236193060874939,1.0375150442123413
1772717584271415300,4.438415283203125,-0.8044935464859009,-0.03591299429535866,1.273628830909729
1772717584291447000,4.458447021484375,-1.0738565921783447,-0.38675543665885925,1.6946461200714111
1772717584311479300,4.478479248046875,-1.5523872375488281,-0.12719842791557312,2.7615749835968018
1772717584331512300,4.49851220703125,-1.4931654930114746,0.43499940633773804,3.794293165206909
1772717584351544300,4.51854443359375,-1.3548104763031006,0.48473498225212097,3.8845229148864746
1772717584371576300,4.538576416015625,-1.3785762786865234,0.06813830882310867,3.728910207748413
1772717584391608300,4.5586083984375,-1.4669405221939087,0.4737798273563385,3.3216209411621094
1772717584411641300,4.578641357421875,-1.6022093296051025,1.1844406127929688,2.5425655841827393
1772717584431673300,4.59867333984375,-1.332755208015442,1.146840214729309,2.0131425857543945
1772717584451705300,4.618705322265625,-0.7227821946144104,0.7253031134605408,1.612388014793396
1772717584471738400,4.63873828125,-0.10135617852210999,1.0361875295639038,0.9456275105476379
1772717584491770400,4.658770263671875,0.0948687195777893,1.5463346242904663,-0.08977729082107544
1772717584511802000,4.678802001953125,-0.08291805535554886,-0.12537896633148193,-0.5828394293785095
1772717584531834400,4.69883447265625,-0.032044485211372375,-1.365687608718872,0.048769935965538025
1772717584551867100,4.7188671875,0.06278935074806213,-0.9955255389213562,0.7993440628051758
1772717584571899100,4.738899169921875,0.08730161935091019,-0.2346404641866684,1.0266528129577637
1772717584591931400,4.758931396484375,0.10032127797603607,-0.11773116141557693,1.0017073154449463
1772717584611963400,4.77896337890625,0.09620722383260727,-0.1264365017414093,0.9986904859542847
1772717584631996200,4.79899609375,0.09338294714689255,-0.12507003545761108,1.0019557476043701
1772717584652028400,4.8190283203125,0.09191607683897018,-0.12413313239812851,1.000910997390747
1772717584672060200,4.83906005859375,0.0917496308684349,-0.11888644099235535,0.9998624920845032
1772717584692092200,4.859092041015625,0.08990698307752609,-0.11493483930826187,0.9962933659553528
1772717584712125200,4.879125244140625,0.08635912090539932,-0.11347542703151703,0.9864151477813721
1772717584732157200,4.8991572265625,1.590366005897522,-7.735482692718506,-6.671183109283447
1772717584752189200,4.919189208984375,-0.8404774069786072,3.271035671234131,-6.775474548339844
1772717584772222200,4.93922216796875,-0.9161924123764038,-0.793201744556427,-1.6705037355422974
1772717584792254200,4.959254150390625,-1.8213038444519043,1.978294849395752,2.351569890975952
1772717584812286500,4.979286376953125,-1.1618397235870361,0.18864448368549347,0.33499875664711
1772717584832318200,4.999318115234375,-1.2051643133163452,0.7683813571929932,0.06776653230190277
1772717584852351200,5.019351318359375,-1.926363229751587,-1.1231293678283691,0.526159942150116
1772717584872383200,5.03938330078125,-2.566560983657837,-1.6195766925811768,1.1202176809310913
1772717584892415200,5.059415283203125,-2.3678689002990723,-1.1179593801498413,2.13556170463562
1772717584912447200,5.079447265625,-1.8566336631774902,-0.6629076600074768,2.509207248687744
1772717584932480300,5.099480224609375,-1.871224284172058,-0.9131625294685364,1.8663922548294067
1772717584952512300,5.11951220703125,-2.070204257965088,-1.5734776258468628,1.198989748954773
1772717584972544300,5.139544189453125,-2.236290454864502,-1.787926197052002,0.8870113492012024
1772717584992577300,5.159577392578125,-2.2608590126037598,-1.8112086057662964,0.8043907284736633
1772717585012609300,5.179609375,-2.276926279067993,-1.842620611190796,0.7277923822402954
1772717585032641300,5.199641357421875,-2.293602228164673,-1.866896390914917,0.6435728669166565
1772717585052673300,5.21967333984375,-2.3064286708831787,-1.8883471488952637,0.5524109601974487
1772717585072706300,5.239706298828125,-2.317323684692383,-1.9151089191436768,0.4635716676712036
1772717585092738000,5.259738037109375,-2.328057289123535,-1.9377509355545044,0.3672421872615814
1772717585112770300,5.279770263671875,-2.3370020389556885,-1.9559296369552612,0.2734709680080414
1772717585132802300,5.29980224609375,-2.3411598205566406,-1.9688975811004639,0.15301485359668732
1772717585152835300,5.31983544921875,-1.276763677597046,7.154234886169434,-12.953592300415039
1772717585172867300,5.339867431640625,-1.6231141090393066,3.548055410385132,-6.612304210662842
1772717585192899300,5.3598994140625,-2.5708560943603516,1.5882682800292969,-0.6835519671440125
1772717585212931000,5.37993115234375,-2.131803274154663,0.556639552116394,3.9530036449432373
1772717585232964900,5.39996484375,-0.9790635108947754,-4.3272199630737305,3.746337413787842
1772717585252996900,5.419996826171875,-1.9282751083374023,-1.5584161281585693,-0.7005264163017273
1772717585273028900,5.44002880859375,-1.870943307876587,-0.3871770203113556,-2.8844029903411865
1772717585293061600,5.4600615234375,-1.593953251838684,0.9347535371780396,-2.2993204593658447
1772717585313094000,5.480093994140625,-1.8351536989212036,0.04577174782752991,-1.013468861579895
1772717585333126000,5.5001259765625,-1.8080618381500244,-1.466941237449646,1.1322357654571533
1772717585353157600,5.52015771484375,-1.4903103113174438,-1.803076982498169,1.5556634664535522
1772717585373191000,5.54019091796875,-1.5741140842437744,-1.2288416624069214,0.23917609453201294
1772717585393223000,5.560222900390625,-1.5812764167785645,-0.5383415222167969,-0.35222914814949036
1772717585413254700,5.580254638671875,-1.4478949308395386,-0.6204336881637573,-0.10451708734035492
1772717585433287000,5.600286865234375,-1.5737050771713257,-0.9035479426383972,0.12720055878162384
1772717585453319700,5.620319580078125,-1.8436204195022583,-1.2231941223144531,-0.07176100462675095
1772717585473352000,5.64035205078125,-1.8390130996704102,-1.0864120721817017,-0.6990131735801697
1772717585493384000,5.660384033203125,-1.5156209468841553,0.010802846401929855,-1.2821887731552124
1772717585513416000,5.680416015625,-1.1887121200561523,0.6619947552680969,-1.1354666948318481
1772717585533449000,5.700448974609375,-1.0765362977981567,-0.05944069102406502,-0.5889902710914612
1772717585553481000,5.72048095703125,-1.2011208534240723,-0.4844028949737549,-0.05007408559322357
1772717585573512700,5.7405126953125,-1.2330838441848755,-0.5364469289779663,-0.00628985371440649
1772717585593546000,5.7605458984375,-1.2355775833129883,-0.5391857028007507,-0.01722053252160549
1772717585613577700,5.78057763671875,-1.237399935722351,-0.5498167872428894,-0.03073953650891781
1772717585633609700,5.800609619140625,-1.236181616783142,-0.5625126361846924,-0.04861919954419136
1772717585653642000,5.82064208984375,-1.2356958389282227,-0.5767173767089844,-0.06428178399801254
1772717585673674800,5.8406748046875,-1.2284648418426514,-0.6321079134941101,-0.09917931258678436
1772717585693706800,5.860706787109375,0.10746307671070099,-4.908914089202881,-5.0981903076171875
1772717585713739000,5.880739013671875,-0.7194899916648865,0.904610812664032,-5.192028999328613
1772717585733770800,5.900770751953125,-0.47220534086227417,-0.24247388541698456,-3.343554735183716
1772717585753804000,5.920803955078125,-0.3578798472881317,0.6159252524375916,-2.0783324241638184
1772717585773835800,5.940835693359375,-0.12026489526033401,1.9358965158462524,-2.6097805500030518
1772717585793867800,5.96086767578125,0.003683684393763542,2.1299192905426025,-3.136101245880127
1772717585813899800,5.980899658203125,-0.18463429808616638,1.0559191703796387,-3.043560028076172
1772717585833932800,6.000932861328125,-0.5120771527290344,0.6822693943977356,-2.9767403602600098
1772717585853964800,6.02096484375,-0.438293993473053,0.6859195232391357,-3.1209890842437744
1772717585873996800,6.040996826171875,-0.0556480810046196,0.8452905416488647,-2.8789420127868652
1772717585894029800,6.06102978515625,0.02750859037041664,0.6445382237434387,-2.5146868228912354
1772717585914061800,6.081061767578125,0.12682665884494781,0.26140096783638,-1.7025210857391357
1772717585934094000,6.101093994140625,0.2731175422668457,0.3297901451587677,-1.5197017192840576
1772717585954125800,6.121125732421875,0.3472093641757965,0.7300028204917908,-0.9421547651290894
1772717585974158800,6.141158935546875,0.19026261568069458,0.6136354804039001,0.764279305934906
1772717585994190800,6.16119091796875,-0.03656679764389992,0.20509882271289825,2.448493719100952
1772717586014222800,6.181222900390625,0.031258318573236465,-0.23577843606472015,2.7259106636047363
1772717586034254800,6.2012548828125,-0.07038655132055283,-0.1800009310245514,2.732391357421875
1772717586054288000,6.221287841796875,-0.5440518260002136,0.448830246925354,3.1061246395111084
1772717586074320000,6.24131982421875,-0.6888415217399597,0.917973518371582,4.207208156585693
1772717586094352000,6.261351806640625,-0.2545745074748993,0.7814750671386719,5.162722110748291
1772717586114384000,6.2813837890625,-0.1706811934709549,-0.027598071843385696,5.596012115478516
1772717586134417000,6.3014169921875,-0.2694021761417389,-0.47148311138153076,5.585589408874512
1772717586154448600,6.32144873046875,-0.3094941973686218,-0.2844144105911255,5.666971206665039
1772717586174481000,6.34148095703125,-0.2929743528366089,-0.4858258366584778,5.570062160491943
1772717586194514000,6.361513916015625,-0.5348487496376038,-1.054425835609436,5.038407802581787
1772717586214545400,6.38154541015625,-1.0906171798706055,-1.6292433738708496,4.167687892913818
1772717586234577400,6.401577392578125,-1.523939609527588,-1.5529307126998901,3.3014845848083496
1772717586254609700,6.421609619140625,-1.561148762702942,-0.9100854992866516,2.3139212131500244
1772717586274642400,6.441642333984375,-1.0749598741531372,-0.32534825801849365,1.3176559209823608
1772717586294674400,6.46167431640625,-0.6447020173072815,0.4737395942211151,0.8426020741462708
1772717586314706700,6.481706787109375,-0.8017292022705078,0.5790148973464966,0.6068283915519714
1772717586334738400,6.501738525390625,-1.2918837070465088,-0.16307520866394043,0.14908508956432343
1772717586354771500,6.521771484375,-1.3568600416183472,-1.3218070268630981,-0.03825311362743378
1772717586374803500,6.541803466796875,-0.9850457310676575,-1.07623291015625,-0.08827739953994751
1772717586394835500,6.56183544921875,-0.5114744901657104,0.06277896463871002,-0.3721783459186554
1772717586414867500,6.581867431640625,-0.2796953022480011,-0.09069261699914932,-0.9408156871795654
1772717586434900500,6.601900390625,-0.2973445951938629,-0.6372025609016418,-0.9987061619758606
1772717586454932500,6.621932373046875,-0.39181196689605713,-0.9947500228881836,-0.8449251055717468
1772717586474964500,6.641964599609375,-0.3840794861316681,-0.9878937602043152,-0.8478700518608093
1772717586494996500,6.66199658203125,-0.3714875280857086,-0.9831091165542603,-0.855509877204895
1772717586515029500,6.682029541015625,-0.36276888847351074,-0.9779074192047119,-0.8616756200790405
1772717586535061200,6.702061279296875,-0.35499536991119385,-0.969456672668457,-0.8701753616333008
1772717586555093500,6.722093505859375,-0.34372833371162415,-0.9621511101722717,-0.880704939365387
1772717586575126500,6.74212646484375,-0.33643049001693726,-0.9514321088790894,-0.8901922106742859
1772717586595158500,6.762158447265625,-0.3287355303764343,-0.9421036243438721,-0.906771719455719
1772717586615190500,6.7821904296875,-0.314261257648468,-0.9381629228591919,-0.9218065738677979
1772717586635222500,6.802222412109375,-0.30249515175819397,-0.9335761666297913,-0.9363991022109985
1772717586655255600,6.822255615234375,-0.11618892103433609,0.873296856880188,0.12081323564052582
1772717586675287600,6.84228759765625,0.7211203575134277,10.522330284118652,3.991755723953247
1772717586695319300,6.8623193359375,1.472161889076233,0.6674787402153015,-0.9627242088317871
1772717586715351600,6.8823515625,1.4778599739074707,-0.243580162525177,-0.9942666888237
1772717586735384600,6.902384521484375,0.7452850937843323,-0.6183431148529053,0.5085822939872742
1772717586755416300,6.922416259765625,-0.11630157381296158,-1.230903148651123,-0.21580606698989868
1772717586775448600,6.942448486328125,-0.09282900393009186,-0.500376284122467,-0.013197560794651508
1772717586795480600,6.96248046875,0.2759857773780823,0.07901173084974289,0.08553806692361832
1772717586815513300,6.982513427734375,0.5226112604141235,0.21420150995254517,0.008565524592995644
1772717586835545600,7.002545654296875,0.9277385473251343,-0.6458631753921509,-0.551186740398407
1772717586855577300,7.022577392578125,1.1567440032958984,-0.48375895619392395,-0.9538832902908325
1772717586875610600,7.042610595703125,0.8982266783714294,0.32890066504478455,-0.4665709137916565
1772717586895642600,7.062642578125,0.8555276989936829,0.5585583448410034,0.14258190989494324
1772717586915674400,7.08267431640625,0.5949975848197937,1.8017011880874634,0.9892125129699707
1772717586935706400,7.102706298828125,0.3719986081123352,2.6065614223480225,1.6280348300933838
1772717586955739400,7.122739501953125,0.4472278356552124,2.9915943145751953,1.4155484437942505
1772717586975771400,7.142771484375,0.6221751570701599,3.4499599933624268,-0.04104224219918251
1772717586995803600,7.1628037109375,-0.31427431106567383,-0.14513801038265228,-2.927701711654663
1772717587015835600,7.182835693359375,-0.7001644968986511,-3.662686586380005,-3.814382553100586
1772717587035868400,7.202868408203125,-0.8406928181648254,-2.283849000930786,-4.1221747398376465
1772717587055900700,7.222900634765625,0.11193452030420303,-1.5951069593429565,-6.582802772521973
1772717587075932400,7.242932373046875,0.6263075470924377,0.13747529685497284,-10.070196151733398
1772717587095964400,7.26296435546875,-1.0937833786010742,0.49495434761047363,-9.702108383178711
1772717587115997400,7.28299755859375,-2.016117811203003,0.22112706303596497,-5.970951557159424
1772717587136029400,7.303029541015625,-1.1695183515548706,0.0998176708817482,-4.4466681480407715
1772717587156061400,7.3230615234375,-1.5151444673538208,1.0177628993988037,-4.787667751312256
1772717587176093700,7.34309375,-1.6983531713485718,-0.09517418593168259,-2.2622005939483643
1772717587196126500,7.36312646484375,-1.5139119625091553,-1.2869526147842407,-0.47627440094947815
1772717587216158700,7.38315869140625,-1.2146456241607666,-0.6416111588478088,-0.04098311811685562
1772717587236190700,7.403190673828125,-1.3193550109863281,0.8836647868156433,0.38145309686660767
1772717587256223700,7.4232236328125,-1.3497518301010132,1.246374249458313,1.4252263307571411
1772717587276255700,7.443255859375,-1.0809285640716553,0.1959197074174881,1.7426048517227173
1772717587296287700,7.463287841796875,-0.8962908387184143,-0.34800484776496887,1.4737861156463623
1772717587316319700,7.48331982421875,-0.9243504405021667,0.08298170566558838,1.5679749250411987
1772717587336352800,7.503352783203125,-0.8817417621612549,0.6889991760253906,1.9180421829223633
1772717587356384800,7.523384765625,-0.9470645785331726,0.5529542565345764,2.3957414627075195
1772717587376416800,7.543416748046875,-0.9825698137283325,-0.5142500400543213,2.816793203353882
1772717587396448500,7.563448486328125,-1.2764371633529663,-0.9682071208953857,3.1782047748565674
1772717587416481800,7.583481689453125,-1.476102352142334,-0.7236192226409912,3.2944209575653076
1772717587436513500,7.603513427734375,-1.556881308555603,-0.595949113368988,3.149468183517456
1772717587456545800,7.6235458984375,-1.4272726774215698,-0.9088412523269653,2.771426200866699
1772717587476577800,7.643577880859375,-1.3686288595199585,-0.8047396540641785,2.540379762649536
1772717587496610600,7.663610595703125,-1.3349124193191528,-0.5553484559059143,2.4759366512298584
1772717587516642800,7.683642822265625,-1.3425875902175903,-0.5978841781616211,2.460385799407959
1772717587536674800,7.7036748046875,-1.360903263092041,-0.6611347794532776,2.445183515548706
1772717587556706600,7.72370654296875,-1.3754802942276,-0.727977454662323,2.424006223678589
1772717587576739800,7.74373974609375,-1.3980636596679688,-0.7859371900558472,2.4034926891326904
1772717587596771800,7.763771728515625,-1.41715407371521,-0.8422728776931763,2.3770978450775146
1772717587616803600,7.783803466796875,-0.7628635764122009,2.427236318588257,-0.19219741225242615
1772717587636836900,7.8038369140625,0.15630091726779938,1.8997060060501099,-3.3699848651885986
1772717587656868600,7.82386865234375,0.550287663936615,2.6419310569763184,-4.8714213371276855
1772717587676900600,7.843900634765625,0.5739261507987976,3.2113256454467773,-4.728214740753174
1772717587696932900,7.863932861328125,0.7044455409049988,1.7023165225982666,-3.33146333694458
1772717587716965600,7.883965576171875,0.3452458083629608,-0.36239150166511536,-3.0591824054718018
1772717587736998000,7.903997802734375,0.6177406907081604,-1.01891028881073,-2.5912368297576904
1772717587757030000,7.92402978515625,1.5275838375091553,-0.36937645077705383,-1.9481103420257568
1772717587777061600,7.9440615234375,2.079456329345703,0.5371444225311279,-2.2522547245025635
1772717587797095000,7.964094970703125,1.47202467918396,0.7743561863899231,-2.6208834648132324
1772717587817126700,7.984126708984375,0.933668851852417,-0.3153955042362213,-1.367775559425354
1772717587837157600,8.00415771484375,1.1329790353775024,-1.4316400289535522,0.19912348687648773
1772717587857189600,8.024189697265625,1.162306308746338,-1.8382322788238525,0.9531139135360718
1772717587877222700,8.04422265625,1.2748948335647583,-1.57930326461792,1.1040887832641602
1772717587897254700,8.064254638671875,1.1193788051605225,-1.3068029880523682,1.080271601676941
1772717587917286700,8.08428662109375,0.601549506187439,-1.0949456691741943,0.7850061655044556
1772717587937319700,8.104319580078124,-0.4305686950683594,-0.9468986392021179,0.3742889165878296
1772717587957351700,8.1243515625,-1.391150712966919,-1.1213167905807495,0.19603128731250763
1772717587977383700,8.1443837890625,-1.5506510734558105,-1.2818297147750854,0.027159981429576874
1772717587997415700,8.164415771484375,-1.5384007692337036,-1.6999002695083618,-0.09090274572372437
1772717588017448700,8.18444873046875,-1.6631264686584473,1.0558485984802246,0.9881477952003479
1772717588037480700,8.204480712890625,-1.5510345697402954,4.263862133026123,2.168616533279419
1772717588057512700,8.2245126953125,-0.9210225939750671,1.8632370233535767,-0.1503373086452484
1772717588077544700,8.244544677734375,-0.4740400016307831,1.7143124341964722,-1.3962128162384033
1772717588097577700,8.26457763671875,-0.7484697103500366,3.317829132080078,-1.2071224451065063
1772717588117609700,8.284609619140625,-1.0808191299438477,3.4537811279296875,-0.057126667350530624
1772717588137641700,8.304641845703125,-0.3122026324272156,2.3564469814300537,1.6147565841674805
1772717588157673700,8.324673828125,1.1905113458633423,2.4837331771850586,1.9250963926315308
1772717588177706800,8.344706787109375,0.8062661290168762,1.5267857313156128,1.130840539932251
1772717588197738800,8.36473876953125,-0.27786463499069214,0.6986896395683289,0.318520724773407
1772717588217770800,8.384770751953125,-0.7902728319168091,-0.006642988882958889,1.0595144033432007
1772717588237802500,8.404802490234376,-1.088394284248352,-0.5933962464332581,1.7255339622497559
1772717588257838600,8.424838623046876,-0.959446132183075,-1.512802243232727,1.8605914115905762
1772717588277870300,8.444870361328125,-0.9833165407180786,-1.8765394687652588,1.886991262435913
1772717588297902300,8.46490234375,-1.3661625385284424,-1.4437012672424316,1.7201786041259766
1772717588317935400,8.484935302734375,-1.9446138143539429,-0.850277841091156,1.3280798196792603
1772717588337967400,8.50496728515625,-2.1466434001922607,-0.7697073221206665,0.748583972454071
1772717588357999400,8.524999267578124,-1.7672760486602783,-0.638010561466217,0.4428112506866455
1772717588378031600,8.545031494140625,-1.4530752897262573,-0.4431289732456207,0.677836000919342
1772717588398064400,8.565064453125,-1.5347357988357544,-0.5694029927253723,1.0796103477478027
1772717588418096400,8.585096435546875,-1.6149486303329468,-0.4970893859863281,1.12077796459198
1772717588438128400,8.60512841796875,-1.6728990077972412,-0.5576257109642029,0.8557493090629578
1772717588458160400,8.625160400390625,-1.5288197994232178,-0.5174553990364075,0.5322985053062439
1772717588478193400,8.645193359375,-1.3439918756484985,-0.29681408405303955,0.3519223630428314
1772717588498225400,8.665225341796875,-1.2440581321716309,-0.07562419027090073,0.23655635118484497
1772717588518257400,8.68525732421875,-1.1880077123641968,-0.22053050994873047,0.28600698709487915
1772717588538290400,8.70529052734375,-1.0351605415344238,-0.5260922908782959,0.32767054438591003
1772717588558322400,8.725322509765626,-0.9300477504730225,-0.7447287440299988,0.2561737298965454
1772717588578354400,8.7453544921875,-0.9224369525909424,-0.7222000360488892,0.1764165759086609
1772717588598386200,8.76538623046875,-1.0616174936294556,-0.6229330897331238,0.1939564198255539
1772717588618419500,8.78541943359375,-1.1869524717330933,-0.6049514412879944,0.27804306149482727
1772717588638451500,8.805451416015625,-1.3032703399658203,-0.14764244854450226,0.6437363624572754
1772717588658483500,8.8254833984375,-1.4849647283554077,0.09485354274511337,1.2079867124557495
1772717588678515500,8.845515380859375,-1.6152434349060059,-0.21235594153404236,0.6924279928207397
1772717588698548200,8.86554833984375,-1.5731347799301147,-0.5157251358032227,0.1701701283454895
1772717588718580500,8.88558056640625,-1.6261285543441772,-0.7136009335517883,-0.13017398118972778
1772717588738612500,8.905612548828126,-1.628102421760559,-0.8662815690040588,-0.2537233531475067
1772717588758644200,8.925644287109375,-1.539170742034912,-1.0320560932159424,-0.4829975366592407
1772717588778677500,8.945677490234376,-1.367930293083191,-1.051054835319519,-0.6506629586219788
1772717588798709500,8.96570947265625,-1.294838547706604,-1.0356106758117676,-0.6614480018615723
1772717588818741200,8.9857412109375,-1.2319012880325317,-0.8654130697250366,-0.5752276182174683
1772717588838774500,9.0057744140625,-1.1545218229293823,-0.5553151369094849,-0.4120599925518036
1772717588858806300,9.02580615234375,-1.31002676486969,-0.5213361382484436,-0.119949571788311
1772717588878838300,9.04583837890625,-1.4444633722305298,-0.477260023355484,0.07702820748090744
1772717588898870500,9.06587060546875,-1.520924687385559,-0.4857339560985565,0.15205690264701843
1772717588918903300,9.0859033203125,-1.468054175376892,-0.6000202894210815,0.11472045630216599
1772717588938935300,9.105935302734375,-1.3008428812026978,-0.5426230430603027,0.1009516492486
1772717588958967600,9.125967529296876,-1.1452841758728027,-0.4309902787208557,0.15554937720298767
1772717588978999300,9.145999267578125,-0.9902538061141968,-0.35528671741485596,0.19680866599082947
1772717588999032600,9.166032470703126,-0.8972695469856262,-0.3026394844055176,0.24686996638774872
1772717589019064300,9.186064208984375,-0.8138654828071594,-0.24885135889053345,0.2593333125114441
1772717589039096300,9.206096435546876,-0.7230069637298584,-0.14636707305908203,0.25284984707832336
1772717589059128300,9.22612841796875,-0.6759182810783386,-0.06037119776010513,0.26804661750793457
1772717589079161300,9.246161376953125,-0.6345255374908447,-0.1735483556985855,0.2941514551639557
1772717589099193300,9.266193359375,-0.6120929718017578,-0.12490491569042206,0.3963710367679596
1772717589119225600,9.2862255859375,-0.5853726863861084,0.10378977656364441,0.5698134303092957
1772717589139257300,9.30625732421875,-0.5343284010887146,0.43195486068725586,0.4364641308784485
1772717589159290400,9.326290283203125,-0.5241689682006836,0.5704179406166077,0.15116076171398163
1772717589179322400,9.346322265625,-0.5602539777755737,0.4831048846244812,0.12210220843553543
1772717589199354400,9.366354248046875,-0.6024951934814453,0.2967429757118225,0.22745206952095032
1772717589219387100,9.38638720703125,-0.6326640248298645,0.18444307148456573,0.3961060643196106
1772717589239419000,9.4064189453125,-0.6237964630126953,0.045404497534036636,0.4370250105857849
1772717589259451000,9.426450927734376,-0.715488851070404,0.33327117562294006,1.1297334432601929
1772717589279483100,9.446483154296875,-0.9470655918121338,-0.012374377809464931,0.5590089559555054
1772717589299516000,9.466515869140625,-0.9690502882003784,-0.266628235578537,-0.6498485803604126
1772717589319548000,9.4865478515625,-0.9600709080696106,-0.3015265464782715,-0.7891731858253479
1772717589339580200,9.506580078125,-1.0262919664382935,-0.24402464926242828,-0.09561387449502945
