time,seconds_elapsed,z,y,x
1772792003244232200,0.188232177734375,12.75412654876709,1.7834337949752808,7.291836738586426
1772792003264333000,0.2083330078125,15.301717758178711,-1.540292739868164,10.542501449584961
1772792003284433700,0.22843359375,12.2720365524292,-0.441965788602829,7.535576820373535
1772792003304534500,0.248534423828125,7.294830799102783,1.6403039693832397,10.852715492248535
1772792003324635400,0.268635498046875,8.660852432250977,1.5690383911132812,12.158251762390137
1772792003344736000,0.288736083984375,15.008272171020508,1.2198973894119263,9.547778129577637
1772792003364836900,0.3088369140625,18.22240447998047,-0.21259872615337372,9.021970748901367
1772792003384937700,0.328937744140625,18.70449447631836,-0.5515589118003845,9.313620567321777
1772792003405038600,0.34903857421875,12.84395694732666,0.7282254695892334,7.391848087310791
1772792003425139200,0.36913916015625,7.247520446777344,1.434891700744629,5.4365386962890625
1772792003445240000,0.389239990234375,5.323951244354248,1.573230504989624,4.514279365539551
1772792003465341000,0.4093408203125,4.605307579040527,1.7169592380523682,3.839951992034912
1772792003485441500,0.429441650390625,3.6273534297943115,2.0559194087982178,2.7266533374786377
1772792003505542400,0.44954248046875,2.2236030101776123,2.485907793045044,2.162518262863159
1772792003525643300,0.469643310546875,0.5264064073562622,2.8009133338928223,2.530224323272705
1772792003545744000,0.489743896484375,-1.1420444250106812,3.030280351638794,1.5025639533996582
1772792003565844700,0.5098447265625,-1.264812707901001,2.6482014656066895,0.8569824695587158
1772792003585945600,0.529945556640625,0.5599430799484253,1.5498746633529663,-0.0988134890794754
1772792003606046200,0.550046142578125,2.45955753326416,1.57802152633667,-1.251038670539856
1772792003626147000,0.57014697265625,3.6836471557617188,0.3509376049041748,0.9911292195320129
1772792003646248000,0.590248046875,5.763521194458008,-0.5228132009506226,1.8846427202224731
1772792003666349600,0.610349609375,6.888198375701904,-0.9911292195320129,1.0767675638198853
1772792003686451200,0.630451171875,9.09563159942627,-1.6355129480361938,1.0815585851669312
1772792003706552800,0.650552734375,11.17969799041748,-2.954223871231079,5.231126308441162
1772792003726654500,0.670654541015625,12.900250434875488,-6.550436019897461,10.370026588439941
1772792003746756000,0.690756103515625,24.607553482055664,-13.203278541564941,12.936781883239746
1772792003766857700,0.710857666015625,38.451622009277344,-17.47321891784668,15.43706226348877
1772792003786959400,0.73095947265625,40.44645690917969,-21.102968215942383,20.50889015197754
1772792003807061000,0.75106103515625,35.11471939086914,-23.77751922607422,19.653104782104492
1772792003827162600,0.77116259765625,25.269304275512695,-21.565895080566406,15.422689437866211
1772792003847264300,0.79126416015625,12.8768949508667,-17.18636131286621,12.979301452636719
1772792003867366000,0.811365966796875,1.655874490737915,-9.854998588562012,8.724931716918945
1772792003887467500,0.831467529296875,-6.534865379333496,-2.7146761417388916,1.740913987159729
1772792003907569200,0.851569091796875,-10.543100357055664,1.1630048751831055,-2.5613653659820557
1772792003927670800,0.8716708984375,-12.296589851379395,1.0102931261062622,-1.5193322896957397
1772792003947772400,0.8917724609375,-15.600554466247559,-0.3982483148574829,-1.8109817504882812
1772792003967874000,0.9118740234375,-16.535987854003906,-1.501965045928955,-3.618370294570923
1772792003987975700,0.9319755859375,-14.85855484008789,-3.058427333831787,-5.042482376098633
1772792004008077300,0.952077392578125,-12.90623950958252,-4.596324443817139,-3.82857346534729
1772792004028179000,0.972178955078125,-10.126885414123535,-5.804843425750732,-1.7109705209732056
1772792004048280600,0.992280517578125,-7.035520553588867,-6.301905155181885,-0.6198300719261169
1772792004068382200,1.01238232421875,-4.861623764038086,-6.364187717437744,-0.09402253478765488
1772792004088483800,1.03248388671875,-3.4956021308898926,-6.139611721038818,0.7803271412849426
1772792004108585500,1.05258544921875,-2.1199984550476074,-7.448141574859619,6.03900146484375
1772792004128687000,1.07268701171875,3.6836471557617188,-10.76767635345459,17.36362648010254
1772792004148788500,1.09278857421875,14.30459976196289,-13.0457763671875,15.308305740356445
1772792004168889600,1.1128896484375,30.856159210205078,-14.813040733337402,5.714414119720459
1772792004188990500,1.132990478515625,37.55870819091797,-15.534079551696777,6.818729877471924
1772792004209091600,1.153091552734375,31.914960861206055,-17.81277847290039,9.271100997924805
1772792004229192400,1.1731923828125,31.168170928955078,-19.364450454711914,7.100797176361084
1772792004249293300,1.193293212890625,26.82935905456543,-19.388404846191406,6.5648088455200195
1772792004269394400,1.21339453125,24.19672966003418,-19.4123592376709,6.019837379455566
1772792004289495300,1.233495361328125,27.987573623657227,-19.741737365722656,5.46528434753418
1772792004309596400,1.253596435546875,29.556612014770508,-20.955047607421875,6.239622592926025
1772792004329697300,1.273697265625,21.828798294067383,-20.314855575561523,5.360482215881348
1772792004349798400,1.29379833984375,12.229516983032227,-15.467604637145996,0.4701126515865326
1772792004369899300,1.313899169921875,3.2865965366363525,-9.038739204406738,-2.9721899032592773
1772792004390000400,1.33400048828125,0.3138076961040497,-4.659205913543701,-3.5788450241088867
1772792004410101200,1.354101318359375,-0.31021445989608765,-3.9621214866638184,-1.394168496131897
1772792004430202400,1.374202392578125,-6.411498546600342,-5.03649377822876,2.1481454372406006
1772792004450303200,1.39430322265625,-16.9426212310791,-5.231725215911865,2.3242130279541016
1772792004470404400,1.414404296875,-24.86446762084961,-4.615488052368164,2.70150089263916
1772792004490505200,1.434505126953125,-25.89452362060547,-5.179024696350098,4.020810604095459
1772792004510606000,1.454606201171875,-20.662200927734375,-5.914436340332031,3.102743625640869
1772792004530707200,1.474707275390625,-14.432758331298828,-6.005464553833008,2.012800931930542
1772792004550808000,1.49480810546875,-11.932477951049805,-5.475465297698975,1.2001347541809082
1772792004570909200,1.5149091796875,-10.30235481262207,-4.692143440246582,0.43537822365760803
1772792004591010000,1.535010009765625,-7.140322685241699,-4.496313095092773,2.782348394393921
1772792004611111200,1.555111083984375,0.6725305914878845,-7.700864791870117,11.157540321350098
1772792004631212000,1.5752119140625,15.513717651367188,-9.816671371459961,17.75408935546875
1772792004651313000,1.59531298828125,17.173185348510742,-10.59520149230957,10.326309204101562
1772792004671413200,1.615413330078125,23.29363250732422,-14.549537658691406,5.818018436431885
1772792004691513900,1.635513916015625,41.64659118652344,-20.605905532836914,8.76266098022461
1772792004711614500,1.655614501953125,53.864131927490234,-23.911067962646484,9.76696491241455
1772792004731714800,1.67571484375,52.389713287353516,-22.32526206970215,7.534379005432129
1772792004751815400,1.6958154296875,37.718605041503906,-19.684246063232422,9.699891090393066
1772792004771916000,1.715916015625,31.34783172607422,-22.162967681884766,14.867537498474121
1772792004792016400,1.736016357421875,43.45218276977539,-27.879777908325195,11.176704406738281
1772792004812117000,1.756116943359375,47.62570571899414,-34.699703216552734,5.516787052154541
1772792004832217600,1.776217529296875,29.05535888671875,-36.78197479248047,2.705693006515503
1772792004852318000,1.79631787109375,-2.007411003112793,-30.057266235351562,2.7871391773223877
1772792004892519000,1.836518798828125,-19.159635543823242,-9.849609375,-3.61417818069458
1772792004912619500,1.85661962890625,-20.738256454467773,-7.089418888092041,-3.1698169708251953
1772792004932719900,1.876719970703125,-24.320693969726562,-5.484447956085205,-1.8738631010055542
1772792004952820500,1.896820556640625,-27.435415267944336,-4.796945571899414,-0.28206759691238403
1772792004972921000,1.916921142578125,-26.18317985534668,-4.67717170715332,0.6545644998550415
1772792004993021400,1.937021484375,-21.74016571044922,-5.1119513511657715,-0.1341467946767807
1772792005013122000,1.9571220703125,-17.56664276123047,-6.587565898895264,-0.45454204082489014
1772792005033222700,1.97722265625,-14.021933555603027,-9.06628704071045,0.338960200548172
1772792005053323000,1.997322998046875,-9.9005126953125,-11.253957748413086,1.9211738109588623
1772792005073423600,2.017423583984375,-4.880787372589111,-12.070816040039062,2.0936481952667236
1772792005093524200,2.037524169921875,-0.8779428601264954,-12.003743171691895,1.9786652326583862
1772792005113624600,2.05762451171875,2.7524049282073975,-13.302691459655762,4.674776554107666
1772792005133725200,2.07772509765625,11.987573623657227,-13.928509712219238,4.761013507843018
1772792005153826000,2.097825927734375,16.023954391479492,-11.387506484985352,0.5108358263969421
1772792005173927700,2.117927734375,13.074522018432617,-10.045439720153809,-0.7653554081916809
1772792005194029300,2.138029296875,15.593966484069824,-9.290863990783691,-1.9846539497375488
1772792005214131200,2.158131103515625,22.23004150390625,-6.845678806304932,-2.0325634479522705
1772792005234232600,2.178232666015625,25.614253997802734,-3.8130030632019043,0.5395815372467041
1772792005254334500,2.19833447265625,24.83931541442871,-3.09196400642395,3.069206953048706
1772792005274436000,2.21843603515625,23.5253963470459,-5.202979564666748,4.923906326293945
1772792005294537700,2.238537841796875,27.041358947753906,-10.895833969116211,4.426844120025635
1772792005314639400,2.258639404296875,40.015869140625,-18.99135398864746,1.1857619285583496
1772792005334741000,2.278740966796875,53.769508361816406,-22.46839141845703,-0.77433842420578
1772792005354842600,2.298842529296875,48.79769515991211,-26.427518844604492,5.3922224044799805
1772792005374944300,2.3189443359375,42.87547302246094,-30.04289436340332,9.154321670532227
1772792005395046000,2.3390458984375,42.785640716552734,-31.81494903564453,8.609350204467773
1772792005415147500,2.3591474609375,41.2633171081543,-34.19845199584961,10.78923511505127
1772792005435249200,2.379249267578125,31.735300064086914,-33.887638092041016,11.88875961303711
1772792005455351000,2.39935107421875,15.2963285446167,-29.20747184753418,9.250140190124512
1772792005475452400,2.419452392578125,-0.9911292195320129,-21.72339630126953,6.611520767211914
1772792005495554300,2.43955419921875,-8.019463539123535,-15.724519729614258,7.70146369934082
1772792005515656000,2.459656005859375,-8.633903503417969,-12.056443214416504,6.840888023376465
1772792005535757600,2.479757568359375,-12.183403968811035,-8.96208381652832,1.3863831758499146
1772792005555859200,2.499859130859375,-17.930755615234375,-7.337949752807617,-1.6103605031967163
1772792005575960800,2.5199609375,-19.986675262451172,-6.870232582092285,-1.515140175819397
1772792005596062500,2.5400625,-18.62065315246582,-6.4258713722229,1.2001347541809082
1772792005616164000,2.5601640625,-17.462440490722656,-6.363588809967041,2.12778377532959
1772792005636265700,2.580265625,-13.837481498718262,-6.206086158752441,1.1480331420898438
1772792005656366800,2.600366943359375,-10.671257972717285,-6.076730251312256,0.367107093334198
1772792005676467700,2.6204677734375,-9.243553161621094,-5.94737434387207,0.7683497667312622
1772792005696568300,2.640568359375,-8.081147193908691,-5.985702037811279,2.111614227294922
1772792005716669200,2.660669189453125,-7.249317169189453,-6.539656639099121,3.426133155822754
1772792005736770000,2.68077001953125,-5.4155778884887695,-7.03611946105957,3.2207210063934326
1772792005756870700,2.70087060546875,-2.6362240314483643,-7.184040069580078,2.3553543090820312
1772792005776971500,2.720971435546875,-0.0035932178143411875,-6.907362461090088,1.3654227256774902
1772792005797072400,2.741072265625,1.9343489408493042,-6.0473856925964355,0.8204513788223267
1772792005817173000,2.761173095703125,1.5798181295394897,-3.917206287384033,-1.1109031438827515
1772792005837273900,2.78127392578125,-1.9792641401290894,-4.026799201965332,-0.22158177196979523
1772792005857374700,2.801374755859375,8.551259994506836,-9.897518157958984,15.659842491149902
1772792005877475300,2.821475341796875,24.59317970275879,-16.78451919555664,30.488452911376953
1772792005897576200,2.841576171875,32.836021423339844,-26.584421157836914,16.787513732910156
1772792005917677000,2.861677001953125,47.61552429199219,-27.60190200805664,8.503350257873535
1772792005937777700,2.881777587890625,60.381629943847656,-19.883668899536133,7.049893379211426
1772792005957878500,2.90187841796875,49.73312759399414,-10.398772239685059,6.366582870483398
1772792005977979100,2.921979248046875,22.239023208618164,-3.530935287475586,4.3537821769714355
1772792005998080000,2.942080078125,5.748549461364746,1.4360893964767456,3.0680091381073
1772792006018180900,2.962180908203125,3.233896017074585,2.0666990280151367,6.132425308227539
1772792006038281700,2.98228173828125,8.111689567565918,0.5144290328025818,9.20582389831543
1772792006058382300,3.00238232421875,11.982782363891602,-0.4305872619152069,6.743272304534912
1772792006078483200,3.022483154296875,11.751020431518555,-1.7391173839569092,2.8284614086151123
1772792006098583800,3.042583740234375,9.108807563781738,-3.2578508853912354,0.6054571866989136
1772792006118684700,3.0626845703125,6.585170745849609,-4.117827415466309,-0.4467567503452301
1772792006138785500,3.08278564453125,5.426956653594971,-4.318449020385742,-1.7469027042388916
1772792006158886400,3.102886474609375,4.6232733726501465,-3.969906806945801,-2.9278736114501953
1772792006178987800,3.12298779296875,3.493805408477783,-3.2865965366363525,-3.88366961479187
1772792006199089000,3.1430888671875,2.4110491275787354,-2.6416139602661133,-4.199274063110352
1772792006219196400,3.163196533203125,1.078564167022705,-1.8205636739730835,-4.204064846038818
1772792006239297800,3.1832978515625,0.08084739744663239,-0.9366320967674255,-4.142381191253662
1772792006259399000,3.20339892578125,-0.6324063539505005,0.05150279030203819,-3.5489015579223633
1772792006279500300,3.223500244140625,-1.3037391901016235,0.9114795923233032,-2.6931166648864746
1772792006299601400,3.243601318359375,-1.1144963502883911,1.4941797256469727,-2.167309284210205
1772792006319702800,3.263702880859375,0.738406240940094,0.83482426404953,-1.0390387773513794
1772792006339804000,3.283803955078125,6.003668308258057,-1.018078327178955,1.4133323431015015
1772792006359905300,3.3039052734375,14.653141975402832,-4.151364326477051,3.569262981414795
1772792006380006400,3.32400634765625,23.103792190551758,-7.126548767089844,1.5852079391479492
1772792006400107800,3.344107666015625,29.725492477416992,-9.208818435668945,-0.6659430265426636
1772792006420209000,3.364208984375,33.85649490356445,-10.51315689086914,1.2696036100387573
1772792006440310300,3.384310302734375,30.212373733520508,-10.613167762756348,5.084403038024902
1772792006460411600,3.40441162109375,22.026424407958984,-9.543586730957031,7.326570987701416
1772792006480512800,3.4245126953125,13.391324043273926,-7.800277233123779,6.681588649749756
1772792006500614100,3.4446142578125,6.773814678192139,-6.143204689025879,5.749148368835449
1772792006520715300,3.46471533203125,3.7441329956054688,-4.557397842407227,5.075420379638672
1772792006540816600,3.484816650390625,4.165138244628906,-3.3536698818206787,4.325036525726318
1772792006560917800,3.504917724609375,5.304188251495361,-2.7518060207366943,3.832166910171509
1772792006581019100,3.52501904296875,6.055769920349121,-2.432009696960449,3.7800650596618652
1772792006601120300,3.545120361328125,6.419882297515869,-2.288879632949829,3.206347942352295
1772792006621221600,3.5652216796875,5.71082067489624,-2.2074334621429443,2.4655463695526123
1772792006641322800,3.58532275390625,4.8316802978515625,-1.9642924070358276,1.5474791526794434
1772792006661423900,3.605423828125,4.613691806793213,-1.6534790992736816,0.3712991774082184
1772792006681525200,3.625525146484375,4.982595443725586,-1.4959763288497925,-0.5228132009506226
1772792006701626400,3.64562646484375,5.866527080535889,-1.2522363662719727,-0.8575813174247742
1772792006721727700,3.665727783203125,6.461803436279297,-0.8605756759643555,-1.240259051322937
1772792006741828900,3.685828857421875,7.048096656799316,-0.4880787432193756,-1.51753568649292
1772792006761930200,3.70593017578125,7.161283016204834,-0.16768349707126617,-1.2546318769454956
1772792006782031400,3.72603125,7.180447101593018,-0.08204513788223267,-0.3844743072986603
1772792006802132500,3.746132568359375,7.430774211883545,-0.043717484921216965,0.1988247185945511
1772792006822233900,3.76623388671875,7.6811017990112305,-0.06288131326436996,0.2611071467399597
1772792006842335000,3.7863349609375,8.414118766784668,-0.1724744588136673,0.5904854536056519
1772792006862436400,3.806436279296875,9.505857467651367,-0.11079088598489761,1.298349380493164
1772792006882537500,3.826537353515625,9.434592247009277,-0.06767226755619049,2.9614102840423584
1772792006902638800,3.846638916015625,7.293633460998535,0.004192087333649397,4.223827362060547
1772792006922740000,3.866739990234375,6.589362621307373,0.10420331358909607,2.435602903366089
1772792006942841000,3.886841064453125,8.711756706237793,-0.22038403153419495,1.7379196882247925
1772792006962942500,3.9069423828125,12.516375541687012,-1.018078327178955,2.1199984550476074
1772792006983043600,3.927043701171875,15.971254348754883,-1.108507752418518,1.8523037433624268
1772792007003145000,3.94714501953125,15.168169975280762,0.08563835918903351,0.47550249099731445
1772792007023246000,3.96724609375,11.230602264404297,1.2504397630691528,-0.19822585582733154
1772792007043347200,3.98734716796875,8.517723083496094,1.7139649391174316,0.5671295523643494
1772792007083549700,4.0275498046875,8.891417503356934,1.4845978021621704,1.6953998804092407
1772792007103651000,4.047651123046875,9.567541122436523,1.078564167022705,1.633117437362671
1772792007123752200,4.067752197265625,9.515439987182617,0.7443949580192566,0.7677508592605591
1772792007143853300,4.087853271484375,9.520230293273926,0.47670021653175354,0.32818055152893066
1772792007163956000,4.1079560546875,9.95021915435791,0.21858741343021393,-0.0017966089071705937
1772792007184058600,4.12805859375,10.64490795135498,-0.04850843921303749,-0.5946775674819946
1772792007204161300,4.148161376953125,11.131789207458496,-0.06767226755619049,-1.311524510383606
1772792007224263700,4.168263671875,10.83894157409668,0.06587565690279007,-2.1433544158935547
1772792007244366300,4.188366455078125,10.143653869628906,0.2048134207725525,-2.6272411346435547
1772792007264469000,4.208468994140625,9.826851844787598,0.2431410700082779,-2.5984952449798584
1772792007284571600,4.228571533203125,10.2855863571167,0.1431298404932022,-2.0439419746398926
1772792007304674300,4.24867431640625,11.36295223236084,-0.04790957272052765,-1.7331286668777466
1772792007324776700,4.268776611328125,12.242093086242676,-0.38267770409584045,-1.9151850938796997
1772792007344879400,4.28887939453125,12.880488395690918,-0.7599655389785767,-1.9391398429870605
1772792007364982000,4.30898193359375,13.409290313720703,-1.1228805780410767,-1.8049930334091187
1772792007385084700,4.329084716796875,14.142306327819824,-1.2708014249801636,-1.1264737844467163
1772792007405187300,4.349187255859375,14.676498413085938,-1.1510274410247803,0.15450836718082428
1772792007425289700,4.369289794921875,14.402215957641602,-1.1037167310714722,1.5600553750991821
1772792007445392400,4.389392333984375,13.46139144897461,-1.0031065940856934,2.82247257232666
1772792007465495000,4.4094951171875,11.24018383026123,-0.5018527507781982,3.845341920852661
1772792007485597700,4.42959765625,9.36392593383789,0.023355916142463684,4.017217636108398
1772792007505700400,4.449700439453125,8.645281791687012,0.4054347574710846,3.807014226913452
1772792007525802800,4.469802734375,8.711756706237793,0.43418049812316895,3.3674440383911133
1772792007566008000,4.510008056640625,10.238275527954102,-0.0287457425147295,1.909196376800537
1772792007586110700,4.53011083984375,9.86937141418457,-0.019163828343153,1.1875585317611694
1772792007606213400,4.55021337890625,9.411236763000488,0.09522027522325516,0.9384286999702454
1772792007626315800,4.570315673828125,9.141744613647461,0.21020324528217316,1.0486207008361816
1772792007666519800,4.610519775390625,8.65965461730957,0.23835010826587677,1.2929595708847046
1772792007686621400,4.630621337890625,8.735112190246582,0.08084739744663239,1.0731743574142456
1772792007706723000,4.65072314453125,8.754276275634766,0.052101656794548035,0.4802934527397156
1772792007746926000,4.690926025390625,8.09731674194336,0.5204176902770996,-0.18924281001091003
1772792007767027700,4.71102783203125,7.898491859436035,0.7539768815040588,-0.08384174853563309
1772792007787129000,4.731129150390625,8.19612979888916,0.9354343414306641,-0.24673429131507874
1772792007807230700,4.751230712890625,8.654864311218262,1.1025190353393555,-0.4425646662712097
1772792007847433700,4.791433837890625,8.999813079833984,1.479806900024414,-0.06946887820959091
1772792007867535400,4.811535400390625,9.250140190124512,1.6948010921478271,0.2509263753890991
1772792007887637000,4.831636962890625,9.491484642028809,1.8241568803787231,0.43717482686042786
1772792007907738400,4.85173828125,9.26451301574707,1.933750033378601,0.3227907419204712
1772792007927840000,4.871840087890625,8.834525108337402,2.039151191711426,0.169480100274086
1772792007947941600,4.891941650390625,8.810569763183594,2.0433433055877686,0.12157053500413895
1772792007988144600,4.93214453125,8.130253791809082,2.39727520942688,0.3844743072986603
1772792008008246300,4.952246337890625,7.033723831176758,2.6931166648864746,0.566530704498291
1772792008028347600,4.97234765625,6.513905048370361,2.9224839210510254,0.6288130879402161
1772792008048449300,4.99244921875,7.303215026855469,2.7649810314178467,0.3844743072986603
1772792008068551000,5.012551025390625,8.79200553894043,2.43021297454834,-0.23176254332065582
1772792008088652300,5.03265234375,10.328105926513672,2.167908191680908,-0.7192424535751343
1772792008108754000,5.05275390625,9.95021915435791,2.5212411880493164,-0.9725642800331116
1772792008128855600,5.07285546875,8.75906753540039,3.256653070449829,-1.1498297452926636
1772792008148957000,5.09295703125,8.371598243713379,4.035183429718018,-1.6277276277542114
1772792008169058300,5.113058349609375,8.262604713439941,4.799341201782227,-2.0816707611083984
1772792008189159700,5.13315966796875,8.35722541809082,5.4203691482543945,-2.387693166732788
1772792008209261000,5.153260986328125,8.829733848571777,5.7449564933776855,-2.545794725418091
1772792008229362400,5.173362548828125,9.685518264770508,5.788074970245361,-2.315828800201416
1772792008249463600,5.193463623046875,10.393980979919434,5.754538536071777,-1.60916268825531
1772792008269565000,5.21356494140625,11.67496395111084,5.4203691482543945,-1.1737844944000244
1772792008289666300,5.233666259765625,13.466182708740234,4.675375461578369,-1.1977392435073853
1772792008309767700,5.253767578125,13.915334701538086,3.992663860321045,-1.5277163982391357
1772792008329869000,5.273869140625,13.485346794128418,3.54830265045166,-1.8529026508331299
1772792008349970400,5.293970458984375,12.426545143127441,3.2806079387664795,-2.2643260955810547
1772792008370071800,5.31407177734375,11.041359901428223,3.0895683765411377,-2.4505746364593506
1772792008390173200,5.334173095703125,9.817270278930664,2.82247257232666,-2.024778127670288
1772792008410274600,5.354274658203125,9.519631385803223,2.39727520942688,-1.6714451313018799
1772792008430375700,5.374375732421875,8.839315414428711,2.0774786472320557,-1.776846170425415
1772792008450477000,5.39447705078125,8.035633087158203,2.024179458618164,-1.8235580921173096
1772792008470578400,5.414578369140625,7.662537097930908,2.028970241546631,-1.6948010921478271
1772792008490679800,5.4346796875,7.52539587020874,2.311038017272949,-1.4318972826004028
1772792008510781200,5.45478125,7.0810346603393555,2.8841562271118164,-1.0875473022460938
1772792008530882600,5.474882568359375,6.679193019866943,3.6051952838897705,-1.1067110300064087
1772792008550984000,5.49498388671875,8.092525482177734,3.7058053016662598,-1.421716570854187
1772792008571085300,5.515085205078125,10.460455894470215,3.0608227252960205,-1.0348467826843262
1772792008591186400,5.5351865234375,12.890069961547852,2.497286319732666,-0.441965788602829
1772792008611287800,5.555287841796875,14.605831146240234,2.2248005867004395,0.09342366456985474
1772792008631389200,5.57538916015625,14.520792007446289,2.497286319732666,0.667140781879425
1772792008651490300,5.595490234375,13.636261940002441,3.333308458328247,1.034247875213623
1772792008671590400,5.61559033203125,13.239211082458496,4.5130815505981445,1.2971516847610474
1772792008691690800,5.635690673828125,14.250701904296875,5.143691062927246,1.492982029914856
1772792008711791000,5.655791015625,15.247819900512695,5.148482322692871,1.1965415477752686
1772792008731891500,5.675891357421875,15.683197975158691,3.8351612091064453,0.4557397961616516
1772792008751991800,5.69599169921875,14.454317092895508,2.564359664916992,-0.38088110089302063
1772792008772092200,5.716092041015625,11.334805488586426,2.1493430137634277,-0.6869034767150879
1772792008792192500,5.736192626953125,8.47999382019043,1.7289366722106934,0.09701687842607498
1772792008812292900,5.75629296875,5.6293745040893555,1.0983269214630127,1.215705394744873
1772792008832393200,5.776393310546875,2.4296140670776367,-0.15271176397800446,2.15712833404541
1772792008852493600,5.79649365234375,-2.1876707077026367,-0.4162144064903259,0.6000673770904541
1772792008872594000,5.816593994140625,-8.26559829711914,-0.8701575994491577,-1.440880298614502
1772792008892694300,5.8366943359375,-11.503087997436523,-2.3745181560516357,-2.6937155723571777
1772792008912794600,5.856794677734375,-10.548489570617676,-4.222630023956299,-3.2195231914520264
1772792008932895000,5.87689501953125,-11.040162086486816,-5.951566219329834,-1.201931357383728
1772792008952995300,5.896995361328125,-13.885391235351562,-7.1313395500183105,1.2791855335235596
1772792008973095700,5.917095703125,-15.795186996459961,-9.815473556518555,2.947636365890503
1772792008993196000,5.937196044921875,-13.93270206451416,-14.29561710357666,6.781599521636963
1772792009013296400,5.95729638671875,-10.264625549316406,-19.27222442626953,12.092375755310059
1772792009033396700,5.977396728515625,-6.36538553237915,-23.737995147705078,18.254743576049805
1772792009053497000,5.9974970703125,-3.2979750633239746,-27.400680541992188,22.260583877563477
1772792009073597400,6.017597412109375,-1.0953326225280762,-30.63457679748535,25.793315887451172
1772792009093697800,6.03769775390625,-1.6438971757888794,-34.29307174682617,28.962533950805664
1772792009113798100,6.057798095703125,-4.871804714202881,-41.29924774169922,37.57667541503906
1772792009133898500,6.0778984375,0.36051952838897705,-48.955196380615234,43.66238784790039
1772792009153999400,6.097999267578125,13.216453552246094,-50.56496047973633,34.297264099121094
1772792009174101200,6.118101318359375,36.94786071777344,-45.49732208251953,18.914100646972656
1772792009194203000,6.138202880859375,53.65093231201172,-30.930418014526367,13.240408897399902
1772792009214304800,6.1583046875,38.92353057861328,-20.991579055786133,15.377175331115723
1772792009234406700,6.17840673828125,17.120485305786133,-15.967061996459961,9.707676887512207
1772792009254508300,6.19850830078125,5.8994646072387695,-10.885653495788574,1.5852079391479492
1772792009274610200,6.218610107421875,4.19328498840332,-7.270277500152588,-0.9384286999702454
1772792009294711800,6.2387119140625,9.217801094055176,-6.052176475524902,0.0796496644616127
1772792009314813700,6.258813720703125,15.343040466308594,-5.307182788848877,0.720440149307251
1772792009334915600,6.27891552734375,16.421005249023438,-4.624471187591553,0.0413220040500164
1772792009355017200,6.299017333984375,12.960736274719238,-4.5957255363464355,-0.5413781404495239
1772792009375119000,6.319119140625,10.337687492370605,-4.743646621704102,-0.5749148726463318
1772792009395220700,6.339220703125,10.7251558303833,-5.092188358306885,0.17067784070968628
1772792009415322600,6.359322509765625,12.38941478729248,-6.076131343841553,1.7528914213180542
1772792009435424500,6.379424560546875,13.8446683883667,-7.2798590660095215,1.9391398429870605
1772792009455526100,6.399526123046875,12.0300931930542,-8.889021873474121,0.7869147062301636
1772792009475628000,6.4196279296875,9.416027069091797,-10.508365631103516,0.6437848806381226
1772792009495729700,6.439729736328125,11.33959674835205,-12.504398345947266,2.584721326828003
1772792009515831600,6.45983154296875,19.204551696777344,-16.10120964050293,3.416551351547241
1772792009535933400,6.479933349609375,25.868772506713867,-19.926788330078125,1.298349380493164
1772792009556035000,6.50003515625,24.933338165283203,-23.403226852416992,4.372347354888916
1772792009576137000,6.520136962890625,24.129655838012695,-26.020885467529297,11.60489559173584
1772792009596238800,6.54023876953125,27.509077072143555,-27.9312801361084,12.805030822753906
1772792009616340500,6.560340576171875,33.34626007080078,-30.19500732421875,10.983867645263672
1772792009636442400,6.5804423828125,38.73428726196289,-34.27390670776367,12.637347221374512
1772792009656543500,6.60054345703125,39.04629898071289,-37.650333404541016,14.67889404296875
1772792009676644000,6.62064404296875,37.06583786010742,-39.13553237915039,14.60702896118164
1772792009696744700,6.64074462890625,32.75996398925781,-39.981136322021484,15.401130676269531
1772792009716845300,6.66084521484375,23.61941909790039,-37.74615478515625,16.653366088867188
1772792009736946000,6.68094580078125,12.984691619873047,-33.70079040527344,18.149343490600586
1772792009757046500,6.701046630859375,0.49286970496177673,-27.68754005432129,14.277650833129883
1772792009777147100,6.721147216796875,-5.566493034362793,-21.397611618041992,10.338286399841309
1772792009797247700,6.741247802734375,-5.8551483154296875,-16.822248458862305,9.224987983703613
1772792009817348400,6.761348388671875,-7.149904727935791,-13.651233673095703,6.743870735168457
1772792009837449000,6.781448974609375,-8.166186332702637,-11.845641136169434,4.79814338684082
1772792009857549800,6.8015498046875,-6.545046329498291,-10.493992805480957,3.1147210597991943
1772792009877650400,6.821650390625,-6.95167875289917,-9.342965126037598,1.394168496131897
1772792009897751000,6.8417509765625,-9.522625923156738,-7.948197841644287,-0.9725642800331116
1772792009917851600,6.8618515625,-10.850918769836426,-6.4438371658325195,-2.7026987075805664
1772792009937952300,6.8819521484375,-10.217913627624512,-5.746154308319092,-2.9799752235412598
1772792009958052900,6.902052978515625,-10.009507179260254,-6.061758518218994,-3.33390736579895
1772792009978153500,6.922153564453125,-10.633529663085938,-7.274469375610352,-3.343489170074463
1772792009998254000,6.942254150390625,-11.267133712768555,-8.630908966064453,-1.3169143199920654
1772792010018354700,6.962354736328125,-11.961822509765625,-9.170490264892578,-0.23176254332065582
1772792010038455300,6.982455322265625,-11.763596534729004,-8.960287094116211,-1.6702474355697632
1772792010058556000,7.002555908203125,-13.393719673156738,-7.513418674468994,-3.118913173675537
1772792010078656800,7.02265673828125,-15.31309700012207,-4.504098415374756,-3.4345173835754395
1772792010098757400,7.04275732421875,-12.155856132507324,-0.6168357133865356,-3.090766191482544
1772792010118858000,7.06285791015625,-4.040573596954346,4.55081033706665,-2.612868309020996
1772792010138958600,7.08295849609375,-2.3577497005462646,9.341168403625488,-0.31799978017807007
1772792010159059700,7.103059814453125,-4.895759105682373,13.63027286529541,1.6654564142227173
1772792010179161000,7.1231611328125,-11.456376075744629,16.26170539855957,0.025751395151019096
1772792010199262500,7.143262451171875,-13.88119888305664,16.491073608398438,-6.04978084564209
1772792010219364000,7.163364013671875,-12.401391983032227,13.162555694580078,-6.0306172370910645
1772792010239465500,7.183465576171875,-9.121383666992188,8.41052532196045,-4.314855575561523
1772792010259566800,7.20356689453125,-2.0643036365509033,6.355803489685059,-6.708537578582764
1772792010279668500,7.22366845703125,1.4899876117706299,5.902459144592285,-5.279036045074463
1772792010299769900,7.243769775390625,-2.3242130279541016,4.560392379760742,-2.3631396293640137
1772792010319871200,7.263871337890625,-6.11026668548584,2.2248005867004395,-2.028371572494507
1772792010339972900,7.283972900390625,-4.356776714324951,0.356926292181015,-0.6898978352546692
1772792010360074200,7.30407421875,2.122992753982544,-0.015570610761642456,-0.04431635141372681
1772792010380175600,7.324175537109375,7.4217915534973145,-0.28266647458076477,1.0072987079620361
1772792010400277000,7.344277099609375,10.214919090270996,-0.04431635141372681,2.833252191543579
1772792010420378600,7.364378662109375,9.146535873413086,0.7102593779563904,2.111614227294922
1772792010440480000,7.38447998046875,6.027622699737549,1.5223265886306763,-0.8809372186660767
1772792010460581400,7.404581298828125,2.8416364192962646,1.6181457042694092,-2.545196056365967
1772792010480682800,7.424682861328125,-0.20241793990135193,0.6869034767150879,-3.3243253231048584
1772792010500784400,7.444784423828125,-0.9114795923233032,-1.5432870388031006,-2.363738536834717
1772792010520885800,7.4648857421875,-1.3648239374160767,-3.300969362258911,-0.6425871253013611
1772792010540987100,7.484987060546875,-4.214844703674316,-4.967623710632324,-0.9438185691833496
1772792010561088500,7.505088623046875,-4.01182746887207,-8.096118927001953,-1.8612868785858154
1772792010581190100,7.525190185546875,-2.882359504699707,-13.808136940002441,-0.8623722791671753
1772792010601291500,7.54529150390625,-3.2650372982025146,-21.163454055786133,6.1839280128479
1772792010621393000,7.565392822265625,-4.493917942047119,-25.987348556518555,9.797507286071777
1772792010641494500,7.58549462890625,-11.337800025939941,-33.23247528076172,7.593667030334473
1772792010661596400,7.605596435546875,-14.1123628616333,-42.693416595458984,19.840551376342773
1772792010681698600,7.625698486328125,-12.184002876281738,-46.00336837768555,38.0108528137207
1772792010701800400,7.645800537109375,-4.035782337188721,-45.58296203613281,34.28169250488281
1772792010721902600,7.665902587890625,2.4062581062316895,-46.50941467285156,36.3040771484375
1772792010742004700,7.686004638671875,-4.98139762878418,-37.85035705566406,49.03424835205078
1772792010762106600,7.706106689453125,-20.053749084472656,-19.897443771362305,47.1028938293457
1772792010782208800,7.726208740234375,-16.731220245361328,-8.39615249633789,38.258785247802734
1772792010802311000,7.746310791015625,-4.749635219573975,-8.190739631652832,33.23487091064453
1772792010822413000,7.7664130859375,1.4989707469940186,-7.293034553527832,23.821836471557617
1772792010842515000,7.786514892578125,2.727851152420044,-5.82280969619751,16.409027099609375
1772792010862617000,7.8066171875,3.304562568664551,-4.858030319213867,12.604409217834473
1772792010882719200,7.82671923828125,4.4579854011535645,-4.332821846008301,9.90829849243164
1772792010902821000,7.846821044921875,4.183703422546387,-3.8028221130371094,9.195643424987793
1772792010922923300,7.86692333984375,2.0804731845855713,-4.509488582611084,10.199947357177734
1772792010943025400,7.887025390625,0.6767227053642273,-4.113036632537842,10.840738296508789
1772792010963127600,7.90712744140625,-0.8120672106742859,-2.9955458641052246,10.295766830444336
1772792010983229400,7.9272294921875,-1.875060796737671,-2.221806287765503,9.674139976501465
1772792011003331600,7.94733154296875,-2.5841224193573,-2.0499308109283447,9.311224937438965
1772792011023433700,7.967433837890625,-2.7871391773223877,-2.7571957111358643,9.984953880310059
1772792011043536000,7.987535888671875,-0.6138413548469543,-3.892652750015259,10.686229705810547
1772792011063637800,8.0076376953125,1.9433319568634033,-5.187408924102783,10.906015396118164
1772792011083740000,8.027739990234375,3.432121992111206,-7.045102596282959,11.579743385314941
1772792011103842000,8.047842041015626,3.6165738105773926,-8.191338539123535,11.101845741271973
1772792011123944000,8.06794384765625,1.9481229782104492,-8.864468574523926,9.887337684631348
1772792011144046000,8.088046142578126,0.6719317436218262,-10.320919036865234,10.178987503051758
1772792011164147200,8.108147216796874,-0.3257850706577301,-11.328817367553711,9.887337684631348
1772792011204349200,8.14834912109375,-3.7429351806640625,-10.822772026062012,8.214096069335938
1772792011224450300,8.1684501953125,-4.584347248077393,-9.843620300292969,7.243328094482422
1772792011244551400,8.188551513671875,-4.546019554138184,-8.854886054992676,6.2402215003967285
1772792011264652500,8.208652587890626,-4.030991554260254,-7.99071741104126,5.743159770965576
1772792011284753400,8.22875341796875,-3.1045401096343994,-7.427181243896484,6.010854721069336
1772792011304854500,8.2488544921875,-2.5044727325439453,-7.030729293823242,6.2450127601623535
1772792011324955600,8.26895556640625,-1.8570947647094727,-6.424074649810791,5.604820728302002
1772792011345056800,8.289056884765625,-1.4265074729919434,-5.741363048553467,4.471759796142578
1772792011365157600,8.30915771484375,-1.0677845478057861,-5.282629013061523,4.060336112976074
1772792011385258800,8.3292587890625,-0.6845079660415649,-4.953250885009766,3.878878593444824
1772792011405359900,8.34935986328125,-0.2593105435371399,-4.996369361877441,4.705917835235596
1772792011425460700,8.369460693359375,0.07126548886299133,-4.714301586151123,5.680877208709717
1772792011445561900,8.389561767578124,0.01976269856095314,-4.165138244628906,6.546244144439697
1772792011465663000,8.4096630859375,0.16588689386844635,-3.921398401260376,7.913463592529297
1772792011485763800,8.429763916015625,0.8228468894958496,-4.112437725067139,9.907100677490234
1772792011505865000,8.449864990234374,2.260133981704712,-4.00284481048584,13.58835220336914
1772792011525966000,8.469966064453125,3.436912775039673,-3.2865965366363525,17.134857177734375
1772792011546067200,8.490067138671876,3.059026002883911,-2.8949358463287354,18.746416091918945
1772792011566168000,8.51016796875,4.145974636077881,-3.487217903137207,19.544710159301758
1772792011586269200,8.530269287109375,7.189429759979248,-4.022008419036865,18.98536491394043
1772792011606370300,8.550370361328126,7.298424243927002,-4.389714241027832,17.65647315979004
1772792011626471200,8.57047119140625,7.440356254577637,-4.762211322784424,15.266385078430176
1772792011646572300,8.590572265625,7.837407112121582,-4.814911842346191,12.072612762451172
1772792011666673400,8.61067333984375,6.527678966522217,-4.537635326385498,8.405734062194824
1772792011686774500,8.6307744140625,3.9237937927246094,-3.8734889030456543,3.9507429599761963
1772792011706875600,8.650875732421875,1.2767900228500366,-2.8422353267669678,0.8240446448326111
1772792011726976800,8.670976806640626,-0.10360444337129593,-1.8678743839263916,-0.14133323729038239
1772792011747078000,8.691077880859375,-1.3750046491622925,-0.8983044624328613,-0.17486993968486786
1772792011767179000,8.711178955078125,-2.2301905155181885,-0.033536698669195175,-0.4569375216960907
1772792011787280100,8.731280029296874,-3.591421127319336,0.6348018050193787,-0.7437961101531982
1772792011807381200,8.75138134765625,-4.720889568328857,1.2175019979476929,-0.4425646662712097
1772792011827482400,8.771482421875,-4.120821952819824,1.6618632078170776,0.3509376049041748
1772792011847583500,8.79158349609375,-2.82067608833313,2.057716131210327,0.5186210870742798
1772792011867684600,8.8116845703125,-2.1026313304901123,2.649998188018799,0.7911067605018616
1772792011887785700,8.83178564453125,-1.0534117221832275,2.975184440612793,1.4935808181762695
1772792011907886800,8.851886962890624,2.5721449851989746,2.220608711242676,4.7873640060424805
1772792011927988000,8.871988037109375,12.686454772949219,1.0504173040390015,10.189167976379395
1772792011948089000,8.892089111328126,27.419246673583984,-0.16768349707126617,12.627165794372559
1772792011968190500,8.9121904296875,37.202980041503906,-0.034135568886995316,8.181756973266602
1772792011988291300,8.932291259765625,41.669349670410156,1.4085414409637451,6.479769229888916
1772792012008392700,8.952392822265624,44.04207229614258,2.1966538429260254,5.136504650115967
1772792012028493800,8.972493896484375,38.32765579223633,1.646891474723816,-0.45633867383003235
1772792012048595000,8.992594970703125,33.5726318359375,-0.3156042993068695,1.00071120262146
1772792012068696000,9.012696044921874,25.329790115356445,-1.4474679231643677,5.613803863525391
1772792012088797200,9.032797119140625,11.253957748413086,-0.09102818369865417,2.969794511795044
1772792012108898300,9.052898193359376,2.821873664855957,0.9408242106437683,-2.694913387298584
1772792012128999400,9.07299951171875,-2.1876707077026367,0.08144626766443253,-6.6193060874938965
1772792012149100500,9.0931005859375,-6.143803596496582,-2.0439419746398926,-6.576786518096924
1772792012169203000,9.113202880859374,-10.496987342834473,-4.55620002746582,-4.325036525726318
1772792012189305000,9.13330517578125,-16.18325424194336,-6.548040390014648,-0.9312422871589661
1772792012209407500,9.153407470703126,-19.383014678955078,-8.176366806030273,1.1959426403045654
1772792012229510000,9.173510009765625,-20.413070678710938,-9.35614013671875,1.468428373336792
1772792012249612000,9.193612060546876,-18.43739891052246,-10.24486255645752,1.0061010122299194
1772792012269714200,9.213714111328125,-14.60882568359375,-10.846726417541504,1.349852204322815
1772792012289816600,9.233816650390626,-10.9413480758667,-10.803607940673828,2.028970241546631
1772792012309918700,9.253918701171875,-7.9116668701171875,-9.652581214904785,1.5750271081924438
1772792012330021000,9.274021240234376,-3.1710147857666016,-7.718830585479736,0.6473780870437622
1772792012350123300,9.294123291015625,5.719803810119629,-7.126548767089844,6.542051792144775
1772792012370225700,9.3142255859375,22.673803329467773,-6.706141948699951,22.101882934570312
1772792012390327800,9.334327880859375,34.91050720214844,-1.3235019445419312,19.353071212768555
1772792012410430200,9.35443017578125,34.65538787841797,4.054347515106201,7.0151591300964355
1772792012430532400,9.374532470703125,32.13115310668945,4.908934593200684,4.171126842498779
1772792012450634800,9.394634765625,30.141109466552734,4.278923511505127,-0.4808923304080963
1772792012470737000,9.41473681640625,25.04592514038086,4.102256774902344,-3.6596922874450684
1772792012490839300,9.43483935546875,16.42519760131836,4.198076248168945,-3.5165624618530273
1772792012510941400,9.45494140625,13.409290313720703,3.0614216327667236,-3.5213534832000732
1772792012531043800,9.4750439453125,22.86244773864746,-0.7785305380821228,-2.7901337146759033
1772792012551146000,9.49514599609375,39.28225326538086,-6.380956172943115,-3.3015682697296143
1772792012571248400,9.515248291015626,47.804168701171875,-9.275293350219727,-8.010479927062988
1772792012591350500,9.5353505859375,37.96833419799805,-9.193846702575684,-9.214807510375977
1772792012611453000,9.555452880859375,24.615938186645508,-8.601564407348633,-5.3712615966796875
1772792012631555000,9.57555517578125,13.173335075378418,-7.82782506942749,0.3407568335533142
1772792012651657200,9.5956572265625,2.6092751026153564,-7.508028507232666,3.73514986038208
1772792012671759000,9.615759033203124,-5.397013187408447,-8.3248872756958,3.414754629135132
1772792012691860700,9.63586083984375,-12.770296096801758,-9.996332168579102,-0.22816933691501617
1772792012711962400,9.65596240234375,-22.17135238647461,-11.476737976074219,-1.1791743040084839
1772792012732064300,9.676064208984375,-32.673728942871094,-11.858816146850586,-3.0009357929229736
1772792012752166100,9.696166259765626,-35.44829177856445,-11.973200798034668,-4.105251312255859
1772792012772267800,9.716267822265625,-30.51360511779785,-13.344013214111328,-3.531534194946289
1772792012792369700,9.73636962890625,-22.43126106262207,-15.47419261932373,-0.4335816204547882
1772792012812471300,9.75647119140625,-15.209491729736328,-17.862483978271484,3.7585058212280273
1772792012832573200,9.7765732421875,-9.225586891174316,-18.406856536865234,3.299771785736084
1772792012852674800,9.7966748046875,-7.434367656707764,-19.066211700439453,3.849534034729004
1772792012872776700,9.816776611328125,-5.080211162567139,-19.911216735839844,9.175281524658203
1772792012892878300,9.83687841796875,-5.964142799377441,-21.807239532470703,19.409963607788086
1772792012912980200,9.856980224609375,-11.248568534851074,-27.376127243041992,29.05176544189453
1772792012933081900,9.877081787109375,-12.789460182189941,-36.465171813964844,37.355690002441406
1772792012953183700,9.897183837890625,-6.04439115524292,-44.27862548828125,43.95703125
1772792012973285400,9.917285400390625,3.5075795650482178,-45.50151443481445,57.82505416870117
1772792012993387300,9.93738720703125,17.739116668701172,-33.55167007446289,57.61964416503906
1772792013013489000,9.957489013671875,29.32844352722168,-21.83598518371582,43.980987548828125
1772792013033590800,9.9775908203125,24.545270919799805,-16.692293167114258,32.144927978515625
1772792013053692400,9.9976923828125,13.25837516784668,-13.07691764831543,22.96185874938965
1772792013073794300,10.017794189453125,9.637609481811523,-8.883631706237793,14.954373359680176
1772792013093896000,10.03789599609375,10.653890609741211,-5.917430877685547,10.518546104431152
1772792013113997800,10.057997802734375,11.315641403198242,-4.36575984954834,9.10341739654541
1772792013134099500,10.078099365234374,11.253957748413086,-2.6601788997650146,12.40199089050293
1772792013154201300,10.098201416015625,11.514466285705566,-1.2324737310409546,12.946962356567383
1772792013174302700,10.118302734375,10.025077819824219,-1.108507752418518,8.869258880615234
1772792013194404400,10.138404296875,8.38537311553955,-1.672044038772583,5.537148475646973
1772792013214506000,10.158506103515625,7.581689357757568,-2.0110042095184326,4.447206020355225
1772792013234607600,10.178607666015624,6.697758197784424,-2.259535074234009,4.8538384437561035
1772792013254709200,10.198709228515625,5.544334888458252,-3.0662126541137695,5.967136859893799
1772792013274810600,10.218810546875,5.7994537353515625,-4.002245903015137,5.709024429321289
1772792013294912300,10.238912353515625,7.572107791900635,-5.201182842254639,4.25556755065918
1772792013315014000,10.259013916015626,8.550661087036133,-6.824718475341797,3.7249691486358643
1772792013335115500,10.279115478515624,7.231949806213379,-9.102818489074707,4.198076248168945
1772792013355217200,10.299217041015625,6.962458610534668,-12.154658317565918,5.201781749725342
1772792013375318500,10.319318603515624,7.969158172607422,-16.596473693847656,8.638694763183594
1772792013395420200,10.339420166015625,11.835460662841797,-22.203691482543945,14.198599815368652
1772792013415521800,10.359521728515626,19.936370849609375,-26.950929641723633,18.271512985229492
1772792013435623400,10.37962353515625,28.26904296875,-33.95231628417969,23.65415382385254
1772792013455724800,10.399724853515625,30.051279067993164,-42.01010513305664,26.102331161499023
1772792013475826400,10.419826416015624,26.658082962036133,-47.64606857299805,25.57652473449707
1772792013495928000,10.439927978515625,25.410037994384766,-52.274131774902344,27.598907470703125
1772792013516029700,10.46002978515625,23.944604873657227,-55.26848220825195,30.1087703704834
1772792013536131300,10.48013134765625,10.205337524414062,-53.62099075317383,28.29659080505371
1772792013556233000,10.50023291015625,-9.49927043914795,-41.73822021484375,23.205598831176758
1772792013576334300,10.520334228515624,-15.776022911071777,-27.97859001159668,20.59093475341797
1772792013596436000,10.54043603515625,-12.292997360229492,-19.41475486755371,15.738892555236816
1772792013616537600,10.56053759765625,-12.113336563110352,-13.550024032592773,8.893813133239746
1772792013636639200,10.58063916015625,-11.030579566955566,-10.560466766357422,4.901748180389404
1772792013656740400,10.600740234375,-6.233633995056152,-10.679642677307129,3.993262767791748
1772792013676841200,10.62084130859375,-0.7180446982383728,-11.777969360351562,5.192798614501953
1772792013696942000,10.640942138671875,2.0373544692993164,-12.976905822753906,6.742074489593506
1772792013717043000,10.66104296875,-0.2593105435371399,-13.29670238494873,5.661713600158691
1772792013737144000,10.68114404296875,-8.871055603027344,-11.921098709106445,-0.026949133723974228
1772792013757245000,10.701244873046875,-20.342403411865234,-7.775723457336426,-4.506494045257568
1772792013777345800,10.721345703125,-25.063892364501953,-2.8895459175109863,-2.178088903427124
1772792013797446700,10.74144677734375,-25.470523834228516,-0.3629150092601776,0.020960437133908272
1772792013817547800,10.7615478515625,-24.581802368164062,-1.1989370584487915,1.564846396446228
1772792013837648600,10.781648681640625,-24.080547332763672,-3.7495226860046387,5.6521315574646
1772792013857749500,10.80174951171875,-26.150840759277344,-4.2986860275268555,5.628775596618652
1772792013877850400,10.821850341796875,-26.6520938873291,-5.922820568084717,2.5499868392944336
1772792013897951200,10.841951171875,-19.741737365722656,-11.071303367614746,3.1524498462677
1772792013918052400,10.86205224609375,-11.53183364868164,-16.162294387817383,4.76340913772583
1772792013938153200,10.8821533203125,-6.772616863250732,-19.367443084716797,5.303589344024658
1772792013958254000,10.902254150390625,-3.7141895294189453,-21.1059627532959,6.302504062652588
1772792013978355000,10.92235498046875,-1.0013099908828735,-21.616798400878906,10.471235275268555
1772792013998455800,10.942455810546875,-5.547928333282471,-22.806154251098633,13.76980972290039
1772792014018557000,10.962556884765625,-13.559606552124023,-36.7376594543457,18.980573654174805
1772792014038657800,10.98265771484375,-7.949395656585693,-66.87457275390625,27.785755157470703
1772792014058758700,11.002758544921875,6.560616970062256,-93.51948547363281,46.596248626708984
1772792014078859500,11.022859619140625,28.11333656311035,-87.8314208984375,56.22367858886719
1772792014098960600,11.042960693359374,60.62237548828125,-53.276641845703125,33.59359359741211
1772792014119061500,11.0630615234375,51.632144927978516,-28.069019317626953,12.473855972290039
1772792014139162400,11.083162353515625,15.129842758178711,-19.806415557861328,8.500954627990723
1772792014159263500,11.103263427734374,5.143092632293701,-11.156941413879395,8.926751136779785
1772792014179364600,11.123364501953125,16.93064308166504,-8.988434791564941,9.132163047790527
1772792014199466000,11.143466064453126,28.340307235717773,-7.766141414642334,6.574390888214111
1772792014219567000,11.163567138671874,26.974287033081055,-3.7207770347595215,3.233297109603882
1772792014239668500,11.18366845703125,17.24265480041504,-2.1685068607330322,-0.137141153216362
1772792014259769600,11.20376953125,11.28270435333252,-2.388292074203491,-4.186098575592041
1772792014279870700,11.22387060546875,9.481903076171875,-2.3451735973358154,-6.375566005706787
1772792014299972000,11.24397216796875,7.0427069664001465,-4.5184712409973145,-5.825803756713867
1772792014320073200,11.2640732421875,3.526743173599243,-10.765280723571777,-3.354268789291382
1772792014340174600,11.284174560546875,5.208968162536621,-20.43702507019043,1.1821686029434204
1772792014360275700,11.304275634765625,17.82415771484375,-28.881086349487305,7.339746475219727
1772792014380376800,11.324376953125,37.81203079223633,-32.949806213378906,11.627653121948242
1772792014400478200,11.344478271484375,42.396976470947266,-39.21158981323242,14.118351936340332
1772792014420579600,11.36457958984375,23.803272247314453,-42.740726470947266,18.56376075744629
1772792014440680700,11.3846806640625,11.178500175476074,-38.66242599487305,19.113523483276367
1772792014460781800,11.40478173828125,6.457012176513672,-34.482913970947266,19.529138565063477
1772792014480883200,11.42488330078125,8.791406631469727,-31.965864181518555,18.420032501220703
1772792014500984300,11.444984375,22.01145362854004,-31.870643615722656,14.6914701461792
1772792014521085700,11.465085693359375,30.5992431640625,-40.18534851074219,16.00598907470703
1772792014541186800,11.485186767578124,24.185949325561523,-48.67732238769531,20.661602020263672
1772792014581389300,11.525389404296876,8.148818969726562,-48.65336608886719,23.81644630432129
1772792014601490400,11.545490478515624,4.617883682250977,-47.45922088623047,23.65894317626953
1772792014621591800,11.565591796875,-8.857281684875488,-42.77845764160156,14.604633331298828
1772792014641693000,11.58569287109375,-11.106636047363281,-38.91035842895508,11.855822563171387
1772792014661794000,11.6057939453125,-5.3874311447143555,-37.907249450683594,11.737245559692383
1772792014681895400,11.6258955078125,-13.918928146362305,-30.81004524230957,1.9044054746627808
1772792014701996500,11.64599658203125,-18.53681182861328,-20.967025756835938,-3.315941095352173
1772792014722098000,11.666097900390625,-16.036531448364258,-15.001684188842773,-5.662911415100098
1772792014742199000,11.686198974609376,-19.127296447753906,-11.710895538330078,-8.373394966125488
1772792014762300200,11.706300048828124,-20.738855361938477,-9.389677047729492,-12.53254508972168
1772792014782401500,11.726401611328125,-18.678144454956055,-9.461541175842285,-16.265897750854492
1772792014802502700,11.746502685546876,-14.10338020324707,-11.424635887145996,-20.171127319335938
1772792014822604000,11.76660400390625,-7.2403340339660645,-12.546917915344238,-20.137590408325195
1772792014842705200,11.786705078125,-3.591421127319336,-11.080286026000977,-18.603885650634766
1772792014862806300,11.80680615234375,-10.024478912353516,-9.7286376953125,-18.03495979309082
1772792014882907600,11.82690771484375,-26.344873428344727,-9.026762008666992,-18.369728088378906
1772792014903008800,11.8470087890625,-31.44963836669922,-10.416738510131836,-13.56080436706543
1772792014923110100,11.867110107421874,-19.78904914855957,-12.799640655517578,-5.108956813812256
1772792014943211300,11.887211181640625,-13.729684829711914,-14.442938804626465,1.985252857208252
1772792014963312400,11.9073125,-11.276715278625488,-16.100011825561523,-0.9450162649154663
1772792014983413800,11.927413818359375,-7.367893218994141,-19.901636123657227,-2.3170266151428223
1772792015003515000,11.947514892578125,-8.54047966003418,-25.962196350097656,1.492982029914856
1772792015023616000,11.967615966796876,-11.366545677185059,-33.50855255126953,6.201294898986816
1772792015043717400,11.98771728515625,-13.866826057434082,-43.5048828125,16.986337661743164
1772792015063818500,12.007818603515625,-14.10338020324707,-55.67451477050781,23.53976821899414
1772792015083920000,12.027919921875,-14.131526947021484,-70.112060546875,26.63772201538086
1772792015104021000,12.04802099609375,-28.608600616455078,-79.65444946289062,40.14223098754883
1772792015124122000,12.0681220703125,-40.73211669921875,-78.2554931640625,61.16135787963867
1772792015144223500,12.088223388671874,-15.110079765319824,-68.05374908447266,52.55200958251953
1772792015164323800,12.10832373046875,22.304899215698242,-60.755924224853516,32.11138916015625
1772792015204524300,12.148524169921876,30.335142135620117,-27.524646759033203,45.510498046875
1772792015224624400,12.168624267578124,18.33918571472168,-17.33248519897461,37.120933532714844
1772792015244724700,12.188724853515625,24.771642684936523,-13.97462272644043,20.365758895874023
1772792015264825000,12.2088251953125,27.900737762451172,-11.930681228637695,19.338098526000977
1772792015284925200,12.22892529296875,28.260059356689453,-12.069019317626953,20.60470962524414
1772792015305025500,12.249025634765625,26.374217987060547,-11.481528282165527,19.333309173583984
1772792015325125600,12.269125732421875,18.353557586669922,-11.309653282165527,18.252946853637695
1772792015345226000,12.28922607421875,9.146535873413086,-13.736272811889648,19.433917999267578
1772792015365326000,12.309326171875,3.262042999267578,-17.55706024169922,20.547815322875977
1772792015385426400,12.329426513671875,6.286933422088623,-19.987873077392578,19.534528732299805
1772792015405526800,12.34952685546875,10.016094207763672,-21.024517059326172,20.76280975341797
1772792015425627000,12.369626953125,10.771867752075195,-22.96784782409668,23.024141311645508
1772792015445727200,12.389727294921874,9.500468254089355,-26.769472122192383,22.077329635620117
1772792015465827300,12.409827392578125,4.7933526039123535,-27.64861297607422,19.20395278930664
1772792015485927700,12.429927734375,2.1271848678588867,-25.179473876953125,17.22528648376465
1772792015506027800,12.45002783203125,5.955758571624756,-23.369091033935547,16.073062896728516
1772792015526128000,12.470128173828124,8.820152282714844,-23.8182430267334,21.422164916992188
1772792015546228500,12.490228515625,15.25261116027832,-25.54718017578125,26.370027542114258
1772792015566328600,12.51032861328125,24.346446990966797,-34.25354766845703,31.09271240234375
1772792015586429000,12.530428955078126,25.287269592285156,-53.257476806640625,34.4391975402832
1772792015606529000,12.550529052734374,14.855560302734375,-73.68492126464844,20.781375885009766
1772792015626629400,12.57062939453125,-5.411386013031006,-73.96639251708984,-3.9567317962646484
1772792015646729700,12.590729736328125,-17.8846435546875,-49.11689376831055,-19.1195125579834
1772792015666831400,12.610831298828124,-13.942283630371094,-26.57903289794922,-14.56870174407959
1772792015686932700,12.6309326171875,-7.060673236846924,-18.69850730895996,-2.5607664585113525
1772792015707034400,12.651034423828126,-3.624359130859375,-16.78811264038086,0.8959089517593384
1772792015727136000,12.671135986328125,0.005389826837927103,-17.795412063598633,-5.686866283416748
1772792015747237600,12.691237548828125,6.622300624847412,-17.819366455078125,-18.287681579589844
1772792015767339000,12.711339111328124,13.021821022033691,-13.148781776428223,-28.560691833496094
1772792015787440600,12.731440673828125,17.68222427368164,-12.260059356689453,-30.927425384521484
1772792015807542300,12.751542236328126,19.936969757080078,-14.060860633850098,-30.73578643798828
1772792015827643600,12.7716435546875,18.42901611328125,-15.560429573059082,-30.793277740478516
1772792015847745300,12.791745361328125,10.101134300231934,-18.106224060058594,-27.56656837463379
1772792015867847000,12.811846923828124,0.11857619136571884,-21.392221450805664,-22.41329574584961
1772792015887948300,12.8319482421875,-5.978515625,-25.437585830688477,-15.811955451965332
1772792015908050000,12.8520498046875,-6.375566005706787,-30.012950897216797,-8.081746101379395
1772792015928151600,12.872151611328125,-2.079275369644165,-32.515625,-3.1392745971679688
1772792015948253000,12.8922529296875,3.002133369445801,-36.828086853027344,-0.8971067070960999
1772792015968354600,12.9123544921875,5.672492980957031,-44.551109313964844,4.093873023986816
1772792015988456200,12.932456298828125,5.180821418762207,-48.97376251220703,12.014522552490234
1772792016008557800,12.952557861328126,-2.717071533203125,-48.821048736572266,19.409963607788086
1772792016028659200,12.9726591796875,-12.675674438476562,-47.28794479370117,32.89530944824219
1772792016048760800,12.9927607421875,-6.550436019897461,-44.86611557006836,51.739341735839844
1772792016068862500,13.012862548828124,16.008983612060547,-35.0943603515625,54.7558479309082
1772792016088963800,13.0329638671875,24.535688400268555,-21.611408233642578,46.60523223876953
1772792016109065500,13.0530654296875,1.6121571063995361,-10.750907897949219,38.70793914794922
1772792016129167000,13.0731669921875,-13.337425231933594,-0.8120672106742859,30.33753776550293
1772792016149268700,13.093268798828126,-10.000524520874023,4.8095221519470215,23.276865005493164
1772792016169370600,13.11337060546875,-5.269454002380371,4.814312934875488,22.2971134185791
1772792016189472800,13.13347265625,-5.912041187286377,2.9230825901031494,23.573305130004883
1772792016209574700,13.15357470703125,-4.674177646636963,0.062282443046569824,22.531272888183594
1772792016229676800,13.1736767578125,0.9791518449783325,-2.650597095489502,15.351424217224121
1772792016249778700,13.19377880859375,6.13062858581543,-4.575364112854004,7.578695297241211
1772792016269880800,13.213880859375,11.315641403198242,-4.957442760467529,2.6691620349884033
1772792016289982700,13.233982666015624,16.079648971557617,-5.5353522300720215,1.9996256828308105
1772792016310084600,13.254084716796875,19.723772048950195,-8.353632926940918,6.273159503936768
1772792016330186800,13.274186767578126,23.817045211791992,-12.327132225036621,12.808025360107422
1772792016350288600,13.29428857421875,21.80843734741211,-16.281469345092773,21.728187561035156
1772792016370390800,13.314390869140626,14.501029014587402,-16.682710647583008,29.42007064819336
1772792016390492700,13.33449267578125,20.437623977661133,-17.962495803833008,32.192237854003906
1772792016410594800,13.3545947265625,23.382266998291016,-19.801624298095703,25.456750869750977
1772792016430696700,13.37469677734375,13.665007591247559,-20.217239379882812,16.55575180053711
1772792016450798800,13.394798828125,4.159748554229736,-17.905603408813477,10.437100410461426
1772792016470900700,13.414900634765624,-0.855185866355896,-14.81064510345459,9.413631439208984
1772792016491002600,13.435002685546875,-1.9894449710845947,-12.594228744506836,11.03896427154541
1772792016511104800,13.455104736328124,-0.07066661864519119,-11.82528018951416,11.49350643157959
1772792016531206700,13.47520654296875,6.764232635498047,-12.374443054199219,14.112961769104004
1772792016551308800,13.495308837890626,13.116442680358887,-15.106486320495605,19.76808738708496
1772792016571410700,13.51541064453125,14.36867904663086,-20.025602340698242,20.800539016723633
1772792016591512800,13.535512939453126,16.855186462402344,-26.7215633392334,16.426395416259766
1772792016611614700,13.55561474609375,12.06722354888916,-31.445446014404297,8.557847023010254
1772792016631716900,13.575716796875,4.249578952789307,-29.802148818969727,1.1534229516983032
1772792016651818500,13.595818603515625,-0.6851068735122681,-26.492794036865234,-2.326608419418335
1772792016671919900,13.615919921875,-3.8471386432647705,-23.364299774169922,-6.53366756439209
1772792016692021500,13.636021484375,-6.625893592834473,-18.631433486938477,-12.53254508972168
1772792016712123000,13.656122802734375,-7.618819713592529,-14.089606285095215,-16.481491088867188
1772792016732224300,13.676224365234376,-6.101284027099609,-10.43590259552002,-24.106300354003906
1772792016752325600,13.69632568359375,-4.555601119995117,-10.655088424682617,-29.17812728881836
1772792016772427000,13.716427001953125,0.8749485611915588,-13.860239028930664,-31.353219985961914
1772792016792528400,13.7365283203125,9.278286933898926,-15.82752513885498,-37.524574279785156
1772792016812629800,13.756629638671875,11.334206581115723,-17.848112106323242,-41.91788101196289
1772792016832731100,13.776731201171875,5.256278991699219,-22.90556526184082,-36.08069610595703
1772792016852832500,13.79683251953125,-1.8762586116790771,-30.079425811767578,-24.32608413696289
1772792016872934100,13.81693408203125,-3.7052063941955566,-38.40371322631836,-13.350601196289062
1772792016893035500,13.837035400390626,-0.6851068735122681,-48.09461975097656,-5.199985027313232
1772792016913137000,13.857136962890625,2.9117040634155273,-56.19013977050781,3.997454881668091
1772792016933238300,13.87723828125,3.0206985473632812,-56.256614685058594,14.81064510345459
1772792016953339600,13.897339599609374,0.15151402354240417,-49.8331413269043,20.313058853149414
1772792016973441000,13.91744091796875,-5.184414386749268,-43.103641510009766,19.992664337158203
1772792016993542700,13.937542724609376,-15.162181854248047,-39.79848098754883,27.220420837402344
1772792017033745400,13.977745361328125,-0.08444061875343323,-25.852603912353516,52.00164794921875
1772792017053846800,13.9978466796875,14.41658878326416,-15.331062316894531,32.97196578979492
1772792017073948200,14.0179482421875,19.260845184326172,-13.922521591186523,29.25298500061035
1772792017094049500,14.038049560546876,11.419844627380371,-8.291350364685059,31.86285972595215
1772792017114151000,14.05815087890625,3.09196400642395,-2.354755401611328,25.51963233947754
1772792017134252300,14.078252197265625,-4.825092792510986,0.5533555150032043,22.359994888305664
1772792017154354000,14.09835400390625,-8.833327293395996,-0.5018527507781982,24.324886322021484
1772792017174455300,14.118455322265625,-7.2355427742004395,-2.0637047290802,26.35146141052246
1772792017194557000,14.138556884765626,-3.3075571060180664,-3.1332859992980957,26.91080665588379
1772792017214658600,14.158658447265625,1.2815810441970825,-6.209080219268799,25.113597869873047
1772792017234760000,14.178760009765625,5.138301372528076,-8.334468841552734,23.65056037902832
1772792017254861600,14.198861572265624,3.9615225791931152,-9.141744613647461,23.1433162689209
1772792017274963200,14.218963134765625,0.1563049703836441,-10.00112247467041,22.73728370666504
1772792017315166200,14.259166259765625,5.70543098449707,-11.20005989074707,19.739940643310547
1772792017335267800,14.279267822265625,10.29456901550293,-11.510273933410645,20.122617721557617
1772792017355369500,14.299369384765624,12.785866737365723,-11.419844627380371,19.20934295654297
1772792017375470800,14.319470947265625,10.701201438903809,-10.994647979736328,19.596811294555664
1772792017395572500,14.339572509765626,8.295541763305664,-10.909008979797363,24.051801681518555
1772792017415674000,14.359674072265625,8.630908966064453,-12.145674705505371,28.631359100341797
1772792017435775500,14.379775390625,10.27121353149414,-14.81064510345459,35.58184051513672
1772792017455877000,14.399877197265624,9.807687759399414,-23.6463680267334,38.09170150756836
1772792017475978800,14.419978759765625,8.862671852111816,-37.00475311279297,28.607402801513672
1772792017496080100,14.440080078125,5.540143013000488,-47.1537971496582,14.629786491394043
1772792017516181800,14.460181640625,-0.3730957806110382,-46.332149505615234,2.3775124549865723
1772792017536283100,14.480283203125,-2.1595239639282227,-37.9982795715332,-1.8391286134719849
1772792017556384800,14.500384765625,-0.24074558913707733,-30.83879280090332,-1.212710976600647
1772792017576486400,14.520486328125,1.7918179035186768,-25.91009521484375,-2.0589137077331543
1772792017596588000,14.540588134765626,1.754089117050171,-20.952651977539062,-7.398435592651367
1772792017616689400,14.560689453125,1.1540217399597168,-17.652280807495117,-15.295729637145996
1772792017656892700,14.600892578125,5.6341657638549805,-11.686941146850586,-27.56656837463379
1772792017676994600,14.62099462890625,15.3472318649292,-12.551708221435547,-33.01628112792969
1772792017697096200,14.64109619140625,26.9132022857666,-13.635663032531738,-35.234493255615234
1772792017717198000,14.661197998046875,30.368080139160156,-14.605232238769531,-32.9162712097168
1772792017737300000,14.681300048828126,19.922595977783203,-18.684133529663086,-25.110004425048828
1772792017757401600,14.701401611328125,10.810195922851562,-25.222593307495117,-17.46124267578125
1772792017777503500,14.72150341796875,6.655238151550293,-34.40206527709961,-8.651270866394043
1772792017797605000,14.741605224609375,2.079874277114868,-41.27469253540039,0.29284724593162537
1772792017817707000,14.76170703125,0.019163828343153,-41.56095504760742,4.475951671600342
1772792017837809000,14.781808837890624,3.909420967102051,-38.84807586669922,11.072500228881836
1772792017857910500,14.80191064453125,7.73799467086792,-34.22060775756836,15.686192512512207
1772792017878012400,14.822012451171876,6.603735446929932,-31.35980796813965,12.186997413635254
1772792017898114000,14.842114013671875,1.9954335689544678,-32.133548736572266,7.287045955657959
1772792017918216000,14.8622158203125,1.2815810441970825,-33.2989501953125,12.765504837036133
1772792017938317600,14.882317626953125,3.2806079387664795,-31.7323055267334,24.654264450073242
1772792017958419500,14.90241943359375,9.217202186584473,-30.676498413085938,29.39132308959961
1772792017978521300,14.922521240234374,12.26125717163086,-28.03069305419922,31.13163948059082
1772792017998623000,14.942623046875,15.730508804321289,-19.33869743347168,31.53767204284668
1772792018018724900,14.962724853515626,14.822622299194336,-11.338398933410645,32.379085540771484
1772792018038826800,14.98282666015625,6.976831436157227,-8.066774368286133,30.67290496826172
1772792018058928400,15.002928466796876,0.7425983548164368,-6.758244037628174,25.74839973449707
1772792018079030300,15.0230302734375,0.10899427533149719,-6.591159343719482,22.024627685546875
1772792018099132000,15.0431318359375,3.129692792892456,-7.302616119384766,23.35831069946289
1772792018119233800,15.06323388671875,2.784144878387451,-6.37616491317749,23.80267333984375
1772792018139335400,15.08333544921875,3.290189743041992,-5.812628746032715,18.77875518798828
1772792018159436800,15.103436767578126,3.2099411487579346,-6.758244037628174,15.704757690429688
1772792018179537700,15.12353759765625,3.97529673576355,-9.432795524597168,17.564247131347656
1772792018199638800,15.143638671875,2.821873664855957,-11.467155456542969,22.51689910888672
1772792018239840800,15.1838408203125,10.719766616821289,-13.831493377685547,24.108694076538086
1772792018259941600,15.203941650390625,13.03619384765625,-17.361230850219727,22.4174861907959
1772792018280042800,15.224042724609374,13.320058822631836,-20.093273162841797,18.258337020874023
1772792018300143600,15.2441435546875,13.13560676574707,-19.391399383544922,12.063031196594238
1772792018320244700,15.26424462890625,7.714638710021973,-15.026238441467285,7.684695243835449
1772792018340345600,15.284345703125,-7.495452404022217,-9.466931343078613,22.532470703125
1772792018360446700,15.30444677734375,-1.875659704208374,-8.568626403808594,19.32492446899414
1772792018380547600,15.324547607421875,3.526743173599243,-9.944230079650879,15.625107765197754
1772792018400648700,15.344648681640624,-0.2593105435371399,-12.27023983001709,25.18067169189453
1772792018420749800,15.364749755859375,4.769996643066406,-16.4587345123291,33.48938751220703
1772792018440850700,15.3848505859375,8.57940673828125,-24.3727970123291,26.242467880249023
1772792018460951800,15.404951904296874,10.47422981262207,-32.18085861206055,14.72979736328125
1772792018481052700,15.425052734375,9.448366165161133,-36.656211853027344,10.953325271606445
1772792018501153800,15.44515380859375,6.84927225112915,-38.461204528808594,8.42909049987793
1772792018521254700,15.465254638671874,5.241905689239502,-37.300594329833984,3.701014280319214
1772792018541355800,15.485355712890625,8.205711364746094,-33.71875762939453,-0.9551970958709717
1772792018561456600,15.50545654296875,7.5104241371154785,-29.74046516418457,-4.105251312255859
1772792018581557800,15.525557861328124,-1.105513334274292,-25.284276962280273,-13.092488288879395
1772792018601658600,15.54565869140625,-4.1118388175964355,-22.413894653320312,-21.58266258239746
1772792018621759500,15.565759521484376,3.4884157180786133,-20.565183639526367,-24.732717514038086
1772792018641860600,15.585860595703124,10.247258186340332,-16.534191131591797,-29.852453231811523
1772792018661961500,15.60596142578125,13.15417194366455,-12.838566780090332,-36.467567443847656
1772792018682062300,15.626062255859376,16.845603942871094,-11.066512107849121,-38.66661834716797
1772792018702163200,15.6461630859375,13.513493537902832,-11.658794403076172,-35.138675689697266
1772792018722264000,15.66626416015625,5.974922180175781,-13.94168472290039,-29.846464157104492
1772792018742364700,15.68636474609375,0.44016918540000916,-18.14455223083496,-23.421791076660156
1772792018762465500,15.706465576171874,-2.9105064868927,-22.56720542907715,-17.651681900024414
1772792018782566400,15.72656640625,-4.626267910003662,-26.39757537841797,-13.750645637512207
1772792018802667300,15.746667236328125,-4.343002796173096,-31.75625991821289,-9.4387845993042
1772792018822768000,15.76676806640625,-2.8590035438537598,-37.55930709838867,-2.421229839324951
1772792018842869000,15.786868896484375,0.7186435461044312,-39.79907989501953,2.233783721923828
1772792018862969600,15.806969482421875,6.2018938064575195,-40.00868225097656,1.8804506063461304
1772792018883070500,15.827070556640624,7.917056560516357,-40.83991622924805,1.492982029914856
1772792018903171300,15.84717138671875,5.336527347564697,-43.63364028930664,1.6456937789916992
1772792018923272200,15.867272216796875,2.8362464904785156,-48.07545852661133,11.928285598754883
1772792018943373000,15.887373046875,16.703672409057617,-49.847511291503906,30.447729110717773
1772792018963474000,15.907473876953125,34.909908294677734,-40.83512496948242,27.359359741210938
1772792018983574800,15.92757470703125,34.55058670043945,-32.20481491088867,13.534453392028809
1772792019003675400,15.94767529296875,21.770708084106445,-28.35527992248535,18.329004287719727
1772792019023776300,15.9677763671875,15.23404598236084,-20.465171813964844,24.0607852935791
1772792019043877000,15.987877197265625,18.750608444213867,-14.027323722839355,20.21304702758789
1772792019063978000,16.00797802734375,20.002843856811523,-11.453381538391113,15.217876434326172
1772792019084078800,16.028078857421875,10.205337524414062,-8.821949005126953,10.70539379119873
1772792019104179700,16.0481796875,4.004042148590088,-9.084253311157227,8.099711418151855
1772792019124280300,16.0682802734375,9.543586730957031,-10.383201599121094,5.723996162414551
1772792019144381200,16.088381103515626,16.59527587890625,-12.70442008972168,9.108807563781738
1772792019164482300,16.108482421875,21.03829002380371,-16.219785690307617,19.42014503479004
1772792019184583400,16.12858349609375,30.330350875854492,-18.669761657714844,26.203540802001953
1772792019204684500,16.1486845703125,32.24913024902344,-21.473669052124023,24.68301010131836
1772792019224785700,16.16878564453125,22.276752471923828,-23.770933151245117,22.59894371032715
1772792019244886500,16.188886474609376,19.275218963623047,-24.954896926879883,21.75274085998535
1772792019264987600,16.208987548828127,22.72051429748535,-29.048171997070312,19.247669219970703
1772792019285088800,16.2290888671875,23.96855926513672,-33.585208892822266,15.409514427185059
1772792019305190000,16.24918994140625,19.345884323120117,-37.61140823364258,16.370101928710938
1772792019325291000,16.269291015625,13.012838363647461,-40.68720245361328,16.207807540893555
1772792019345392000,16.28939208984375,9.77055835723877,-39.21638107299805,10.977879524230957
1772792019365493200,16.3094931640625,2.0331623554229736,-36.87599563598633,12.6607027053833
1772792019385594400,16.329594482421875,-2.51824688911438,-34.23019027709961,14.826215744018555
1772792019405695200,16.3496953125,-1.3276939392089844,-32.171875,13.43025016784668
1772792019425796400,16.36979638671875,-1.2420556545257568,-31.326271057128906,7.569712162017822
1772792019445897500,16.3898974609375,-5.751543998718262,-29.18651008605957,2.43021297454834
1772792019465998600,16.40999853515625,-9.27708911895752,-25.241756439208984,1.732529878616333
1772792019486099700,16.430099609375,-11.668974876403809,-21.138900756835938,1.9666879177093506
1772792019506200800,16.450200927734375,-14.433956146240234,-16.664146423339844,-2.354755401611328
1772792019526302000,16.470302001953126,-19.070404052734375,-12.976905822753906,-8.612343788146973
1772792019546403000,16.490403076171877,-24.350038528442383,-10.287981033325195,-13.808136940002441
1772792019566504200,16.510504150390624,-24.694988250732422,-6.863645076751709,-17.852304458618164
1772792019586605000,16.53060498046875,-21.079612731933594,-5.478459358215332,-20.64423370361328
1772792019606706200,16.5507060546875,-16.04072380065918,-6.6199049949646,-20.71609878540039
1772792019626807300,16.570807373046875,-14.036905288696289,-6.46240234375,-18.980573654174805
1772792019646908400,16.590908447265626,-17.52532196044922,-5.3922224044799805,-16.853988647460938
1772792019667009300,16.61100927734375,-22.265972137451172,-6.949283123016357,-9.702286720275879
1772792019687110400,16.6311103515625,-21.249691009521484,-10.025077819824219,-3.2584497928619385
1772792019707211500,16.65121142578125,-17.321704864501953,-14.189617156982422,-1.432496190071106
1772792019727312400,16.6713125,-13.569188117980957,-19.66807746887207,-0.06527678668498993
1772792019747413500,16.69141357421875,-10.662275314331055,-25.05970001220703,5.2886176109313965
1772792019767514600,16.7115146484375,-9.419620513916016,-30.79627227783203,9.457348823547363
1772792019787615500,16.731615478515625,-4.934086799621582,-38.81034469604492,10.002320289611816
1772792019807716600,16.751716552734376,5.903656959533691,-43.285099029541016,9.280083656311035
1772792019827817500,16.7718173828125,11.424635887145996,-42.234683990478516,10.886252403259277
1772792019847918600,16.791918701171873,11.443201065063477,-38.19410705566406,13.817120552062988
1772792019868019500,16.81201953125,7.340943813323975,-36.19807815551758,15.46640682220459
1772792019888120600,16.83212060546875,6.542051792144775,-41.54718017578125,14.25728988647461
1772792019908221700,16.8522216796875,32.291648864746094,-39.603248596191406,6.670808792114258
1772792019928322600,16.872322509765624,41.168094635009766,-27.462364196777344,6.264176368713379
1772792019948423700,16.892423583984375,26.166410446166992,-20.900550842285156,14.433956146240234
1772792019968524500,16.912524658203125,28.71400260925293,-20.80952262878418,19.04225730895996
1772792019988625700,16.932625732421876,40.383575439453125,-23.503236770629883,21.44192886352539
1772792020008726800,16.952726806640626,43.79114532470703,-23.249916076660156,23.57869529724121
1772792020028827600,16.97282763671875,41.49448013305664,-22.88220977783203,22.40790557861328
1772792020048928800,16.9929287109375,37.08440399169922,-26.420930862426758,22.99539566040039
1772792020069030000,17.01302978515625,33.22289276123047,-32.9162712097168,25.734027862548828
1772792020089130800,17.033130859375,31.048397064208984,-40.69678497314453,21.154470443725586
1772792020109231900,17.05323193359375,23.906875610351562,-44.96193313598633,13.261967658996582
1772792020129332700,17.073332763671875,15.304712295532227,-42.0723876953125,7.420593738555908
1772792020149434000,17.09343408203125,9.127371788024902,-35.18059539794922,5.661114692687988
1772792020169536500,17.11353662109375,6.121046543121338,-28.025901794433594,3.9645168781280518
1772792020189639000,17.133638916015624,2.2409701347351074,-22.146198272705078,2.171501398086548
1772792020209741300,17.1537412109375,-2.0601115226745605,-17.757083892822266,1.4977729320526123
1772792020229843700,17.17384375,-5.7281880378723145,-14.09379768371582,1.4019538164138794
1772792020249946000,17.193946044921876,-9.636411666870117,-11.114421844482422,1.8181681632995605
1772792020270048500,17.214048583984376,-11.182093620300293,-8.888422966003418,2.128981590270996
1772792020290151000,17.23415087890625,-8.502152442932129,-7.379271507263184,1.6175469160079956
1772792020310253300,17.25425341796875,-5.567091941833496,-6.481565952301025,0.4892764985561371
1772792020330355700,17.274355712890625,-6.715723991394043,-5.898865699768066,-0.3227907419204712
1772792020350458000,17.2944580078125,-9.877756118774414,-4.895759105682373,-0.7437961101531982
1772792020370560500,17.314560546875,-10.936556816101074,-3.6776583194732666,-1.2169030904769897
1772792020390663000,17.334662841796874,-10.822772026062012,-3.018901824951172,-1.4510611295700073
1772792020410765300,17.354765380859376,-9.763970375061035,-2.8470263481140137,-2.2349815368652344
1772792020430867700,17.37486767578125,-8.979451179504395,-2.8613991737365723,-2.9901561737060547
1772792020450970000,17.39497021484375,-9.04113483428955,-3.0668113231658936,-3.9417598247528076
1772792020471072500,17.415072509765626,-9.64599323272705,-2.0205862522125244,-5.400007724761963
1772792020491175000,17.4351748046875,-10.510761260986328,-0.24373994767665863,-5.380843639373779
1772792020511277300,17.45527734375,-9.532806396484375,1.5804169178009033,-4.969420433044434
1772792020531379700,17.475379638671875,-5.5575103759765625,4.402889728546143,-3.6644833087921143
1772792020551482000,17.495482177734374,-4.2765278816223145,6.557023525238037,1.7708574533462524
1772792020571584500,17.51558447265625,-2.2960662841796875,8.820751190185547,5.963543891906738
1772792020591687000,17.53568701171875,1.2246884107589722,7.425983428955078,5.542538642883301
1772792020611789300,17.555789306640627,0.5677284002304077,1.685219168663025,3.4728450775146484
1772792020631891700,17.5758916015625,-7.1361308097839355,-3.7591047286987305,1.804394245147705
1772792020651993600,17.59599365234375,-11.711494445800781,-10.268817901611328,1.5223265886306763
1772792020672094700,17.6160947265625,-3.5818393230438232,-20.12681007385254,1.9044054746627808
1772792020692195800,17.63619580078125,8.697383880615234,-27.05154037475586,2.4541678428649902
1772792020712297000,17.656296875,6.787588596343994,-31.431673049926758,6.211475849151611
1772792020732398000,17.676398193359375,0.9036942720413208,-38.10367965698242,7.679305553436279
1772792020752499200,17.696499267578126,7.728412628173828,-43.32402420043945,3.233297109603882
1772792020792701200,17.736701171875,28.127708435058594,-38.11326217651367,6.823520660400391
1772792020812802300,17.75680224609375,35.79862976074219,-29.339820861816406,5.6191935539245605
1772792020832903400,17.7769033203125,31.686790466308594,-19.214134216308594,5.12632417678833
1772792020853004500,17.797004638671876,21.3736572265625,-13.98420524597168,6.330650806427002
1772792020873105700,17.817105712890626,21.680877685546875,-12.427144050598145,8.079949378967285
1772792020893206800,17.837206787109373,26.57723617553711,-10.722162246704102,11.086874008178711
1772792020913308000,17.857307861328124,24.417112350463867,-8.969270706176758,13.476962089538574
1772792020933408800,17.87740869140625,18.244564056396484,-10.105925559997559,14.141707420349121
1772792020953510000,17.897510009765625,13.688363075256348,-13.92192268371582,14.877717971801758
1772792020973611000,17.917611083984376,14.95018196105957,-15.93771743774414,13.07512092590332
1772792020993712000,17.937712158203126,22.20069694519043,-17.747501373291016,8.61054801940918
1772792021013813200,17.957813232421874,29.42246437072754,-21.697046279907227,8.839914321899414
1772792021033914400,17.977914306640624,24.861474990844727,-27.29947280883789,14.145899772644043
1772792021054015500,17.998015380859375,18.783546447753906,-29.87940216064453,13.00505256652832
1772792021074116600,18.01811669921875,20.22083282470703,-30.118350982666016,7.5218024253845215
1772792021094217700,18.0382177734375,26.54010581970215,-31.059175491333008,4.959838390350342
1772792021114318800,18.05831884765625,30.7651309967041,-33.48040771484375,5.193996429443359
1772792021134419700,18.078419677734374,21.889284133911133,-33.9678840637207,4.4196577072143555
1772792021154520800,18.098520751953124,8.7638578414917,-30.342927932739258,4.118426322937012
1772792021174622000,18.1186220703125,2.6380207538604736,-25.786727905273438,3.9800875186920166
1772792021194723000,18.13872314453125,0.062282443046569824,-22.39592742919922,4.501104354858398
1772792021234925300,18.17892529296875,-4.76340913772583,-15.690384864807129,5.739566802978516
1772792021255026400,18.1990263671875,-7.793090343475342,-12.75232982635498,5.714414119720459
1772792021275127600,18.21912744140625,-9.088445663452148,-10.321517944335938,4.581352710723877
1772792021295228700,18.239228759765624,-7.003780364990234,-8.817157745361328,2.7649810314178467
1772792021315329800,18.259329833984374,-5.009544372558594,-8.081147193908691,1.589400053024292
1772792021335431000,18.279430908203125,-5.58625602722168,-7.422390460968018,0.8863270878791809
1772792021355532000,18.299531982421875,-7.632593631744385,-6.371374130249023,-0.8012875914573669
1772792021375633200,18.319633056640626,-9.763970375061035,-4.977205753326416,-0.8965078592300415
1772792021395734300,18.339734375,-11.134782791137695,-3.5057828426361084,-1.4750158786773682
1772792021415835400,18.35983544921875,-12.42055606842041,-2.249953269958496,-4.314855575561523
1772792021435936500,18.3799365234375,-13.7015380859375,-0.9791518449783325,-6.70973539352417
1772792021456037600,18.40003759765625,-13.734476089477539,-0.2964404821395874,-6.881610870361328
1772792021476138800,18.420138671875,-12.434329986572266,-0.25871169567108154,-6.088108539581299
1772792021496239900,18.440239990234375,-11.649810791015625,-0.229965940117836,-6.298312187194824
1772792021516341000,18.460341064453125,-15.752666473388672,0.2623049020767212,-8.765055656433105
1772792021536442000,18.480442138671876,-19.939964294433594,-0.024553654715418816,-11.298274993896484
1772792021556543200,18.500543212890626,-16.16828155517578,-0.7599655389785767,-11.307856559753418
1772792021576644400,18.520644287109373,-11.479732513427734,-3.482426881790161,-9.09443473815918
1772792021596745500,18.540745361328124,-10.964704513549805,-7.030729293823242,-7.077441215515137
1772792021616846600,18.5608466796875,-11.829471588134766,-10.737133979797363,-5.762922286987305
1772792021636947700,18.58094775390625,-11.536624908447266,-15.589774131774902,-1.4983718395233154
1772792021657048600,18.601048583984376,-2.6320321559906006,-22.648651123046875,6.422277927398682
1772792021677149200,18.621149169921875,19.053037643432617,-26.268817901611328,7.584084987640381
1772792021697249800,18.641249755859373,36.24299240112305,-20.87180519104004,6.551633834838867
1772792021717350700,18.6613505859375,32.513832092285156,-13.478758811950684,10.437699317932129
1772792021737451300,18.681451171875,32.405433654785156,-12.227121353149414,12.225923538208008
1772792021757552000,18.70155224609375,44.76969909667969,-8.573417663574219,5.715013027191162
1772792021777652700,18.72165283203125,44.46247863769531,3.486020088195801,-1.680428147315979
1772792021797753300,18.74175341796875,25.197439193725586,5.754538536071777,0.6904966831207275
1772792021817854200,18.761854248046873,14.080622673034668,4.675375461578369,3.7213759422302246
1772792021837954800,18.781954833984376,15.258000373840332,3.070404529571533,2.7368342876434326
1772792021858055700,18.8020556640625,19.506980895996094,1.5133435726165771,-0.8342254161834717
1772792021878156300,18.82215625,18.773963928222656,1.718755841255188,-2.321218729019165
1772792021898257000,18.8422568359375,12.176217079162598,1.7379196882247925,-0.8917168974876404
1772792021918357800,18.862357666015626,10.800614356994629,1.6043717861175537,-0.09821461886167526
1772792021938458400,18.882458251953125,11.230602264404297,3.36684513092041,0.021559307351708412
1772792021958559200,18.902559326171875,11.02758502960205,4.145375728607178,0.709660530090332
1772792021978659800,18.922659912109374,13.693154335021973,2.2014448642730713,2.7464160919189453
1772792021998760700,18.9427607421875,14.12314224243164,-1.7822359800338745,5.055058479309082
1772792022018861300,18.962861328125,13.187707901000977,-2.469738483428955,4.854437351226807
1772792022038962000,18.9829619140625,13.806939125061035,0.4772990942001343,2.5212411880493164
1772792022059062800,19.003062744140625,12.024703025817871,1.2606205940246582,1.5888011455535889
1772792022079163400,19.023163330078123,8.8818359375,1.8720664978027344,1.45525324344635
1772792022099264300,19.04326416015625,7.898491859436035,1.9816596508026123,0.8959089517593384
1772792022119364900,19.06336474609375,9.57652473449707,1.6618632078170776,0.42220309376716614
1772792022139465700,19.0834658203125,10.091551780700684,2.206235647201538,0.13534453511238098
1772792022159566600,19.103566650390626,10.233484268188477,2.106224536895752,0.8857281804084778
1772792022179667700,19.123667724609376,10.134072303771973,2.82247257232666,0.2976382076740265
1772792022199769000,19.14376904296875,7.4116106033325195,3.151850938796997,-0.25691506266593933
1772792022219870200,19.1638701171875,6.234831809997559,4.030991554260254,-0.213796466588974
1772792022239971300,19.183971435546876,7.21757698059082,3.987872838973999,-0.6437848806381226
1772792022260072700,19.20407275390625,7.373881816864014,3.6004042625427246,-0.7054684162139893
1772792022280173800,19.224173828125,6.537261009216309,3.94954514503479,-0.27488115429878235
1772792022300275200,19.244275146484377,7.690683841705322,4.025601863861084,-0.4802934527397156
1772792022320376300,19.264376220703124,9.543586730957031,3.1278960704803467,-1.116292953491211
1772792022340477400,19.2844775390625,8.536886215209961,3.701014280319214,-1.9289591312408447
1772792022360578800,19.304578857421873,7.317587852478027,4.154358863830566,-1.5750271081924438
1772792022380680000,19.324679931640624,8.0829439163208,4.254968643188477,-1.240259051322937
1772792022400781000,19.344781005859375,8.092525482177734,4.374143600463867,-1.685219168663025
1772792022420882400,19.36488232421875,7.558333873748779,4.593928813934326,-1.7085751295089722
1772792022440983600,19.384983642578124,8.674027442932129,4.359770774841309,-1.4600441455841064
1772792022461084700,19.405084716796875,9.06149673461914,4.278923511505127,-1.6660553216934204
1772792022481186000,19.42518603515625,8.584197044372559,4.63704776763916,-1.374405860900879
1772792022501287200,19.445287109375,8.952502250671387,4.646629333496094,-0.5048471093177795
1772792022521388300,19.46538818359375,9.798705101013184,4.417262554168701,0.23176254332065582
1772792022541489700,19.48548974609375,9.18426513671875,4.365160942077637,0.19822585582733154
1772792022561590800,19.5055908203125,8.153610229492188,4.436426162719727,-0.8108695149421692
1772792022581692200,19.525692138671875,7.770932197570801,4.422053337097168,-1.575626015663147
1772792022601793300,19.545793212890626,8.522513389587402,4.245387077331543,-1.6043717861175537
1772792022621894400,19.565894287109376,9.462738990783691,4.001646995544434,-1.322304129600525
1772792022641995800,19.585995849609375,8.366209030151367,4.317251205444336,-1.4510611295700073
1772792022662097200,19.60609716796875,7.113972187042236,4.6562113761901855,-1.5947898626327515
1772792022682198500,19.626198486328125,7.331362247467041,4.646629333496094,-1.3606318235397339
1772792022702300200,19.646300048828124,7.89370059967041,4.752030372619629,-1.7145637273788452
1772792022722401500,19.666401611328126,8.67821979522705,4.808923244476318,-1.4804056882858276
1772792022742503200,19.686503173828125,9.38728141784668,4.785567283630371,-0.7581689357757568
1772792022762604500,19.7066044921875,8.985440254211426,4.842459678649902,-0.5910843014717102
1772792022782706000,19.726705810546875,8.777632713317871,4.842459678649902,-0.7102593779563904
1772792022802807600,19.7468076171875,9.372908592224121,4.665793418884277,-0.8012875914573669
1772792022822909000,19.766908935546876,9.519631385803223,4.608900547027588,-0.8491971492767334
1772792022843010600,19.787010498046875,8.650073051452637,4.717895030975342,-1.0492196083068848
1772792022863112000,19.80711181640625,7.945802211761475,4.81850528717041,-0.9917281270027161
1772792022883213300,19.82721337890625,7.605644226074219,4.813714027404785,-0.8000898361206055
1772792022903315000,19.84731494140625,7.128345489501953,4.756222724914551,-1.0629936456680298
1772792022923416300,19.867416259765626,7.487667083740234,4.650821685791016,-1.345061182975769
1772792022943518000,19.88751806640625,8.300931930541992,4.3693528175354,-1.1013212203979492
1772792022963619300,19.907619384765624,8.891417503356934,4.42624568939209,-2.205636978149414
1772792022983721000,19.927720947265627,7.213384628295898,4.937680244445801,-2.267320394515991
1772792023003822300,19.947822265625,7.161881923675537,5.042482376098633,0.022158175706863403
1772792023023923700,19.967923828125,9.283677101135254,4.163341522216797,0.8018864393234253
