time,seconds_elapsed,z,y,x
1772791946740701400,0.211701416015625,8.464423179626465,5.753939628601074,0.7827225923538208
1772791946780903400,0.2519033203125,7.618819713592529,5.256278991699219,0.5216154456138611
1772791946801004300,0.27200439453125,7.061870574951172,4.74484395980835,-0.0035932178143411875
1772791946821105400,0.29210546875,6.125837326049805,4.538833141326904,-0.27488115429878235
1772791946841206300,0.312206298828125,4.85503625869751,4.538234233856201,0.013175131753087044
1772791946861307400,0.332307373046875,3.768087863922119,4.62387228012085,0.702474057674408
1772791946881408300,0.352408203125,3.0218961238861084,4.738256454467773,0.8803383708000183
1772791946901509400,0.37250927734375,2.8140883445739746,5.038290023803711,0.4892764985561371
1772791946921610200,0.3926103515625,3.130890369415283,5.7401652336120605,0.1269603669643402
1772791946941711400,0.41271142578125,4.293895244598389,5.615001678466797,0.510236918926239
1772791946961812200,0.432812255859375,5.964142799377441,5.706029891967773,1.116891860961914
1772791946981913000,0.4529130859375,7.225961208343506,5.897069454193115,1.8049930334091187
1772791947002014200,0.47301416015625,10.894037246704102,5.156866550445557,3.1770033836364746
1772791947022115000,0.493114990234375,14.036905288696289,4.546019554138184,2.5559756755828857
1772791947042216200,0.51321630859375,14.060261726379395,5.223939895629883,0.20840662717819214
1772791947062317000,0.533317138671875,14.041696548461914,4.044166564941406,0.6910955309867859
1772791947082418200,0.553418212890625,14.599244117736816,1.15462064743042,1.336677074432373
1772791947102519000,0.57351904296875,8.00568962097168,2.0529251098632812,-0.4850844144821167
1772791947122620000,0.593619873046875,0.169480100274086,2.200845956802368,-0.7144514918327332
1772791947142721000,0.613720947265625,1.9133884906768799,2.1247894763946533,-0.9486095309257507
1772791947162821400,0.6338212890625,11.60309886932373,4.206460475921631,-5.450911521911621
1772791947182921700,0.653921630859375,7.065464019775391,3.3848111629486084,-2.9081108570098877
1772791947203021800,0.674021728515625,4.253171920776367,3.2368903160095215,-1.345061182975769
1772791947223122200,0.6941220703125,7.188232421875,4.989781856536865,-2.864992380142212
1772791947243222500,0.714222412109375,9.598682403564453,8.58120346069336,-4.270539283752441
1772791947263322600,0.734322509765625,10.095145225524902,7.492457866668701,-2.936856746673584
1772791947283423000,0.754423095703125,9.71725845336914,1.5558632612228394,2.4128458499908447
1772791947303523300,0.7745234375,15.275367736816406,2.7308454513549805,0.409626841545105
1772791947323623700,0.794623779296875,18.95242691040039,2.1577272415161133,1.8295466899871826
1772791947343723800,0.814723876953125,17.756484985351562,1.116292953491211,4.415465831756592
1772791947363824000,0.83482421875,12.708612442016602,1.0594004392623901,3.750121593475342
1772791947383924500,0.854924560546875,9.97177791595459,0.37668898701667786,1.9481229782104492
1772791947404024800,0.87502490234375,9.924468040466309,-0.2730845510959625,0.9438185691833496
1772791947424125000,0.895125,9.17288589477539,-0.27787551283836365,-0.06946887820959091
1772791947444225300,0.915225341796875,8.416513442993164,-0.3347681164741516,0.2269715964794159
1772791947464325600,0.93532568359375,7.051091194152832,-0.14372871816158295,0.06887000799179077
1772791947484426000,0.955426025390625,5.613803863525391,0.8785417675971985,-1.7475016117095947
1772791947504526000,0.975526123046875,4.399296283721924,1.432496190071106,-2.73264217376709
1772791947524626400,0.99562646484375,3.0614216327667236,2.325410842895508,-3.598008871078491
1772791947544726800,1.015726806640625,1.8235580921173096,2.7649810314178467,-5.003555774688721
1772791947564827100,1.0358271484375,3.1614327430725098,3.1608338356018066,-5.22693395614624
1772791947584927200,1.05592724609375,4.3477935791015625,3.361455202102661,-4.466968536376953
1772791947605027600,1.076027587890625,6.6354756355285645,4.015420913696289,-1.875659704208374
1772791947625128000,1.0961279296875,7.977542400360107,5.577272891998291,4.491522312164307
1772791947645228300,1.116228271484375,9.783134460449219,8.280570030212402,8.87045669555664
1772791947665328600,1.13632861328125,7.920650005340576,8.505146980285645,15.108881950378418
1772791947685429000,1.156428955078125,8.464423179626465,8.394954681396484,19.89444923400879
1772791947705529300,1.176529296875,15.601152420043945,8.275779724121094,14.683684349060059
1772791947725629700,1.196629638671875,27.431821823120117,8.242242813110352,17.05940055847168
1772791947745730000,1.21672998046875,31.75625991821289,5.286222457885742,32.59587478637695
1772791947765830700,1.23683056640625,33.65647506713867,0.46232736110687256,38.618106842041016
1772791947785931000,1.256930908203125,33.897220611572266,-3.530336618423462,38.42707061767578
1772791947806031400,1.27703125,31.065763473510742,-9.237564086914062,38.943294525146484
1772791947826131700,1.297131591796875,22.912752151489258,-14.954373359680176,31.653255462646484
1772791947846232000,1.317232177734375,9.16390323638916,-16.773738861083984,18.0816707611084
1772791947866332700,1.337332763671875,-2.936257839202881,-14.070442199707031,3.4249353408813477
1772791947886433000,1.35743310546875,-9.321405410766602,-10.53651237487793,-6.283938884735107
1772791947906533400,1.377533447265625,-9.912489891052246,-8.081746101379395,-9.090242385864258
1772791947926633700,1.3976337890625,-9.45854663848877,-7.814051151275635,-8.277576446533203
1772791947946734000,1.417734130859375,-8.858479499816895,-7.704457759857178,-6.212673664093018
1772791947966834700,1.437834716796875,-9.590897560119629,-7.484672546386719,-3.9561328887939453
1772791947986935000,1.45793505859375,-13.863832473754883,-7.436763286590576,-1.7666654586791992
1772791948007035400,1.478035400390625,-15.570012092590332,-7.3127970695495605,3.6590933799743652
1772791948027136000,1.498135986328125,-13.344013214111328,-5.511996269226074,6.369577407836914
1772791948047236400,1.518236328125,-15.262791633605957,-4.786166191101074,5.317363262176514
1772791948067336700,1.538336669921875,-17.432497024536133,-6.663023471832275,7.478085041046143
1772791948087437000,1.55843701171875,-11.098851203918457,-7.503237724304199,6.3450236320495605
1772791948107537400,1.578537353515625,-4.727477073669434,-7.441554069519043,7.330164432525635
1772791948127638000,1.598637939453125,-1.6031739711761475,-6.524085998535156,10.771867752075195
1772791948147738400,1.61873828125,-0.9462140202522278,-5.612007141113281,11.761200904846191
1772791948167840800,1.6388408203125,-2.4116480350494385,-7.393644332885742,14.86933422088623
1772791948187943000,1.65894287109375,-4.273533821105957,-12.533143997192383,22.49354362487793
1772791948208045000,1.679045166015625,-1.6882134675979614,-23.708650588989258,27.53722381591797
1772791948228147500,1.6991474609375,18.70629119873047,-36.74723815917969,23.081632614135742
1772791948248249600,1.71924951171875,44.697235107421875,-36.47056198120117,18.100833892822266
1772791948268351700,1.739351806640625,46.1668586730957,-27.429426193237305,24.344051361083984
1772791948288454100,1.7594541015625,24.297937393188477,-21.210763931274414,24.114683151245117
1772791948308556300,1.779556396484375,13.370363235473633,-17.079761505126953,9.238162994384766
1772791948328658400,1.799658447265625,6.015645503997803,-14.3285551071167,0.8006886839866638
1772791948348760800,1.8197607421875,-1.6175469160079956,-8.611745834350586,-4.266347408294678
1772791948368863000,1.839863037109375,-1.5606542825698853,-6.290526866912842,-3.6315455436706543
1772791948388965400,1.85996533203125,6.55941915512085,-9.777145385742188,-0.256316214799881
1772791948409067500,1.880067626953125,12.58045482635498,-12.70442008972168,0.8096717596054077
1772791948429169700,1.900169677734375,13.412283897399902,-12.394206047058105,-0.4479544758796692
1772791948449271800,1.920271728515625,15.969457626342773,-9.371111869812012,-3.057828426361084
1772791948469374200,1.940374267578125,19.538122177124023,-5.277838230133057,-3.4782347679138184
1772791948489476400,1.960476318359375,19.6039981842041,-1.7576823234558105,-3.2871954441070557
1772791948509578800,1.980578857421875,14.887300491333008,0.27188682556152344,-4.596923351287842
1772791948529681000,2.000680908203125,10.27420711517334,0.9551970958709717,-6.494740962982178
1772791948549783000,2.020782958984375,9.11599349975586,0.7970954775810242,-6.810345649719238
1772791948569885200,2.04088525390625,7.627203464508057,0.17666654288768768,-2.6991055011749268
1772791948589987600,2.060987548828125,6.3228654861450195,0.19523149728775024,0.3982483148574829
1772791948610089700,2.08108984375,6.41269588470459,0.46771717071533203,0.1784631460905075
1772791948630192000,2.101192138671875,3.590822219848633,0.6012651324272156,4.839465618133545
1772791948650294000,2.1212939453125,0.1784631460905075,1.9289591312408447,13.831493377685547
1772791948670395100,2.14139501953125,-5.138900279998779,3.7153871059417725,14.883108139038086
1772791948690496500,2.16149658203125,-4.453793525695801,4.99996280670166,7.9943108558654785
1772791948710597600,2.18159765625,-5.119736671447754,3.0943593978881836,4.0794997215271
1772791948730698800,2.20169873046875,-7.190028667449951,-6.104278087615967,7.43017578125
1772791948750800000,2.2217998046875,7.788299560546875,-19.878280639648438,6.192312240600586
1772791948770901200,2.2419013671875,35.097354888916016,-31.411911010742188,5.336527347564697
1772791948791002400,2.26200244140625,55.53018569946289,-33.6043701171875,14.705842971801758
1772791948811103500,2.282103515625,48.01018142700195,-32.721038818359375,22.130029678344727
1772791948831204900,2.302204833984375,29.515289306640625,-33.160011291503906,9.045926094055176
1772791948851306000,2.322305908203125,11.389303207397461,-29.119436264038086,-3.722573757171631
1772791948871407000,2.342406982421875,3.727963447570801,-24.911779403686523,-8.670434951782227
1772791948891508200,2.36250830078125,-1.215705394744873,-26.564659118652344,-13.986001014709473
1772791948911609600,2.382609619140625,-8.281767845153809,-29.320058822631836,-21.314369201660156
1772791948931710700,2.402710693359375,-20.906539916992188,-24.892614364624023,-27.46176528930664
1772791948951811800,2.422811767578125,-30.82741355895996,-11.261743545532227,-29.446420669555664
1772791948971913200,2.442913330078125,-23.321781158447266,-7.947000026702881,-26.334095001220703
1772791948992014300,2.463014404296875,-7.663136005401611,-15.583786010742188,-20.58374786376953
1772791949012115500,2.483115478515625,-2.770969867706299,-20.837669372558594,-16.501253128051758
1772791949032216600,2.503216552734375,-10.205936431884766,-24.218887329101562,-10.435303688049316
1772791949052318000,2.52331787109375,-15.324475288391113,-29.534454345703125,0.9276490807533264
1772791949072419000,2.543419189453125,2.3236141204833984,-33.81876754760742,21.827600479125977
1772791949092520200,2.563520263671875,29.316465377807617,-24.77284049987793,41.90470504760742
1772791949112621300,2.583621337890625,29.396713256835938,-18.014596939086914,31.717931747436523
1772791949132722700,2.60372265625,33.50436019897461,-12.641539573669434,12.51038646697998
1772791949152823600,2.623823486328125,25.57832145690918,-9.609461784362793,5.359284400939941
1772791949172924200,2.643924072265625,8.426095962524414,-9.857394218444824,5.512595176696777
1772791949193024800,2.664024658203125,1.5253210067749023,-10.205936431884766,4.819104194641113
1772791949213125400,2.68412548828125,3.486618995666504,-12.451098442077637,2.6104726791381836
1772791949233226000,2.70422607421875,9.484298706054688,-13.205674171447754,-0.6401916146278381
1772791949253326600,2.72432666015625,12.688849449157715,-14.251300811767578,0.8468016386032104
1772791949273427500,2.744427490234375,13.98420524597168,-17.064790725708008,6.535464286804199
1772791949293528000,2.764528076171875,19.901636123657227,-20.732267379760742,9.54718017578125
1772791949313628700,2.784628662109375,29.345211029052734,-23.545757293701172,9.905303955078125
1772791949333729300,2.804729248046875,28.215742111206055,-23.316390991210938,13.705730438232422
1772791949353830000,2.824829833984375,18.421829223632812,-21.663509368896484,17.787626266479492
1772791949373930500,2.844930419921875,12.178013801574707,-20.3358154296875,15.917954444885254
1772791949394031000,2.865031005859375,8.014073371887207,-17.06898307800293,11.591720581054688
1772791949414131700,2.885131591796875,3.9303815364837646,-12.608002662658691,8.058988571166992
1772791949434232300,2.905232421875,0.4611296057701111,-10.367630958557129,5.506606101989746
1772791949454333200,2.925333251953125,-3.872889995574951,-11.494704246520996,2.6380207538604736
1772791949474433800,2.945433837890625,-10.570049285888672,-14.226747512817383,-4.169330596923828
1772791949494534400,2.965534423828125,-16.393457412719727,-13.586555480957031,-12.339110374450684
1772791949514635000,2.985635009765625,-16.241943359375,-10.89763069152832,-13.682374954223633
1772791949534735600,3.005735595703125,-13.831493377685547,-7.855372905731201,-12.678668975830078
1772791949554836200,3.025836181640625,-11.094658851623535,-5.649735927581787,-12.59123420715332
1772791949574936800,3.045936767578125,-7.388853549957275,-4.804131984710693,-13.561403274536133
1772791949595037400,3.066037353515625,-3.905827760696411,-4.718493938446045,-13.484747886657715
1772791949615138000,3.086137939453125,-5.280832290649414,-5.1341094970703125,-7.457124710083008
1772791949635239000,3.106239013671875,-11.127596855163574,-4.2980875968933105,2.1756932735443115
1772791949655339300,3.12633935546875,-12.999064445495605,-1.1839653253555298,11.406669616699219
1772791949675439400,3.146439453125,-6.018041133880615,3.3961896896362305,25.9963321685791
1772791949695539700,3.166539794921875,-0.8851293325424194,9.442377090454102,43.421043395996094
1772791949715640000,3.18664013671875,8.241643905639648,10.020286560058594,45.67219543457031
1772791949735740200,3.206740234375,17.718156814575195,6.595950126647949,35.87289047241211
1772791949755840500,3.226840576171875,16.517423629760742,5.120335578918457,24.5949764251709
1772791949775940600,3.246940673828125,11.582737922668457,4.938878059387207,12.013324737548828
1772791949796041000,3.267041015625,7.291237831115723,6.471984386444092,2.8392410278320312
1772791949816141300,3.287141357421875,4.2382001876831055,7.570311069488525,3.0452520847320557
1772791949836241400,3.307241455078125,1.8984167575836182,6.624695777893066,7.839802265167236
1772791949856341800,3.327341796875,1.8085863590240479,6.166560649871826,8.097915649414062
1772791949876442000,3.347442138671875,2.909907579421997,5.679080963134766,4.828086853027344
1772791949896542200,3.367542236328125,3.61417818069458,5.025115013122559,1.6205412149429321
1772791949916642600,3.387642578125,3.61417818069458,4.82928466796875,0.0287457425147295
1772791949936742700,3.40774267578125,3.6423251628875732,4.676572799682617,0.15271176397800446
1772791949956843000,3.427843017578125,4.086686611175537,4.428041934967041,1.170790195465088
1772791949976943400,3.447943359375,4.124415397644043,4.399296283721924,2.1313769817352295
1772791949997043500,3.46804345703125,3.382415771484375,4.418460369110107,1.5103492736816406
1772791950017143800,3.488143798828125,4.6442341804504395,3.554291248321533,0.42519745230674744
1772791950037244000,3.508243896484375,8.297937393188477,2.6703596115112305,0.8120672106742859
1772791950057344300,3.52834423828125,9.252535820007324,2.446382522583008,1.767863154411316
1772791950077444600,3.548444580078125,7.824830532073975,2.0882585048675537,2.002021074295044
1772791950097544700,3.568544677734375,8.968671798706055,1.3522475957870483,1.2803832292556763
1772791950117645000,3.58864501953125,11.157540321350098,0.6791181564331055,1.7726541757583618
1772791950137745200,3.6087451171875,15.449040412902832,-1.0881460905075073,4.133996963500977
1772791950157845500,3.628845458984375,23.006175994873047,-4.884979724884033,8.789609909057617
1772791950177945900,3.64894580078125,31.854475021362305,-7.000187397003174,12.064229011535645
1772791950198046200,3.669046142578125,30.16206932067871,-7.110379219055176,14.096193313598633
1772791950218146600,3.689146484375,22.760639190673828,-8.275779724121094,15.725717544555664
1772791950238247000,3.709246826171875,21.782087326049805,-9.359733581542969,16.873151779174805
1772791950258347300,3.72934716796875,25.005802154541016,-9.822659492492676,18.254743576049805
1772791950278447600,3.749447509765625,23.743385314941406,-9.985551834106445,17.88644027709961
1772791950298548000,3.7695478515625,17.82595443725586,-9.641201972961426,14.745966911315918
1772791950318648300,3.7896484375,10.08376693725586,-8.003293991088867,10.701201438903809
1772791950338748700,3.809748779296875,1.528914213180542,-6.236029624938965,7.99071741104126
1772791950358849300,3.829849365234375,-5.451510429382324,-4.106449127197266,4.631058692932129
1772791950378949600,3.84994970703125,-9.0058012008667,-2.965003490447998,2.484710216522217
1772791950399050000,3.870050048828125,-10.319721221923828,-2.716472625732422,0.8641688823699951
1772791950419150300,3.890150390625,-11.832466125488281,-2.9793765544891357,0.47670021653175354
1772791950439250700,3.910250732421875,-11.558183670043945,-3.690833568572998,1.4139312505722046
1772791950459351000,3.93035107421875,-10.528128623962402,-3.9345734119415283,1.9732754230499268
1772791950479451400,3.950451416015625,-9.114795684814453,-4.201669216156006,2.733241081237793
1772791950499551700,3.9705517578125,-6.325860023498535,-4.0010480880737305,3.6273534297943115
1772791950519652000,3.990652099609375,-3.641127347946167,-3.3758280277252197,5.22873067855835
1772791950539752400,4.01075244140625,-2.199648141860962,-2.602088451385498,6.098888397216797
1772791950559852800,4.030852783203125,-1.3869820833206177,-2.0331623554229736,5.820414066314697
1772791950579953200,4.050953125,-1.0845528841018677,-1.9660890102386475,6.193509578704834
1772791950600053500,4.071053466796875,-0.5222142934799194,-2.4673428535461426,7.431373119354248
1772791950620153900,4.09115380859375,1.6379084587097168,-2.3577497005462646,11.57555103302002
1772791950640254200,4.111254150390625,6.161170959472656,-4.49751091003418,18.28289031982422
1772791950660355000,4.13135498046875,17.84930992126465,-10.247857093811035,23.870943069458008
1772791950680456000,4.1514560546875,27.358760833740234,-13.032002449035645,28.588838577270508
1772791950700557000,4.17155712890625,32.52520751953125,-12.033686637878418,27.580341339111328
1772791950720658200,4.191658203125,36.79754638671875,-8.862671852111816,17.125276565551758
1772791950740759000,4.211759033203125,29.935096740722656,-5.8437700271606445,11.264738082885742
1772791950760860200,4.231860107421875,17.972078323364258,-2.6583824157714844,7.985926628112793
1772791950780961000,4.2519609375,10.722162246704102,0.6324063539505005,5.083804130554199
1772791950801062100,4.272062255859375,9.526219367980957,2.475727081298828,4.706516265869141
1772791950821163000,4.2921630859375,13.95486068725586,2.848223924636841,4.835273265838623
1772791950841264000,4.31226416015625,15.958678245544434,2.0601115226745605,5.719803810119629
1772791950861365200,4.332365234375,12.673877716064453,1.7690608501434326,4.242392539978027
1772791950881466000,4.352466064453125,8.50035572052002,2.2415690422058105,0.19343489408493042
1772791950901567200,4.372567138671875,5.825204849243164,2.1798853874206543,-2.2253994941711426
1772791950921668000,4.392668212890625,4.790358066558838,1.1576149463653564,-2.727252244949341
1772791950941769200,4.412769287109375,6.340232849121094,-0.1988247185945511,-3.630946636199951
1772791950961870000,4.4328701171875,8.869258880615234,-0.9581913948059082,-5.274843692779541
1772791950981971200,4.45297119140625,9.856795310974121,-1.45525324344635,-6.417487144470215
1772791951002072000,4.473072021484375,10.712579727172852,-2.1427555084228516,-6.699554443359375
1772791951022173200,4.493173095703125,12.409177780151367,-3.0931615829467773,-5.31317138671875
1772791951042274300,4.5132744140625,12.319347381591797,-5.1562676429748535,-1.6948010921478271
1772791951062375200,4.533375244140625,14.366283416748047,-6.422277927398682,1.9050042629241943
1772791951082476300,4.553476318359375,17.89661979675293,-6.880413055419922,3.387206554412842
1772791951102577200,4.5735771484375,19.04046058654785,-5.423962116241455,0.06946887820959091
1772791951122678300,4.59367822265625,15.519107818603516,-0.7671520113945007,-0.3659093379974365
1772791951142779100,4.613779052734375,14.219560623168945,4.304675102233887,6.31747579574585
1772791951162880800,4.633880859375,23.2139835357666,3.31174898147583,7.765542507171631
1772791951182982700,4.653982666015625,32.968971252441406,-1.0438297986984253,2.3349926471710205
1772791951203084300,4.674084228515625,26.25743865966797,-2.1517386436462402,0.9342366456985474
1772791951223186000,4.69418603515625,13.141594886779785,-0.3036268949508667,1.6750383377075195
1772791951243287800,4.714287841796875,5.749747276306152,1.6786315441131592,1.019874930381775
1772791951263389400,4.734389404296875,3.6177713871002197,2.4236254692077637,0.4317850172519684
1772791951283491000,4.754490966796875,1.8169704675674438,2.2948684692382812,-0.34255343675613403
1772791951303593000,4.774593017578125,-0.7402028441429138,1.3821910619735718,-1.1360557079315186
1772791951323694600,4.794694580078125,-2.5499868392944336,-0.19343489408493042,0.053898267447948456
1772791951343796200,4.814796142578125,-4.436426162719727,-2.452970027923584,0.7378073930740356
1772791951363898000,4.834898193359375,-2.70150089263916,-2.772766351699829,2.090653896331787
1772791951383999700,4.854999755859375,-1.8457162380218506,-3.073399066925049,3.295579671859741
1772791951404101400,4.875101318359375,-3.6938278675079346,-3.4363138675689697,4.423251152038574
1772791951424203300,4.895203369140625,-5.319758892059326,-3.5560879707336426,5.709623336791992
1772791951444305000,4.915304931640625,-5.925216197967529,-3.360257625579834,5.7000412940979
1772791951464406500,4.935406494140625,-4.91372537612915,-2.485907793045044,5.006550312042236
1772791951484508400,4.95550830078125,-1.1132986545562744,-1.66964852809906,5.647340774536133
1772791951504610000,4.975610107421875,4.34539794921875,-1.4834001064300537,9.318411827087402
1772791951524712000,4.9957119140625,8.670434951782227,-1.358835220336914,8.233260154724121
1772791951544813600,5.0158134765625,5.09697961807251,1.110304355621338,1.7271400690078735
1772791951564915200,5.035915283203125,4.080697536468506,6.908560276031494,-1.8684732913970947
1772791951585017000,5.05601708984375,14.110566139221191,9.449563980102539,4.4082794189453125
1772791951605118700,5.07611865234375,21.252086639404297,8.632705688476562,12.558895111083984
1772791951625220400,5.096220458984375,24.96208381652832,9.483100891113281,14.375267028808594
1772791951645322200,5.116322265625,23.5062313079834,9.564546585083008,15.617920875549316
1772791951665424000,5.136423828125,20.453195571899414,9.192049980163574,14.159673690795898
1772791951685525500,5.156525390625,20.098663330078125,8.881237030029297,7.70146369934082
1772791951705627100,5.176627197265625,20.97780418395996,8.222479820251465,2.926077127456665
1772791951725728800,5.196728759765625,18.845829010009766,7.6206159591674805,2.079874277114868
1772791951745830700,5.21683056640625,15.088520050048828,7.233746528625488,1.5492757558822632
1772791951765932300,5.236932373046875,12.427742958068848,6.937305927276611,0.8995022177696228
1772791951786034000,5.257033935546875,10.007710456848145,6.846277713775635,1.0863494873046875
1772791951806135600,5.277135498046875,6.77022123336792,6.808548927307129,0.7228356599807739
1772791951826237200,5.2972373046875,4.383126735687256,6.468989849090576,-0.4485533535480499
1772791951846339000,5.317339111328125,3.447692394256592,5.576075077056885,-1.3708126544952393
1772791951866440700,5.337440673828125,3.707602024078369,4.477748394012451,-2.107422351837158
1772791951886542300,5.357542236328125,3.811206340789795,3.274020195007324,-2.7380318641662598
1772791951906644000,5.37764404296875,4.2980875968933105,2.4050605297088623,-3.0057268142700195
1772791951926745600,5.39774560546875,4.529850006103516,2.0990381240844727,-3.101545810699463
1772791951946847200,5.41784716796875,4.440019607543945,1.8696709871292114,-3.3261220455169678
1772791951966949000,5.43794921875,4.529850006103516,1.7984055280685425,-3.3363027572631836
1772791951987050800,5.45805078125,4.510685920715332,1.9085975885391235,-2.7913312911987305
1772791952007152400,5.47815234375,6.24980354309082,2.0277726650238037,-2.3469700813293457
1772791952027254000,5.49825390625,12.077404022216797,2.3242130279541016,-1.3241007328033447
1772791952047355600,5.518355712890625,18.765579223632812,3.8477373123168945,3.4225399494171143
1772791952067457300,5.538457275390625,30.33574104309082,5.495227813720703,6.568402290344238
1772791952087559200,5.55855908203125,35.535125732421875,6.364786624908447,12.87330150604248
1772791952107660800,5.578660888671875,30.832204818725586,5.1179399490356445,20.01542091369629
1772791952127762400,5.598762451171875,29.37156105041504,4.444810390472412,17.04622459411621
1772791952147864000,5.618864013671875,26.16221809387207,3.184189796447754,13.757832527160645
1772791952167965700,5.638965576171875,20.5526065826416,2.385896682739258,10.741924285888672
1772791952188067300,5.6590673828125,14.9843168258667,1.9750720262527466,7.233147621154785
1772791952208169000,5.6791689453125,7.573305606842041,1.1677957773208618,6.2725605964660645
1772791952228270600,5.6992705078125,-0.4234008193016052,-0.3701014220714569,4.680765151977539
1772791952248372200,5.719372314453125,-6.5869669914245605,-2.2852864265441895,1.864880084991455
1772791952268473900,5.739473876953125,-9.441779136657715,-3.49320650100708,-0.1281581073999405
1772791952288575200,5.7595751953125,-12.216341972351074,-3.4884157180786133,-1.0989258289337158
1772791952308676900,5.7796767578125,-14.602837562561035,-3.675262928009033,-0.31440654397010803
1772791952328778500,5.799778564453125,-13.5775728225708,-4.109443664550781,1.3246996402740479
1772791952348880100,5.819880126953125,-10.21192455291748,-4.391510963439941,2.639817237854004
1772791952368981800,5.839981689453125,-5.89227819442749,-4.477149486541748,4.331025123596191
1772791952389083400,5.86008349609375,-2.106224536895752,-4.429239749908447,6.161769866943359
1772791952409185000,5.88018505859375,0.7054684162139893,-3.1392745971679688,6.4103007316589355
1772791952429286700,5.90028662109375,1.910992980003357,-1.539693832397461,6.5917582511901855
1772791952449388300,5.92038818359375,5.120335578918457,0.40902796387672424,6.4103007316589355
1772791952469490000,5.940489990234375,10.163416862487793,1.660665512084961,8.193135261535645
1772791952489591600,5.960591552734375,14.114758491516113,4.487928867340088,10.181981086730957
1772791952509693200,5.980693115234375,16.56772804260254,5.4143805503845215,14.545944213867188
1772791952529794800,6.000794921875,17.734926223754883,5.0466742515563965,16.888723373413086
1772791952549896400,6.020896484375,20.939476013183594,5.289815425872803,14.709436416625977
1772791952569998000,6.040998046875,19.692031860351562,5.538346290588379,8.284163475036621
1772791952590099700,6.061099609375,15.788000106811523,5.40479850769043,4.364562034606934
1772791952610201300,6.081201416015625,13.925515174865723,5.289815425872803,5.850956439971924
1772791952630303000,6.101302978515625,14.71003532409668,5.323352336883545,9.221394538879395
1772791952650404400,6.121404296875,16.15211296081543,5.175431251525879,7.6535539627075195
1772791952670505000,6.1415048828125,18.01399803161621,4.229816436767578,4.196878433227539
1772791952690605300,6.161605224609375,18.803308486938477,3.4081671237945557,1.06119704246521
1772791952710706000,6.181705810546875,19.692031860351562,3.6279523372650146,-0.4162144064903259
1772791952730806300,6.20180615234375,19.3422908782959,4.645431995391846,0.10061009973287582
1772791952750907000,6.221906982421875,15.220870971679688,5.58625602722168,0.1622936725616455
1772791952771007500,6.242007568359375,9.926862716674805,6.149792194366455,-0.22457611560821533
1772791952791107800,6.26210791015625,6.500131130218506,6.584571838378906,-0.5114346742630005
1772791952811208400,6.28220849609375,5.356289863586426,6.8995771408081055,-1.1234794855117798
1772791952831309000,6.30230908203125,5.540741920471191,6.326458930969238,-1.4247108697891235
1772791952851409700,6.32240966796875,5.677883148193359,5.5910468101501465,-1.9409364461898804
1772791952871510000,6.342510009765625,5.815024375915527,4.984392166137695,-2.1271848678588867
1772791952891610600,6.362610595703125,4.846053123474121,4.053149700164795,-1.9792641401290894
1772791952911711200,6.382711181640625,4.0615339279174805,3.5183591842651367,-1.9648913145065308
1772791952931811600,6.4028115234375,6.320470333099365,3.9339747428894043,-3.1266982555389404
1772791952951912200,6.422912109375,17.167795181274414,4.306471347808838,-1.067185640335083
1772791952972012800,6.4430126953125,29.012239456176758,5.223939895629883,2.3793091773986816
1772791952992113200,6.463113037109375,31.80057716369629,5.176030158996582,3.9950592517852783
1772791953012213800,6.4832138671875,26.020286560058594,3.9675114154815674,7.140322685241699
1772791953032314400,6.503314453125,22.843881607055664,3.0177040100097656,7.284051418304443
1772791953052414700,6.523414794921875,18.821874618530273,1.766066551208496,5.0514655113220215
1772791953072515300,6.543515380859375,11.684545516967773,1.331287145614624,3.4782347679138184
1772791953092616000,6.563615966796875,5.322753429412842,2.0337612628936768,2.512856960296631
1772791953112716300,6.58371630859375,1.5606542825698853,2.85541033744812,2.364337205886841
1772791953132817000,6.60381689453125,0.534790575504303,3.2326982021331787,3.0811843872070312
1772791953152917800,6.623917724609375,-0.5186210870742798,3.332709550857544,2.9242804050445557
1772791953173019400,6.644019287109375,1.201931357383728,2.9027211666107178,1.781637191772461
1772791953193121000,6.66412109375,4.505296230316162,2.272111415863037,1.5091514587402344
1772791953213222700,6.68422265625,4.774787425994873,2.095444917678833,2.1259872913360596
1772791953233324300,6.70432421875,3.3524723052978516,2.4056594371795654,3.31174898147583
1772791953253426000,6.724426025390625,1.622337818145752,2.9123029708862305,3.0105175971984863
1772791953273527600,6.744527587890625,1.0647902488708496,3.1416702270507812,2.475128173828125
1772791953293629200,6.764629150390625,3.4135568141937256,2.9793765544891357,2.250552177429199
1772791953313730800,6.784730712890625,6.703147888183594,2.6637721061706543,1.94452965259552
1772791953333832400,6.80483251953125,7.776322364807129,2.9410488605499268,2.4224276542663574
1772791953353934000,6.82493408203125,5.516787052154541,4.1777143478393555,2.3122355937957764
1772791953374035700,6.84503564453125,1.4097391366958618,5.577272891998291,0.9072874784469604
1772791953394137300,6.865137451171875,2.666766405105591,6.503724098205566,0.9354343414306641
1772791953414239000,6.885239013671875,7.988921165466309,7.378073692321777,2.221806287765503
1772791953434340600,6.905340576171875,10.11131477355957,7.922446250915527,2.953026056289673
1772791953454442200,6.925442138671875,8.215892791748047,8.447654724121094,3.7656922340393066
1772791953474543900,6.9455439453125,7.700265884399414,9.412433624267578,2.470337152481079
1772791953494645500,6.9656455078125,8.314705848693848,9.937643051147461,1.7864280939102173
1772791953514747100,6.9857470703125,7.672119140625,10.12389087677002,2.073286771774292
1772791953534848800,7.005848876953125,6.589961528778076,9.741812705993652,1.251038670539856
1772791953554950400,7.025950439453125,6.433656692504883,8.892016410827637,-0.7084627747535706
1772791953575052000,7.046052001953125,8.466219902038574,8.032039642333984,-2.090054988861084
1772791953595153700,7.066153564453125,9.671744346618652,7.091215133666992,-1.2917617559432983
1772791953615255300,7.08625537109375,9.028558731079102,6.370176315307617,0.18025976419448853
1772791953655458600,7.12645849609375,5.384437084197998,5.696447849273682,0.1754688024520874
1772791953675560400,7.146560546875,4.335217475891113,5.195194244384766,-0.010779653675854206
1772791953695662300,7.166662353515625,4.897555828094482,4.7652058601379395,-0.38866639137268066
1772791953715764000,7.186763916015625,5.072425842285156,4.3974995613098145,-0.6892989277839661
1772791953735865600,7.206865478515625,4.311861515045166,4.053748607635498,-0.6084515452384949
1772791953755967500,7.226967529296875,3.5219523906707764,3.939364433288574,-0.5611408352851868
1772791953776069400,7.2470693359375,4.372946262359619,4.340607166290283,-1.130066990852356
1772791953796171000,7.2671708984375,4.935284614562988,5.324550151824951,-2.353557586669922
1772791953816272600,7.287272705078125,5.304188251495361,6.4707865715026855,-2.784144878387451
1772791953836374500,7.30737451171875,8.262604713439941,7.61702299118042,-1.1540217399597168
1772791953856476200,7.32747607421875,12.285211563110352,10.425122261047363,-0.81925368309021
1772791953876578000,7.347578125,12.43133544921875,12.2498779296875,-0.3940562307834625
1772791953896679700,7.3676796875,13.72189998626709,11.246771812438965,1.140846610069275
1772791953916781600,7.387781494140625,16.2928466796875,9.866376876831055,0.8587790727615356
1772791953936883200,7.40788330078125,16.893512725830078,9.073473930358887,-0.08803384006023407
1772791953956985000,7.427985107421875,14.756746292114258,9.026163101196289,-0.37489238381385803
1772791953977086700,7.448086669921875,11.826478004455566,8.877643585205078,-0.7479881644248962
1772791953997188600,7.468188720703125,8.75906753540039,8.085338592529297,-1.0061010122299194
1772791954017290200,7.488290283203125,5.70543098449707,6.523487091064453,-1.0827562808990479
1772791954037392100,7.50839208984375,3.15783953666687,4.378934860229492,-0.8725530505180359
1772791954057493800,7.52849365234375,1.1588127613067627,2.1487443447113037,-0.566530704498291
1772791954077595600,7.548595703125,0.29883596301078796,0.2048134207725525,0.20301680266857147
1772791954097697300,7.568697265625,-0.7084627747535706,-0.9078863859176636,1.0300557613372803
1772791954117799200,7.588799072265625,-1.8990156650543213,-1.1420444250106812,1.7564846277236938
1772791954137900800,7.60890087890625,-4.60770320892334,-1.4762136936187744,2.5170490741729736
1772791954158002000,7.629001953125,-6.890594005584717,-2.541602849960327,4.481940269470215
1772791954178102800,7.649102783203125,-8.37938404083252,-3.348879098892212,6.441442012786865
1772791954198203600,7.66920361328125,-9.475914001464844,-3.8022232055664062,4.921510696411133
1772791954218304300,7.68930419921875,-10.118501663208008,-4.819702625274658,4.084889888763428
1772791954238405000,7.709405029296875,-11.914511680603027,-5.445521831512451,3.778867483139038
1772791954258506000,7.729506103515625,-15.317887306213379,-8.616536140441895,7.593667030334473
1772791954278606800,7.74960693359375,-11.886364936828613,-13.645843505859375,17.321704864501953
1772791954298707700,7.769707763671875,-4.333420753479004,-18.383501052856445,20.71609878540039
1772791954338909200,7.8099091796875,-1.4642362594604492,-26.259235382080078,28.25946044921875
1772791954359010000,7.830010009765625,1.3145188093185425,-29.37335777282715,50.40625762939453
1772791954379110700,7.850110595703125,16.41561508178711,-24.549463272094727,64.30303192138672
1772791954399211500,7.87021142578125,27.679155349731445,-14.14709758758545,47.653255462646484
1772791954419312400,7.8903125,26.156829833984375,-11.49170970916748,32.23655319213867
1772791954439413200,7.910413330078125,23.58588218688965,-10.512557983398438,24.635700225830078
1772791954459514000,7.93051416015625,20.905941009521484,-6.682187557220459,14.563311576843262
1772791954479614700,7.95061474609375,15.611932754516602,-3.5824382305145264,9.725643157958984
1772791954499715600,7.970715576171875,11.155144691467285,-1.0174795389175415,8.678818702697754
1772791954519816400,7.99081640625,8.149417877197266,1.3510499000549316,7.158288955688477
1772791954539917300,8.010917236328124,6.319871425628662,3.3524723052978516,4.5675787925720215
1772791954560018000,8.031017822265625,5.431148529052734,4.560991287231445,2.138563394546509
1772791954580118800,8.051118896484375,5.294007778167725,4.957442760467529,-0.7917056679725647
1772791954600219600,8.0712197265625,6.749859809875488,4.780776500701904,-3.927386999130249
1772791954620320500,8.091320556640625,11.088669776916504,3.0710034370422363,-5.964142799377441
1772791954640421000,8.111421142578125,18.906314849853516,0.27188682556152344,-7.2403340339660645
1772791954660522200,8.131522216796874,24.65366554260254,-2.832653284072876,-9.210016250610352
1772791954680623400,8.151623291015625,21.019126892089844,-6.233035087585449,-7.125949859619141
1772791954700724500,8.171724365234375,15.266983985900879,-9.54718017578125,-1.2606205940246582
1772791954720825600,8.19182568359375,15.35681438446045,-12.21753978729248,4.911329746246338
1772791954740926700,8.2119267578125,22.59295654296875,-13.79316520690918,9.815473556518555
1772791954761027800,8.23202783203125,29.88119888305664,-16.444360733032227,14.338136672973633
1772791954781129200,8.252129150390624,28.945165634155273,-21.33473014831543,22.75165557861328
1772791954801230300,8.272230224609375,23.084627151489258,-22.127634048461914,27.651607513427734
1772791954821331500,8.29233154296875,20.825092315673828,-19.930381774902344,26.10712242126465
1772791954841432600,8.3124326171875,23.87872886657715,-19.266834259033203,25.963993072509766
1772791954861533700,8.33253369140625,25.72684097290039,-18.732044219970703,25.25672721862793
1772791954881634800,8.352634765625,21.614402770996094,-16.43478012084961,22.106075286865234
1772791954901736000,8.37273583984375,9.841224670410156,-13.25837516784668,18.286483764648438
1772791954921837000,8.392837158203125,1.1067110300064087,-9.652581214904785,12.578658103942871
1772791954941938200,8.412938232421874,-1.0108919143676758,-8.525507926940918,10.226897239685059
1772791954962039300,8.433039306640625,-4.073511123657227,-8.296140670776367,8.898005485534668
1772791954982140700,8.453140625,-13.724894523620605,-6.973237991333008,5.465883255004883
1772791955002241800,8.47324169921875,-22.256391525268555,-7.679903984069824,7.61702299118042
1772791955022343000,8.493343017578125,-22.46419906616211,-7.594265937805176,8.5919828414917
1772791955042444000,8.513444091796876,-18.139760971069336,-8.37758731842041,9.667552947998047
1772791955062545200,8.533545166015625,-14.301606178283691,-9.23696517944336,9.299846649169922
1772791955082646300,8.553646240234375,-9.759778022766113,-9.734026908874512,8.429689407348633
1772791955102747400,8.573747314453126,-5.496425628662109,-9.977168083190918,7.8080620765686035
1772791955122848500,8.5938486328125,-1.8523037433624268,-9.59988021850586,8.004491806030273
1772791955142949600,8.61394970703125,0.21319758892059326,-8.172175407409668,7.1918253898620605
1772791955163051800,8.6340517578125,2.349365472793579,-7.001983642578125,7.679305553436279
1772791955183153700,8.654153564453125,1.9996256828308105,-7.742186546325684,11.560579299926758
1772791955203255800,8.674255859375,-2.7314443588256836,-8.816558837890625,16.86237144470215
1772791955223358000,8.69435791015625,-3.8465397357940674,-13.559606552124023,27.85222816467285
1772791955243460000,8.714460205078124,10.18138313293457,-19.692031860351562,33.425907135009766
1772791955263562200,8.734562255859375,25.754987716674805,-18.712879180908203,24.711755752563477
1772791955283664400,8.754664306640626,33.36482238769531,-15.727514266967773,27.685144424438477
1772791955303766300,8.774766357421875,37.16944122314453,-11.123404502868652,35.983680725097656
1772791955323868400,8.794868408203126,27.952838897705078,-4.384923458099365,31.284351348876953
1772791955343970600,8.814970458984375,27.276716232299805,-2.111015558242798,32.240745544433594
1772791955364072700,8.83507275390625,27.073698043823242,-0.44915223121643066,24.974660873413086
1772791955384174800,8.8551748046875,19.624958038330078,-1.4378859996795654,12.225324630737305
1772791955404277000,8.875277099609375,17.61155891418457,-1.6432982683181763,6.354605674743652
1772791955424379000,8.89537890625,15.389751434326172,0.5683273077011108,5.786278247833252
1772791955444481000,8.91548095703125,10.308941841125488,2.932065725326538,5.47067403793335
1772791955464583200,8.935583251953124,7.184638977050781,4.785567283630371,4.438222885131836
1772791955484685300,8.955685302734375,5.07661771774292,5.2005839347839355,4.193883895874023
1772791955504787500,8.975787353515624,2.217015504837036,4.923906326293945,2.162518262863159
1772791955524889600,8.9958896484375,1.6025751829147339,3.7441329956054688,-0.7198413014411926
1772791955544991500,9.015991455078124,3.2572519779205322,2.139162302017212,-3.4446980953216553
1772791955565093600,9.03609375,4.457386493682861,1.5187333822250366,-4.946064472198486
1772791955585195800,9.05619580078125,2.5667552947998047,0.8216491341590881,-5.725193500518799
1772791955605298000,9.0762978515625,2.9685966968536377,-0.076655313372612,-8.015271186828613
1772791955625400000,9.096400146484376,5.9982781410217285,-0.8695586919784546,-10.458060264587402
1772791955645502200,9.116502197265625,9.462738990783691,-2.326009750366211,-11.074895858764648
1772791955665602800,9.136602783203125,14.312385559082031,-4.7328667640686035,-8.736908912658691
1772791955685703200,9.156703125,20.3100643157959,-7.82782506942749,-4.5735673904418945
1772791955705803500,9.176803466796875,30.353708267211914,-13.100872039794922,2.085862874984741
1772791955725904100,9.196904052734375,38.49773406982422,-16.133548736572266,9.600479125976562
1772791955746004500,9.21700439453125,39.37687683105469,-18.516450881958008,13.472171783447266
1772791955766105000,9.23710498046875,44.28281784057617,-22.342029571533203,17.583412170410156
1772791955786205400,9.257205322265625,41.67354202270508,-22.237226486206055,14.33753776550293
1772791955806306000,9.27730615234375,28.368453979492188,-19.01830291748047,11.694127082824707
1772791955826406400,9.297406494140626,16.618633270263672,-15.001684188842773,11.373732566833496
1772791955846507000,9.317507080078125,6.348018169403076,-10.922782897949219,10.092150688171387
1772791955866607400,9.337607421875,-3.213534355163574,-6.815136432647705,7.984129905700684
1772791955886708000,9.3577080078125,-9.083654403686523,-3.8591158390045166,6.220458984375
1772791955906808300,9.377808349609374,-12.81281566619873,-3.2045514583587646,6.00965690612793
1772791955926908700,9.39790869140625,-14.651944160461426,-3.051839590072632,5.09697961807251
1772791955947009300,9.41800927734375,-15.464611053466797,-3.147059917449951,4.284313201904297
1772791955967109600,9.438109619140626,-13.493730545043945,-4.00284481048584,5.403600692749023
1772791955987210200,9.458210205078124,-10.903619766235352,-4.838267803192139,6.488752365112305
1772791956007310600,9.478310546875,-9.75019645690918,-4.977205753326416,6.551034927368164
1772791956027411200,9.4984111328125,-9.650784492492676,-5.870120048522949,5.556911468505859
1772791956047511600,9.518511474609374,-6.9660515785217285,-6.844480991363525,3.5728561878204346
1772791956067612200,9.538612060546875,-7.679903984069824,-8.955496788024902,3.9411611557006836
1772791956087712500,9.55871240234375,-14.490848541259766,-10.612568855285645,0.5090391635894775
1772791956107813000,9.578813232421876,-25.952014923095703,-16.0766544342041,-2.4451847076416016
1772791956127913500,9.59891357421875,-31.83171844482422,-30.648351669311523,4.897555828094482
1772791956148014000,9.61901416015625,-18.867387771606445,-45.54463577270508,20.50529670715332
1772791956168115500,9.639115478515626,-2.958415985107422,-50.60688018798828,24.166187286376953
1772791956188217000,9.659217041015625,-3.0668113231658936,-57.07826614379883,17.34446144104004
1772791956208318500,9.679318359375,-7.779316425323486,-69.9210205078125,16.550960540771484
1772791956228420000,9.699420166015624,1.3995583057403564,-73.01119232177734,23.578096389770508
1772791956248521500,9.719521484375,4.235206127166748,-60.846351623535156,25.519033432006836
1772791956268623000,9.739623046875,-7.122356414794922,-47.88920974731445,25.136354446411133
1772791956288724500,9.759724365234375,-9.849609375,-38.97264099121094,26.168806076049805
1772791956308826000,9.779826171875,2.1415579319000244,-27.772579193115234,26.933563232421875
1772791956328927500,9.799927490234374,11.509077072143555,-17.160011291503906,25.972976684570312
1772791956349029000,9.820029052734375,13.409290313720703,-12.145674705505371,20.56159019470215
1772791956369130500,9.840130615234376,8.905191421508789,-9.681326866149902,10.91020679473877
1772791956389232000,9.860232177734375,2.2972638607025146,-6.867836952209473,4.360968589782715
1772791956409333500,9.88033349609375,-0.4204064905643463,-4.752030372619629,4.069319248199463
1772791956429435100,9.90043505859375,3.8100085258483887,-2.751207113265991,6.765430450439453
1772791956449536500,9.92053662109375,7.558333873748779,-0.1622936725616455,7.511621952056885
1772791956469638100,9.94063818359375,8.08773422241211,3.151850938796997,8.108695030212402
1772791956489739500,9.960739501953125,7.7847065925598145,4.278923511505127,14.170453071594238
1772791956509841200,9.980841064453125,10.18138313293457,2.7032976150512695,20.59512710571289
1772791956529942500,10.000942626953124,10.673054695129395,0.12396601587533951,20.76280975341797
1772791956550044200,10.021044189453125,9.009394645690918,-3.5824382305145264,17.20612335205078
1772791956570145500,10.0411455078125,8.39016342163086,-8.544672012329102,15.308305740356445
1772791956590247200,10.0612470703125,7.633791446685791,-12.83317756652832,16.0251522064209
1772791956610348500,10.0813486328125,5.492832183837891,-18.18707275390625,19.41475486755371
1772791956630450000,10.101449951171874,0.8042819499969482,-26.010704040527344,23.841598510742188
1772791956650551600,10.121551513671875,-5.165250778198242,-33.48519515991211,24.988433837890625
1772791956670653000,10.14165283203125,-8.700977325439453,-44.53673553466797,28.07201385498047
1772791956690754300,10.16175439453125,-7.594864845275879,-54.19410705566406,32.403038024902344
1772791956710856000,10.18185595703125,-6.772616863250732,-57.255531311035156,32.8282356262207
1772791956730957300,10.201957275390624,-7.476887226104736,-56.873451232910156,31.054983139038086
1772791956751058700,10.22205859375,-8.578208923339844,-59.829471588134766,31.465808868408203
1772791956771160000,10.24216015625,-9.712468147277832,-58.134071350097656,27.115619659423828
1772791956791261400,10.262261474609375,-10.076580047607422,-48.797096252441406,21.585058212280273
1772791956811363000,10.282363037109375,-15.025040626525879,-37.98390579223633,19.2662353515625
1772791956831464400,10.30246435546875,-20.044166564941406,-29.597335815429688,14.208781242370605
1772791956851565800,10.32256591796875,-24.369203567504883,-27.32881736755371,9.380694389343262
1772791956891768800,10.362768798828125,-3.0105175971984863,-32.978553771972656,0.1784631460905075
1772791956911870200,10.3828701171875,4.401093006134033,-32.07605743408203,-1.4564509391784668
1772791956931971600,10.4029716796875,-8.369802474975586,-36.00164794921875,-8.856682777404785
1772791956952073000,10.423072998046875,-14.73159408569336,-39.31159973144531,-22.026424407958984
1772791956972174600,10.443174560546876,-8.161993980407715,-33.522926330566406,-40.43567657470703
1772791956992276000,10.46327587890625,-5.6239848136901855,-29.616498947143555,-34.60807800292969
1772791957012377300,10.48337744140625,-7.051091194152832,-30.09379768371582,-15.921547889709473
1772791957032478700,10.503478759765626,-6.214470386505127,-33.79541015625,-2.1301794052124023
1772791957052580400,10.523580322265625,-10.005314826965332,-37.372459411621094,13.635663032531738
1772791957072681700,10.543681640625,-13.767414093017578,-36.93348693847656,28.153459548950195
1772791957092783000,10.563783203125,-12.628363609313965,-34.60268783569336,34.898529052734375
1772791957112884500,10.583884521484375,-10.459258079528809,-36.794551849365234,37.704833984375
1772791957132986000,10.603986083984376,-7.925440788269043,-44.560691833496094,37.756935119628906
1772791957153087700,10.624087646484375,-16.055694580078125,-51.891456604003906,49.12407684326172
1772791957173189600,10.644189697265626,-26.888647079467773,-47.602352142333984,57.31302261352539
1772791957193291500,10.66429150390625,-26.803607940673828,-33.494178771972656,54.01923751831055
1772791957213393400,10.684393310546875,-17.54927635192871,-18.211027145385742,46.94419479370117
1772791957233495600,10.70449560546875,-6.583972930908203,-6.423475742340088,49.66904830932617
1772791957253597400,10.724597412109375,1.9618968963623047,-6.991803169250488,40.279972076416016
1772791957273699300,10.74469921875,0.1796608865261078,-4.174121379852295,16.440168380737305
1772791957293801200,10.76480126953125,-4.896358013153076,-1.5804169178009033,8.170378684997559
1772791957313903400,10.7849033203125,-5.780289649963379,1.0653890371322632,10.196952819824219
1772791957334005200,10.805005126953125,-1.8055919408798218,5.597634315490723,14.532769203186035
1772791957354107100,10.825107177734376,3.6776583194732666,8.74050235748291,21.378448486328125
1772791957374209300,10.845209228515625,6.461204528808594,10.379009246826172,21.17243766784668
1772791957394311200,10.865311279296876,7.524796962738037,10.388591766357422,12.931391716003418
1772791957414413000,10.8854130859375,9.486095428466797,9.64778995513916,7.166074275970459
1772791957434515000,10.905514892578125,6.67859411239624,8.592581748962402,8.332672119140625
1772791957454617000,10.9256171875,1.0162817239761353,7.866751670837402,11.071303367614746
1772791957474719000,10.945718994140625,-2.160122871398926,6.085114479064941,12.285810470581055
1772791957494820900,10.96582080078125,-3.9417598247528076,3.45847225189209,13.729085922241211
1772791957514923000,10.985923095703125,-5.090392112731934,-1.7714563608169556,19.776472091674805
1772791957535025000,11.00602490234375,-5.274843692779541,-7.464311122894287,27.82647705078125
1772791957555126800,11.026126708984375,-7.34932804107666,-11.567167282104492,30.96814727783203
1772791957575228700,11.046228759765626,-10.99824047088623,-17.470823287963867,32.58389663696289
1772791957595330800,11.066330810546875,-15.620915412902832,-23.770334243774414,39.70206069946289
1772791957615432700,11.0864326171875,-14.292622566223145,-30.490249633789062,43.48332595825195
1772791957635534600,11.10653466796875,-10.723958969116211,-35.66268539428711,42.747314453125
1772791957655636500,11.126636474609375,-7.372684001922607,-36.21664047241211,36.743045806884766
1772791957675738000,11.146738037109374,-5.486843585968018,-31.71733283996582,29.40509796142578
1772791957695839500,11.166839599609375,-10.043044090270996,-26.941349029541016,25.284276962280273
1772791957715941000,11.186941162109376,-13.616498947143555,-22.55223274230957,16.173072814941406
1772791957736042800,11.207042724609375,-12.250476837158203,-18.578733444213867,5.986300945281982
1772791957756144400,11.227144287109375,-9.651383399963379,-16.978553771972656,-1.0222704410552979
1772791957776245800,11.247245849609374,-5.487442493438721,-17.212711334228516,-9.18246841430664
1772791957796347400,11.267347412109375,-0.9024965167045593,-15.956282615661621,-16.032339096069336
1772791957816449000,11.287448974609376,-1.6774338483810425,-15.053786277770996,-16.4581356048584
1772791957836550700,11.307550537109375,-4.46636962890625,-14.294419288635254,-15.80776309967041
1772791957856652300,11.32765234375,-5.141894817352295,-13.902758598327637,-13.221843719482422
1772791957876753700,11.347753662109374,-4.352584362030029,-13.262566566467285,-9.870569229125977
1772791957896855300,11.367855224609375,-3.9746978282928467,-12.278624534606934,-7.3565144538879395
1772791957916957000,11.38795703125,-3.4452970027923584,-12.231313705444336,-5.271849632263184
1772791957937058600,11.40805859375,-3.563274383544922,-13.491933822631836,-2.9057154655456543
1772791957957160000,11.428159912109376,-4.225025177001953,-14.485458374023438,-1.2851742506027222
1772791957977261600,11.448261474609374,-4.8256916999816895,-15.798779487609863,-0.6395927667617798
1772791957997363200,11.46836328125,-5.090392112731934,-19.462064743041992,0.7893101572990417
1772791958017464800,11.48846484375,-5.713815212249756,-24.543474197387695,4.097465991973877
1772791958037566500,11.50856640625,-6.205487251281738,-30.284238815307617,9.53759765625
1772791958057667800,11.528667724609376,-6.5366621017456055,-34.5398063659668,16.646181106567383
1772791958077769500,11.54876953125,-5.978515625,-36.488529205322266,22.358198165893555
1772791958097871000,11.56887109375,-5.6239848136901855,-37.96893310546875,23.113971710205078
1772791958117972700,11.58897265625,-6.754051685333252,-39.6218147277832,23.58228874206543
1772791958138074000,11.60907421875,-8.313508033752441,-38.055171966552734,24.724931716918945
1772791958158175000,11.629175048828126,-7.803271293640137,-32.13294982910156,24.925552368164062
1772791958178275600,11.649275634765624,-5.581464767456055,-23.316390991210938,24.849496841430664
1772791958198376200,11.669376220703125,-3.7052063941955566,-15.201706886291504,23.835609436035156
1772791958218476500,11.6894765625,-2.589512348175049,-9.723846435546875,21.440731048583984
1772791958238577200,11.7095771484375,-2.948834180831909,-5.869521141052246,18.285884857177734
1772791958258677500,11.729677490234375,-4.187296390533447,-2.4787213802337646,13.88299560546875
1772791958278778000,11.749778076171875,-4.560991287231445,-0.17187558114528656,10.550885200500488
1772791958298878500,11.76987841796875,-1.5594565868377686,0.7449938058853149,10.589213371276855
1772791958318979000,11.78997900390625,2.0092077255249023,2.6649699211120605,11.774974822998047
1772791958339079400,11.810079345703125,3.5500991344451904,4.632855415344238,11.478534698486328
1772791958359180000,11.830179931640625,3.601602077484131,5.430549621582031,10.541303634643555
1772791958379280400,11.8502802734375,2.349365472793579,5.335329532623291,10.225699424743652
1772791958399381000,11.870381103515625,1.7960100173950195,3.850132942199707,11.22940444946289
1772791958419481300,11.8904814453125,1.7109705209732056,1.6241344213485718,11.631245613098145
1772791958439582000,11.91058203125,0.9545981884002686,-0.7875135540962219,11.415653228759766
1772791958459682600,11.9306826171875,-0.12276827543973923,-4.131002902984619,12.734962463378906
1772791958479783000,11.950782958984375,-0.9168694019317627,-8.090129852294922,15.259198188781738
1772791958499883500,11.970883544921875,-2.9632070064544678,-12.407381057739258,19.030879974365234
1772791958519983900,11.99098388671875,-5.558109283447266,-17.212112426757812,21.946775436401367
1772791958540084500,12.01108447265625,-8.233260154724121,-24.44286346435547,27.736047744750977
1772791958560184800,12.031184814453125,-10.038252830505371,-29.61170768737793,33.27259826660156
1772791958580285400,12.051285400390626,-10.066998481750488,-34.91290283203125,37.16405487060547
1772791958600385800,12.0713857421875,-9.111801147460938,-37.87910461425781,39.08103561401367
1772791958620486400,12.091486328125,-9.381293296813965,-39.35471725463867,41.22738265991211
1772791958640586800,12.111586669921875,-5.817419528961182,-38.08451461791992,34.602088928222656
1772791958660688000,12.13168798828125,-3.1614327430725098,-32.51083755493164,27.474342346191406
1772791958680789500,12.15178955078125,-1.4127334356307983,-26.521541595458984,24.482389450073242
1772791958700891000,12.171890869140626,0.2892540395259857,-22.51929473876953,17.803794860839844
1772791958720992500,12.191992431640625,-3.515963554382324,-20.695138931274414,14.692069053649902
1772791958741094000,12.212093994140625,-11.626455307006836,-19.587228775024414,12.130104064941406
1772791958761195500,12.232195556640624,-19.708799362182617,-16.65396499633789,2.8260657787323
1772791958781297200,12.252297119140625,-22.360593795776367,-14.327956199645996,-2.0211849212646484
1772791958801398500,12.2723984375,-24.246435165405273,-15.378972053527832,-2.398472785949707
1772791958821500200,12.292500244140625,-25.96698760986328,-14.112961769104004,-7.852977752685547
1772791958841601500,12.3126015625,-22.970243453979492,-12.536736488342285,-12.150465965270996
1772791958861703200,12.332703125,-18.44698143005371,-11.3521728515625,-11.916308403015137
1772791958881804500,12.352804443359375,-15.918553352355957,-10.368828773498535,-7.738593578338623
1772791958901906200,12.37290625,-11.395291328430176,-10.048433303833008,-2.5326197147369385
1772791958942109200,12.413109130859375,-6.597746849060059,-9.413631439208984,-3.680053949356079
1772791958962210800,12.4332109375,-11.182692527770996,-10.368229866027832,-2.9632070064544678
1772791958982312200,12.453312255859375,-14.202792167663574,-12.388815879821777,7.390650272369385
1772791959002413800,12.473413818359376,-14.202792167663574,-14.585470199584961,14.369876861572266
1772791959022515200,12.49351513671875,-12.761313438415527,-17.66605567932129,15.93771743774414
1772791959042616800,12.513616943359375,-9.901710510253906,-22.11266326904297,18.457162857055664
1772791959062718200,12.53371826171875,-9.906501770019531,-27.26593589782715,29.968034744262695
1772791959082819800,12.55381982421875,-12.449301719665527,-30.6950626373291,40.590187072753906
1772791959102921200,12.573921142578126,-16.15031623840332,-32.89171600341797,45.566192626953125
1772791959123022800,12.59402294921875,-18.905715942382812,-31.692779541015625,45.82430648803711
1772791959143124500,12.61412451171875,-18.036157608032227,-26.190963745117188,46.29262161254883
1772791959163225600,12.6342255859375,-12.869708061218262,-17.957704544067383,42.780250549316406
1772791959183326700,12.65432666015625,-6.290526866912842,-11.194669723510742,34.42901611328125
1772791959203428000,12.674427978515626,-0.4820900559425354,-6.8007636070251465,27.315641403198242
1772791959223529200,12.694529296875,2.24516224861145,-4.604109764099121,22.740877151489258
1772791959243630600,12.714630615234375,3.365647315979004,-4.355578899383545,21.125125885009766
1772791959263731700,12.734731689453126,3.6063928604125977,-3.8016245365142822,18.840438842773438
1772791959283833000,12.7548330078125,2.5949020385742188,-2.721862554550171,13.854249954223633
1772791959303934200,12.774934326171875,0.6431859731674194,-0.859377920627594,9.36572265625
1772791959324035600,12.79503564453125,-0.4862821400165558,1.141445517539978,6.8941874504089355
1772791959344136700,12.81513671875,2.3349926471710205,2.536212921142578,6.573791980743408
1772791959364238000,12.835238037109375,4.102855682373047,3.88366961479187,8.733914375305176
1772791959384339200,12.855339111328124,3.668076515197754,4.938878059387207,10.125088691711426
1772791959404440600,12.875440673828125,6.437249660491943,4.800539016723633,8.877044677734375
1772791959424541700,12.895541748046876,10.12389087677002,4.504697322845459,7.070254802703857
1772791959444643000,12.91564306640625,10.473630905151367,4.141183376312256,6.587565898895264
1772791959464744200,12.935744140625,8.2290678024292,3.6207659244537354,6.725904941558838
1772791959484845600,12.955845458984374,5.529962062835693,2.7038965225219727,7.820638656616211
1772791959504946700,12.97594677734375,2.282891035079956,1.7199535369873047,9.44597053527832
1772791959525048000,12.996048095703125,-1.1863607168197632,-0.3910618722438812,13.030804634094238
1772791959545149200,13.016149169921874,-2.5757381916046143,-4.507691860198975,19.89085578918457
1772791959565250600,13.03625048828125,-0.756372332572937,-8.754276275634766,28.33371925354004
1772791959585351700,13.0563515625,-2.6799416542053223,-14.671707153320312,33.587005615234375
1772791959605453000,13.076453125,-5.085600852966309,-19.476438522338867,35.30815505981445
1772791959625554200,13.09655419921875,-6.125238418579102,-24.567428588867188,38.46779251098633
1772791959645655600,13.116655517578126,-6.149193286895752,-31.09630584716797,37.7557373046875
1772791959665756700,13.136756591796875,-5.175431251525879,-33.8331413269043,31.94310760498047
1772791959685858000,13.156858154296875,-3.4782347679138184,-31.731706619262695,24.576412200927734
1772791959705959400,13.17695947265625,-2.6655688285827637,-26.68323516845703,19.012313842773438
1772791959726060800,13.197060791015625,-3.251862049102783,-21.620990753173828,15.81854248046875
1772791959746162000,13.217161865234376,-3.5776472091674805,-16.86836051940918,11.640828132629395
1772791959766263300,13.23726318359375,-3.8375566005706787,-13.043380737304688,9.016581535339355
1772791959786364700,13.25736474609375,-4.593928813934326,-10.44488525390625,5.9809112548828125
1772791959806466000,13.277466064453124,-6.087509632110596,-9.743010520935059,2.7356364727020264
1772791959826567400,13.2975673828125,-7.670921325683594,-10.401766777038574,0.3215929865837097
1772791959846668500,13.31766845703125,-9.05550765991211,-10.717370986938477,-1.2660104036331177
1772791959866770000,13.33777001953125,-13.51708698272705,-12.756522178649902,-2.690122365951538
1772791959906972700,13.37797265625,-16.57551383972168,-14.504622459411621,-16.20900535583496
1772791959927073800,13.39807373046875,-14.211775779724121,-14.71003532409668,-14.311187744140625
1772791959947175200,13.418175048828125,-12.397200584411621,-15.140023231506348,-10.864692687988281
1772791959967276500,13.438276611328124,-11.00782299041748,-16.777931213378906,-9.287270545959473
1772791959987378000,13.4583779296875,-10.629337310791016,-21.515588760375977,-6.108470439910889
1772791960007479300,13.478479248046876,-10.44488525390625,-28.84695053100586,1.7984055280685425
1772791960027580400,13.498580322265624,-8.857281684875488,-35.562076568603516,8.428491592407227
1772791960047681800,13.518681884765625,-5.250888824462891,-41.78553009033203,14.757944107055664
1772791960067783200,13.538783203125,0.1796608865261078,-46.68069076538086,19.462064743041992
1772791960087884500,13.558884521484375,2.6422128677368164,-49.74690246582031,22.70793914794922
1772791960107985700,13.578985595703125,-1.1150952577590942,-52.235206604003906,28.07620620727539
1772791960128087000,13.599087158203124,-7.968559265136719,-52.68914794921875,30.767526626586914
1772791960148188400,13.6191884765625,-11.125800132751465,-46.78609085083008,27.04375457763672
1772791960168290600,13.63929052734375,-5.638357639312744,-35.7818603515625,26.020286560058594
1772791960188392700,13.659392822265625,-0.17486993968486786,-23.517011642456055,31.087322235107422
1772791960208494800,13.679494873046876,3.856720447540283,-12.384025573730469,32.44017028808594
1772791960228596700,13.6995966796875,4.617883682250977,-7.9230451583862305,31.919153213500977
1772791960248699000,13.719698974609376,0.7330164313316345,-6.972639083862305,25.723247528076172
1772791960268801000,13.739801025390625,-1.091739296913147,-6.810345649719238,18.07987403869629
1772791960288903200,13.759903076171875,1.0827562808990479,-6.088707447052002,14.948385238647461
1772791960309005000,13.780005126953125,2.3775124549865723,-3.772279739379883,14.150092124938965
1772791960329107200,13.800107177734375,1.8247557878494263,-1.2654114961624146,11.104839324951172
1772791960349209300,13.820209228515624,2.8739752769470215,0.7168469429016113,7.199610710144043
1772791960369311500,13.8403115234375,2.3020548820495605,2.722461462020874,6.60732889175415
1772791960389413400,13.860413330078124,2.5949020385742188,4.317850112915039,7.486469268798828
1772791960409515500,13.880515625,2.784144878387451,4.274731636047363,9.169293403625488
1772791960429617700,13.90061767578125,2.651794672012329,2.440992593765259,7.505633354187012
1772791960449719600,13.920719482421875,2.859602451324463,0.855185866355896,7.281056880950928
1772791960469821700,13.94082177734375,2.7745630741119385,-1.1510274410247803,11.621664047241211
1772791960489923800,13.960923828125,1.6876146793365479,-4.684957027435303,16.005390167236328
1772791960510026000,13.98102587890625,-2.1080210208892822,-8.601564407348633,18.486507415771484
1772791960530128100,14.001128173828125,-4.494516849517822,-8.243440628051758,18.07987403869629
1772791960550230000,14.02122998046875,-0.8222479820251465,-8.291350364685059,19.815998077392578
1772791960570332200,14.041332275390625,2.8033087253570557,-12.340906143188477,22.15817642211914
1772791960590434300,14.061434326171875,13.433244705200195,-16.329378128051758,17.37320899963379
1772791960610536400,14.081536376953125,30.131526947021484,-18.8080997467041,15.422689437866211
1772791960630638300,14.101638427734375,27.716285705566406,-21.51618766784668,24.137439727783203
1772791960650740200,14.121740234375,15.229254722595215,-20.63225746154785,24.032039642333984
1772791960670842000,14.141842041015625,9.670546531677246,-16.501253128051758,15.341842651367188
1772791960690943700,14.16194384765625,6.107272624969482,-12.566082000732422,10.470636367797852
1772791960711045400,14.18204541015625,-1.2282816171646118,-9.619044303894043,10.025676727294922
1772791960731147300,14.202147216796876,-10.024478912353516,-5.454504489898682,5.886289596557617
1772791960751249000,14.222248779296875,-12.59123420715332,-1.9241681098937988,2.0559194087982178
1772791960771350500,14.2423505859375,-10.166411399841309,-0.46771717071533203,1.9840551614761353
1772791960791452200,14.2624521484375,-10.388591766357422,0.17726540565490723,2.777557373046875
1772791960811554000,14.282553955078125,-12.643335342407227,0.5785080790519714,2.624246835708618
1772791960831655700,14.30265576171875,-12.68106460571289,-0.5006549954414368,3.130890369415283
1772791960851757300,14.32275732421875,-9.901710510253906,-1.685219168663025,3.035670280456543
1772791960871859200,14.342859130859376,-6.518096923828125,-2.9506306648254395,2.3469700813293457
1772791960891960800,14.3629609375,-3.4363138675689697,-3.8585171699523926,2.1655125617980957
1772791960912062500,14.3830625,-0.9593891501426697,-3.8866639137268066,2.045738697052002
1772791960932164000,14.4031640625,-0.10420331358909607,-3.012913227081299,2.5044727325439453
1772791960952266000,14.423265869140625,-1.1342591047286987,-1.7475016117095947,3.690833568572998
1772791960972367600,14.44336767578125,-0.6282142400741577,-3.997454881668091,13.02721118927002
1772791960992469200,14.46346923828125,21.84137535095215,-15.129842758178711,26.775461196899414
1772791961012571100,14.483571044921876,55.38945388793945,-18.20084571838379,17.84571647644043
1772791961032672800,14.5036728515625,60.48463439941406,-18.067298889160156,12.20975399017334
1772791961052774400,14.5237744140625,43.97080612182617,-15.240034103393555,12.03787899017334
1772791961072876000,14.5438759765625,25.8304443359375,-9.198039054870605,7.7685370445251465
1772791961092978000,14.56397802734375,12.912827491760254,-3.5626754760742188,4.828685760498047
1772791961113079600,14.58407958984375,6.480368137359619,0.8216491341590881,3.619568109512329
1772791961133181200,14.60418115234375,4.036381244659424,3.4297263622283936,2.051727294921875
1772791961153282800,14.62428271484375,1.130066990852356,4.026200771331787,-0.46771717071533203
1772791961173384000,14.644384033203124,-2.646404981613159,3.6201670169830322,-1.7630722522735596
1772791961193485300,14.6644853515625,-4.863420486450195,2.5937044620513916,-2.00681209564209
1772791961213586700,14.684586669921876,-5.746753215789795,1.57622492313385,-2.661376714706421
1772791961233687800,14.704687744140625,-5.364075183868408,0.6641464233398438,-3.163229465484619
1772791961253789200,14.7247890625,-4.796945571899414,-0.06707339733839035,-2.9626080989837646
1772791961273890600,14.744890625,-5.118538856506348,-0.4539431929588318,-3.416551351547241
1772791961293991700,14.76499169921875,-4.730471134185791,-1.103117823600769,-3.932776927947998
1772791961314093000,14.785093017578125,-2.4996819496154785,-1.600179672241211,-3.3638508319854736
1772791961334194400,14.8051943359375,0.5821012854576111,-0.7641576528549194,-3.497997522354126
1772791961354295600,14.825295654296875,5.133510589599609,0.5683273077011108,-3.895048141479492
1772791961374397000,14.84539697265625,13.073923110961914,1.633716344833374,1.4828011989593506
1772791961394498300,14.865498291015625,23.902084350585938,3.014110803604126,9.925066947937012
1772791961414599400,14.885599365234375,29.715312957763672,4.943668842315674,12.544522285461426
1772791961434700800,14.90570068359375,29.772205352783203,7.642175197601318,10.785043716430664
1772791961454802200,14.92580224609375,27.371335983276367,6.309690475463867,11.416252136230469
1772791961474903300,14.9459033203125,21.415578842163086,5.46887731552124,11.39229679107666
1772791961495004700,14.966004638671874,13.272149085998535,8.243440628051758,9.647191047668457
1772791961515106000,14.98610595703125,9.476512908935547,10.83714485168457,8.624321937561035
1772791961535207200,15.006207275390626,10.370026588439941,11.434218406677246,7.7302093505859375
1772791961555308500,15.02630859375,10.26163101196289,10.522139549255371,7.969158172607422
1772791961575409700,15.04640966796875,10.350862503051758,8.038626670837402,6.841486930847168
1772791961595511000,15.066510986328124,7.751768589019775,4.814911842346191,3.4854211807250977
1772791961615612400,15.0866123046875,2.864393472671509,1.9205749034881592,-0.27188682556152344
1772791961635713800,15.1067138671875,-1.5971853733062744,0.17726540565490723,-4.407081604003906
1772791961655815000,15.12681494140625,-4.79275369644165,-1.3462589979171753,-5.4970245361328125
1772791961675916000,15.146916015625,-6.512707233428955,-3.251862049102783,-2.5428004264831543
1772791961696017200,15.16701708984375,-8.408129692077637,-4.823296070098877,-0.07605644315481186
1772791961716118300,15.1871181640625,-11.51326847076416,-6.160572052001953,-0.09042931348085403
1772791961736219400,15.207219482421875,-11.891754150390625,-7.321181297302246,-0.6593554615974426
1772791961756320500,15.227320556640626,-10.69581127166748,-7.7799153327941895,0.49286970496177673
1772791961776421600,15.247421630859375,-8.408129692077637,-7.5601301193237305,2.5008795261383057
1772791961796522800,15.267522705078125,-6.460605621337891,-6.280345916748047,3.4183478355407715
1772791961816623900,15.287623779296876,-5.988097667694092,-4.909533500671387,2.12778377532959
1772791961836725000,15.30772509765625,-3.8237826824188232,-2.39727520942688,0.2539207339286804
1772791961856826000,15.327826171875,-0.42519745230674744,-0.5395815372467041,5.445521831512451
1772791961876927200,15.34792724609375,14.06624984741211,-3.8920538425445557,26.617958068847656
1772791961897028400,15.3680283203125,31.105289459228516,-1.957704782485962,28.663698196411133
1772791961917129500,15.38812939453125,43.861812591552734,-1.2462477684020996,7.4008307456970215
1772791961937230600,15.408230712890624,55.37567901611328,-4.9526519775390625,8.705767631530762
1772791961957332000,15.42833203125,52.312461853027344,-5.301194190979004,13.094285011291504
1772791961977432800,15.448432861328126,42.557472229003906,-2.3349926471710205,4.097465991973877
1772791961997534200,15.4685341796875,29.767414093017578,0.11019201576709747,0.005389826837927103
1772791962017635300,15.48863525390625,22.422876358032227,1.2420556545257568,4.4082794189453125
1772791962037736400,15.508736328125,20.631059646606445,1.5091514587402344,7.558932304382324
1772791962057837600,15.528837646484375,16.42938995361328,1.3660216331481934,6.669610977172852
1772791962077938700,15.548938720703125,10.979676246643066,1.1989370584487915,4.733465671539307
1772791962098039800,15.569039794921874,6.919938564300537,0.2772766351699829,4.19328498840332
1772791962118141000,15.589140869140625,3.79563570022583,-0.7066661715507507,3.4908111095428467
1772791962158343200,15.62934326171875,-2.320619821548462,-2.750608205795288,2.6775460243225098
1772791962178444000,15.649444091796875,-2.7128794193267822,-3.4626641273498535,3.7489240169525146
1772791962198545200,15.669545166015626,-4.229816436767578,-3.414754629135132,4.231612682342529
1772791962218646300,15.689646240234374,-7.723022937774658,-2.832054615020752,4.470561981201172
1772791962238747400,15.709747314453125,-10.3364896774292,-2.3020548820495605,4.919713973999023
1772791962258848500,15.7298486328125,-10.69581127166748,-1.8385298252105713,3.7249691486358643
1772791962278949600,15.74994970703125,-8.50754165649414,-1.8960212469100952,2.0421454906463623
1772791962299050500,15.770050537109375,-5.515589237213135,-1.9624958038330078,0.9426208138465881
1772791962319151600,15.790151611328126,-3.090766191482544,-1.4851967096328735,0.1491185426712036
1772791962339252700,15.810252685546875,-1.5738294124603271,-0.7449938058853149,0.4263951778411865
1772791962359353900,15.830353759765625,0.10420331358909607,-0.16708463430404663,2.0756821632385254
1772791962379455000,15.850455078125,3.7812628746032715,0.3299771547317505,3.552494764328003
1772791962399555800,15.870555908203125,9.604671478271484,0.8503949046134949,3.9782910346984863
1772791962419657000,15.890656982421875,15.64966106414795,1.7912191152572632,6.998989582061768
1772791962439758000,15.910758056640624,20.09746551513672,3.1524498462677,9.002208709716797
1772791962459859200,15.930859130859375,23.902084350585938,5.521577835083008,7.085226535797119
1772791962479960300,15.950960205078125,26.520343780517578,5.5736799240112305,7.376876354217529
1772791962500061200,15.971061279296874,30.69865608215332,4.451397895812988,7.869146823883057
1772791962520162300,15.991162353515625,31.690982818603516,4.4418158531188965,4.862222671508789
1772791962540263400,16.011263427734374,28.722986221313477,4.3034772872924805,2.70150089263916
1772791962560364500,16.031364501953124,24.644084930419922,4.18430233001709,1.9840551614761353
1772791962580465700,16.051465576171875,19.17999839782715,4.681364059448242,1.4630385637283325
1772791962600566500,16.07156640625,13.574578285217285,5.153872013092041,1.2192986011505127
1772791962620667600,16.091667724609376,10.208930969238281,5.330538749694824,0.39166074991226196
1772791962640768800,16.111768798828123,8.275779724121094,5.149081230163574,-0.26769474148750305
1772791962660869600,16.13186962890625,6.37616491317749,4.561590194702148,-0.22457611560821533
1772791962680970500,16.151970458984376,4.593928813934326,3.8261780738830566,-0.33955907821655273
1772791962701071600,16.172071533203123,2.2733092308044434,2.9332635402679443,-0.2916495203971863
1772791962721172500,16.19217236328125,1.1246771812438965,1.8828461170196533,-0.7222367525100708
1772791962741273300,16.2122734375,1.3468577861785889,0.8893213868141174,-1.57802152633667
1772791962761374200,16.232374267578123,1.6876146793365479,0.052700527012348175,-2.1744956970214844
1772791962781475000,16.25247509765625,2.12239408493042,-0.29584160447120667,-2.4709360599517822
1772791962801576200,16.272576171875,2.150540828704834,-0.17606768012046814,-2.3176255226135254
1772791962821677000,16.292677001953123,1.6211401224136353,0.7503836750984192,-1.9259647130966187
1772791962841778000,16.31277783203125,0.9360332489013672,2.832653284072876,-1.7534903287887573
1772791962861878800,16.332878662109376,-0.33536699414253235,4.141183376312256,0.2730845510959625
1772791962881980000,16.35297998046875,0.9641801118850708,3.816596269607544,3.8297712802886963
1772791962902080800,16.373080810546874,3.658494710922241,1.1132986545562744,7.945802211761475
1772791962922181600,16.393181640625,2.2403712272644043,-2.9799752235412598,12.042669296264648
1772791962942282500,16.413282470703123,1.045027494430542,-5.410787105560303,14.432758331298828
1772791962962383400,16.43338330078125,5.402402877807617,-3.9782910346984863,10.068196296691895
1772791962982484500,16.453484375,15.167571067810059,0.5401803851127625,1.9463263750076294
1772791963002585300,16.47358544921875,14.652543067932129,1.21330988407135,3.5333309173583984
1772791963022686200,16.493686279296874,9.065688133239746,-2.311038017272949,11.310851097106934
1772791963042787000,16.513787109375,14.179436683654785,-4.933487892150879,14.795673370361328
1772791963062888000,16.533887939453123,23.62301254272461,-4.8759965896606445,12.773889541625977
1772791963082989000,16.553989013671874,23.07504653930664,-4.465171813964844,9.460942268371582
1772791963103090000,16.57408984375,16.19283676147461,-3.3428902626037598,6.521091461181641
1772791963123190800,16.594190673828123,8.181756973266602,-1.031253457069397,4.059138298034668
1772791963143291600,16.614291748046874,0.5533555150032043,1.4474679231643677,2.046936511993408
1772791963163393800,16.634393798828125,-2.6326308250427246,2.1493430137634277,0.5455702543258667
1772791963183496000,16.654495849609376,-1.0965303182601929,0.5162256360054016,-0.7976943254470825
1772791963203598000,16.67459814453125,2.0044167041778564,-2.2637271881103516,-2.810495138168335
1772791963223700200,16.6947001953125,6.3054986000061035,-4.9478607177734375,-4.139387130737305
1772791963243802400,16.71480224609375,12.757121086120605,-6.2228546142578125,-4.201669216156006
1772791963263904800,16.73490478515625,19.714189529418945,-5.573081016540527,-2.3799078464508057
1772791963284007000,16.7550068359375,21.401803970336914,-3.8153984546661377,-0.9078863859176636
1772791963304109000,16.775109130859374,15.181344985961914,-2.7649810314178467,-1.3953661918640137
1772791963324211200,16.795211181640624,7.836808204650879,-1.8433207273483276,-2.15533185005188
1772791963344313300,16.815313232421875,4.70292329788208,-1.3845865726470947,-1.6534790992736816
1772791963364415500,16.83541552734375,4.864019393920898,-1.9481229782104492,-0.4581352770328522
1772791963384518000,16.855517822265625,8.011677742004395,-3.486020088195801,0.8515926003456116
1772791963404620000,16.8756201171875,13.470375061035156,-5.52577018737793,1.300744891166687
1772791963424722200,16.89572216796875,18.008010864257812,-7.450537204742432,1.2863719463348389
1772791963444824300,16.91582421875,18.44278907775879,-9.250739097595215,1.8792529106140137
1772791963464926500,16.935926513671873,18.367332458496094,-11.098851203918457,2.6440093517303467
1772791963485028900,16.95602880859375,19.666879653930664,-11.127596855163574,2.5056705474853516
1772791963505130800,16.976130859375,20.03099250793457,-10.32571029663086,2.591308832168579
1772791963525233200,16.996233154296874,15.805367469787598,-9.79032039642334,1.9463263750076294
1772791963545335300,17.016335205078125,11.68394660949707,-7.956582069396973,0.6270164847373962
1772791963565437400,17.0364375,8.271587371826172,-5.386832237243652,0.09102818369865417
1772791963585539600,17.05653955078125,5.874911308288574,-2.564359664916992,0.42519745230674744
1772791963605641700,17.076641845703126,5.988696575164795,-0.2048134207725525,0.8462027907371521
1772791963625744000,17.096743896484377,6.5648088455200195,0.9126773476600647,0.3108133375644684
1772791963645846300,17.11684619140625,5.477860450744629,1.2186996936798096,0.41082456707954407
1772791963665948700,17.13694873046875,3.932178020477295,1.385784387588501,0.40603360533714294
1772791963686051000,17.157051025390626,2.7032976150512695,1.419321060180664,0
1772791963706153500,17.177153564453125,2.084066390991211,1.1851630210876465,-0.18205636739730835
1772791963726255900,17.197255859375,1.691806674003601,1.1803719997406006,-0.5264064073562622
1772791963746358300,17.217358154296875,1.1109031438827515,1.380993366241455,-1.042631983757019
1772791963766460700,17.237460693359374,0.7611632943153381,1.5378972291946411,-1.2468465566635132
1772791963786563000,17.25756298828125,1.1821686029434204,1.7720552682876587,-1.3187109231948853
1772791963806665500,17.27766552734375,2.7320432662963867,2.0535240173339844,-1.141445517539978
1772791963826768000,17.297767822265627,4.348991394042969,2.40266489982605,-0.3623161315917969
1772791963846870300,17.317870361328126,5.081408977508545,2.76557993888855,0.38866639137268066
1772791963866972700,17.33797265625,5.671894550323486,2.8128907680511475,0.1401354968547821
1772791963887075000,17.358074951171876,6.7402777671813965,2.860800266265869,0.36471161246299744
1772791963907177500,17.378177490234375,7.463712215423584,1.6283265352249146,4.165138244628906
1772791963927279900,17.39827978515625,8.62132740020752,0.3054235279560089,6.378560543060303
1772791963947382300,17.41838232421875,5.483250617980957,0.42998838424682617,5.537148475646973
1772791963967484700,17.438484619140624,-3.2752180099487305,0.7599655389785767,6.49174690246582
1772791963987587000,17.458587158203127,-7.52000617980957,-2.683534860610962,7.562525749206543
1772791964007689500,17.478689453125,-6.271961688995361,-11.686342239379883,5.253284454345703
1772791964027792000,17.4987919921875,-2.689523458480835,-25.068683624267578,-0.7414005994796753
1772791964047894300,17.518894287109376,8.020661354064941,-33.74690246582031,-5.459295749664307
1772791964067996700,17.53899658203125,23.721824645996094,-33.278587341308594,-4.465171813964844
1772791964088099000,17.55909912109375,35.13148880004883,-25.971179962158203,-4.838267803192139
1772791964108201500,17.579201416015625,28.670883178710938,-18.711681365966797,-9.6807279586792
1772791964128303900,17.599303955078124,15.199910163879395,-13.926114082336426,-12.348093032836914
1772791964148406300,17.61940625,9.499869346618652,-9.804095268249512,-12.066025733947754
1772791964168508200,17.639508056640626,10.270614624023438,-6.6522440910339355,-12.008533477783203
1772791964188610000,17.659610107421877,11.641427040100098,-5.271849632263184,-10.784444808959961
1772791964208712200,17.679712158203124,11.787550926208496,-4.81850528717041,-7.122955322265625
1772791964228814000,17.69981396484375,11.4000825881958,-5.310176849365234,-2.1655125617980957
1772791964248916000,17.719916015625,12.50140380859375,-5.792865753173828,1.5774226188659668
1772791964269017900,17.740017822265624,13.678182601928711,-6.680989742279053,3.288991928100586
1772791964289120000,17.7601201171875,13.881797790527344,-9.599281311035156,4.842459678649902
1772791964309222000,17.780221923828126,15.181344985961914,-14.155481338500977,5.520979404449463
1772791964329323800,17.80032373046875,17.856496810913086,-19.432720184326172,5.153273105621338
1772791964349425700,17.82042578125,25.92027473449707,-23.03432273864746,2.0319647789001465
1772791964369527600,17.840527587890627,32.806678771972656,-27.413856506347656,-0.28206759691238403
1772791964389629700,17.860629638671874,26.061609268188477,-29.0709285736084,2.5002806186676025
1772791964409731600,17.880731689453125,17.998428344726562,-25.235767364501953,4.775985240936279
1772791964429833500,17.90083349609375,11.286895751953125,-17.522926330566406,7.213983535766602
1772791964449935400,17.920935302734375,2.859602451324463,-9.279484748840332,7.515214920043945
1772791964470037200,17.941037353515625,-8.11528205871582,-3.1662237644195557,2.089456081390381
1772791964490139100,17.96113916015625,-18.55597496032715,-0.49646294116973877,0.9372310042381287
1772791964510241300,17.9812412109375,-19.45368194580078,1.2181007862091064,2.8590035438537598
1772791964530343200,18.00134326171875,-13.058951377868652,0.3108133375644684,5.435939788818359
1772791964550445000,18.021445068359377,-9.863982200622559,-0.6252198815345764,5.320357799530029
1772791964570547000,18.041546875,-11.452183723449707,-0.8450050354003906,4.446008205413818
1772791964590649000,18.061649169921875,-10.861099243164062,-1.613953709602356,2.6050829887390137
1772791964610751000,18.0817509765625,-7.600254535675049,-2.358947515487671,1.261818289756775
1772791964630852900,18.101852783203125,-3.327319622039795,-2.420631170272827,0.4066324830055237
1772791964650954200,18.121954345703124,-0.00479095708578825,-1.6516824960708618,-0.44915223121643066
1772791964671054600,18.1420546875,3.5213534832000732,-1.031253457069397,1.0420331954956055
1772791964691155000,18.162155029296876,9.079463005065918,-1.0025078058242798,6.639667510986328
1772791964731355400,18.20235546875,15.03042984008789,-0.013774001970887184,12.137290954589844
1772791964751455700,18.222455810546876,18.28708267211914,-4.039974689483643,12.319347381591797
1772791964771555800,18.242555908203126,21.765317916870117,-4.025601863861084,9.283677101135254
1772791964791656200,18.26265625,19.52973747253418,-1.355840802192688,7.639780044555664
1772791964811756500,18.282756591796876,13.244002342224121,1.0174795389175415,6.707339763641357
1772791964831856600,18.302856689453126,12.218138694763184,1.9205749034881592,3.805816650390625
1772791964851957000,18.32295703125,10.256840705871582,2.7128794193267822,0.32099413871765137
1772791964872057300,18.343057373046875,9.505258560180664,2.985365152359009,0.08683609962463379
1772791964892157400,18.363157470703126,13.645244598388672,2.440992593765259,0.5264064073562622
1772791964912257800,18.3832578125,18.854211807250977,2.0062131881713867,0.8228468894958496
1772791964932358000,18.40335791015625,18.093050003051758,2.0637047290802,2.854811668395996
1772791964952458200,18.423458251953125,17.762474060058594,1.7007898092269897,4.8095221519470215
1772791964972558600,18.44355859375,20.257963180541992,0.855185866355896,3.6387319564819336
1772791964992658700,18.46365869140625,19.941160202026367,-0.1856495887041092,2.0559194087982178
1772791965012759000,18.483759033203125,17.85709571838379,-0.8785417675971985,1.9750720262527466
1772791965032859100,18.503859130859375,15.34244155883789,-0.7449938058853149,1.8600890636444092
1772791965052959500,18.52395947265625,11.447992324829102,0.20541228353977203,1.4444735050201416
1772791965073059800,18.544059814453124,6.985814094543457,1.1701912879943848,1.2672080993652344
1772791965093160000,18.564159912109375,4.920312881469727,1.6768349409103394,1.8079874515533447
1772791965133360600,18.604360595703124,6.054572105407715,1.7864280939102173,1.1144963502883911
1772791965153461200,18.624461181640626,7.056480884552002,1.3043380975723267,1.3438634872436523
1772791965173563100,18.644563232421874,7.548152923583984,0.6168357133865356,1.936145544052124
1772791965193664800,18.664664794921876,7.227158546447754,0.0958191454410553,2.3236141204833984
1772791965213766400,18.684766357421875,5.345510482788086,-0.7156491875648499,4.1639404296875
1772791965233868300,18.704868408203126,3.2470712661743164,-1.633117437362671,5.564696788787842
1772791965253970000,18.724969970703125,1.649885892868042,-2.057716131210327,3.905827760696411
1772791965274071600,18.745071533203124,2.1792867183685303,-1.5899988412857056,1.3438634872436523
1772791965294173200,18.765173095703126,5.213160037994385,-0.5012539029121399,0.841411828994751
1772791965314274800,18.78527490234375,7.562525749206543,0.14851966500282288,2.748811721801758
1772791965334376700,18.805376708984376,8.01646900177002,0.4162144064903259,4.747239589691162
1772791965354478300,18.825478271484375,7.113373756408691,0.6641464233398438,4.695137977600098
1772791965374580000,18.845580078125,6.328854084014893,1.1228805780410767,3.0218961238861084
1772791965394681900,18.865681884765625,6.971441268920898,1.4666317701339722,2.567354202270508
1772791965414783500,18.885783447265624,8.40872859954834,1.7199535369873047,3.179399013519287
1772791965434885000,18.905885009765626,9.40584659576416,1.8343377113342285,3.9249916076660156
1772791965454986800,18.92598681640625,10.714975357055664,1.452258825302124,3.7387430667877197
1772791965475088600,18.946088623046876,12.912827491760254,0.492270827293396,2.993150472640991
1772791965495190300,18.966190185546875,15.172362327575684,-0.41501665115356445,2.448179006576538
1772791965515292000,18.9862919921875,16.41022491455078,-0.830632209777832,2.12778377532959
1772791965535393500,19.0063935546875,16.46232795715332,-0.792304515838623,1.8552981615066528
1772791965555495400,19.026495361328124,15.474791526794434,-0.5629374384880066,1.2432533502578735
1772791965575597000,19.04659716796875,13.834487915039062,-0.29584160447120667,0.6887000799179077
1772791965595698700,19.06669873046875,12.326533317565918,-0.07605644315481186,0.6503724455833435
1772791965615800600,19.086800537109376,11.074296951293945,0.15810158848762512,0.7551746368408203
1772791965635902200,19.106902099609375,10.445484161376953,0.2635026276111603,0.7695474624633789
1772791965656003300,19.12700341796875,10.691020965576172,0.0005988696357235312,0.5066437125205994
1772791965676104000,19.14710400390625,10.601190567016602,-0.4910731017589569,0.5737171173095703
1772791965696204500,19.16720458984375,10.199947357177734,-0.9498072266578674,0.8174570798873901
1772791965716305200,19.18730517578125,9.74121379852295,-1.2456488609313965,1.2049256563186646
1772791965736405500,19.207405517578124,9.131564140319824,-1.2079200744628906,1.6684508323669434
1772791965756506000,19.227506103515626,8.881237030029297,-0.9887337684631348,2.2864842414855957
1772791965776606700,19.247606689453125,8.820152282714844,-0.8503949046134949,2.9554216861724854
1772791965796707300,19.267707275390624,8.290751457214355,-0.5683273077011108,3.7159860134124756
1772791965816808000,19.287807861328126,7.50144100189209,-0.04790957272052765,4.00284481048584
1772791965836908500,19.307908447265625,7.071452617645264,0.4437623918056488,3.778268575668335
1772791965857009200,19.328009033203124,8.092525482177734,0.5779091715812683,2.9608113765716553
1772791965877109800,19.34810986328125,9.27409553527832,0.5012539029121399,2.4445858001708984
1772791965897210400,19.36821044921875,9.35434341430664,0.6443837285041809,2.6356253623962402
1772791965917311000,19.38831103515625,8.550661087036133,1.2462477684020996,2.975184440612793
1772791965937411300,19.408411376953126,8.409327507019043,1.8385298252105713,3.123703956604004
1772791965957512200,19.42851220703125,9.401055335998535,2.063105821609497,3.2374892234802246
1772791965977612500,19.448612548828127,10.167009353637695,1.3468577861785889,3.7920424938201904
1772791965997713200,19.468713134765625,10.885653495788574,0.32039526104927063,4.0070366859436035
1772791966017813800,19.488813720703124,11.537822723388672,-0.33416926860809326,3.327918529510498
1772791966037914400,19.508914306640627,11.164127349853516,-0.4629262387752533,2.348167896270752
1772791966058015000,19.529014892578125,9.5855073928833,-0.19583037495613098,2.1044278144836426
1772791966078115600,19.549115478515624,8.144027709960938,0.14372871816158295,2.27630352973938
1772791966098216200,19.56921630859375,7.397237777709961,0.4731070101261139,2.3290040493011475
1772791966118316800,19.58931689453125,6.9055657386779785,0.6881012320518494,2.300258159637451
1772791966138417400,19.60941748046875,7.03791618347168,0.7593666911125183,2.376913547515869
1772791966158518500,19.6295185546875,7.827226161956787,0.8503949046134949,2.788336992263794
1772791966178620200,19.6496201171875,8.895609855651855,0.9264513254165649,3.333308458328247
1772791966198721800,19.6697216796875,9.132163047790527,1.055807113647461,3.256653070449829
1772791966218823400,19.689823486328127,8.654265403747559,1.0743721723556519,2.6254444122314453
1772791966238925000,19.709925048828126,8.905191421508789,0.8647677302360535,2.1379644870758057
1772791966259026700,19.730026611328125,9.457947731018066,0.7018752098083496,1.9133884906768799
1772791966279128300,19.75012841796875,9.09443473815918,0.855185866355896,1.7367219924926758
1772791966299230000,19.77022998046875,8.824942588806152,1.107908844947815,1.8085863590240479
1772791966319331600,19.79033154296875,9.023168563842773,1.2181007862091064,1.8133772611618042
1772791966339433200,19.81043310546875,9.349553108215332,1.1558183431625366,1.5552644729614258
1772791966359534800,19.830534912109375,9.500468254089355,1.1510274410247803,1.2923606634140015
1772791966379636500,19.850636474609374,9.250140190124512,1.3372758626937866,1.5217278003692627
1772791966399738000,19.870738037109376,8.900400161743164,1.6187446117401123,2.282292127609253
1772791966419839700,19.89083984375,8.820152282714844,1.7858293056488037,2.5595688819885254
1772791966439941400,19.91094140625,9.36392593383789,1.704981803894043,2.3583486080169678
1772791966460043000,19.93104296875,10.370625495910645,1.470823884010315,2.0481340885162354
1772791966480144600,19.95114453125,10.734139442443848,1.394168496131897,2.0385522842407227
1772791966500246300,19.971246337890626,10.630535125732422,1.4756147861480713,2.057716131210327
1772791966520348000,19.991347900390625,10.55507755279541,1.5229254961013794,1.8427218198776245
1772791966540449800,20.01144970703125,10.422727584838867,1.5420893430709839,1.7037841081619263
1772791966560551200,20.03155126953125,10.370026588439941,1.5570610761642456,1.7223490476608276
1772791966580652800,20.05165283203125,10.5784330368042,1.5426881313323975,1.6600666046142578
1772791966600754700,20.071754638671877,10.909008979797363,1.5331063270568848,1.5025639533996582
1772791966620856000,20.09185595703125,11.06052303314209,1.4612419605255127,1.344462275505066
1772791966640958000,20.1119580078125,11.018003463745117,1.4283040761947632,1.3492532968521118
1772791966661059600,20.1320595703125,10.771867752075195,1.4283040761947632,1.344462275505066
1772791966681161500,20.152161376953124,10.59699821472168,1.3851854801177979,1.4923831224441528
1772791966701263400,20.172263427734375,10.781450271606445,1.2228918075561523,1.636111855506897
1772791966721365200,20.192365234375,10.965902328491211,1.0318523645401,1.5929932594299316
1772791966741467100,20.212467041015625,10.663473129272461,0.9504061341285706,1.5882022380828857
1772791966761569000,20.232569091796876,10.36583423614502,0.9024965167045593,1.7223490476608276
1772791966781671000,20.2526708984375,10.114908218383789,0.9168694019317627,1.8846427202224731
1772791966801772800,20.272772705078125,10.053823471069336,0.9312422871589661,2.0331623554229736
1772791966821874700,20.292874755859376,10.663473129272461,0.7833214998245239,2.233783721923828
1772791966841976300,20.312976318359375,11.310851097106934,0.6731294989585876,2.2864842414855957
1772791966862078200,20.333078125,11.36295223236084,0.6114459037780762,2.5158512592315674
1772791966882180000,20.35318017578125,10.190964698791504,0.6018639802932739,3.1710147857666016
1772791966902282000,20.373281982421876,9.27409553527832,0.716248095035553,4.022008419036865
1772791966922384000,20.3933837890625,8.517723083496094,0.9695699214935303,3.773477554321289
1772791966942485800,20.41348583984375,7.59127140045166,1.0072987079620361,3.4962010383605957
1772791966962587600,20.433587646484376,7.308006286621094,0.5539544224739075,3.6111838817596436
1772791966982689500,20.453689453125,7.166074275970459,0.09042931348085403,3.477037191390991
1772791967002791400,20.47379150390625,6.159374237060547,0.03772878646850586,2.8128907680511475
1772791967022893300,20.493893310546873,4.61848258972168,0.013774001970887184,2.349365472793579
1772791967042995200,20.5139951171875,3.4464948177337646,-0.19642923772335052,2.421229839324951
1772791967063097000,20.53409716796875,2.959613800048828,-0.5976719260215759,2.6266422271728516
1772791967103300600,20.574300537109377,1.7492982149124146,-0.9222592115402222,1.9762698411941528
1772791967123402500,20.594402587890624,0.16169479489326477,-0.7935022711753845,2.3302018642425537
1772791967143504400,20.61450439453125,-1.0863494873046875,-0.883931577205658,3.3584609031677246
1772791967163606500,20.6346064453125,-1.2139087915420532,-1.385784387588501,6.202492713928223
1772791967183708700,20.654708740234376,-0.7414005994796753,-2.40266489982605,9.190253257751465
1772791967203810800,20.674810791015624,-0.19283601641654968,-4.432833194732666,8.98424243927002
1772791967223913000,20.694912841796874,0.3407568335533142,-7.828423976898193,7.688887119293213
1772791967244014800,20.715014892578125,1.6265299320220947,-12.16963005065918,6.866639137268066
1772791967264117000,20.735116943359376,5.559306621551514,-15.245424270629883,6.159374237060547
1772791967284219100,20.75521923828125,10.692218780517578,-16.019163131713867,4.931092739105225
1772791967304321300,20.7753212890625,14.50641918182373,-15.369989395141602,4.165737152099609
1772791967324423400,20.79542333984375,16.87434959411621,-13.7746000289917,3.310551404953003
1772791967344525600,20.815525634765624,17.763072967529297,-11.773178100585938,2.105625629425049
1772791967364627700,20.835627685546875,14.080622673034668,-10.407156944274902,1.345061182975769
1772791967384729900,20.855729736328126,9.57652473449707,-9.361530303955078,0.3269828259944916
1772791967404832000,20.87583203125,8.144027709960938,-9.323202133178711,0.8432084321975708
1772791967424934000,20.895933837890624,9.86937141418457,-10.689224243164062,3.042257785797119
1772791967445036000,20.9160361328125,14.16566276550293,-11.34319019317627,3.9836807250976562
1772791967465138200,20.93613818359375,16.81745719909668,-11.204851150512695,2.649998188018799
1772791967485240300,20.956240234375,12.658307075500488,-14.170453071594238,2.888947010040283
1772791967505342500,20.976342529296875,10.290376663208008,-21.907848358154297,6.125238418579102
1772791967525444600,20.996444580078126,25.26810646057129,-31.364599227905273,8.233260154724121
1772791967545546800,21.016546630859374,46.80226135253906,-41.499271392822266,6.373769760131836
1772791967565649000,21.03664892578125,42.09933853149414,-49.972076416015625,7.588277339935303
1772791967585751000,21.0567509765625,25.15492057800293,-54.63846969604492,16.183853149414062
1772791967605853200,21.076853271484374,24.87584686279297,-59.85342788696289,24.56383514404297
1772791967625955000,21.096955078125,27.910320281982422,-65.23127746582031,27.627653121948242
1772791967646057200,21.11705712890625,20.281917572021484,-67.65789794921875,28.106149673461914
1772791967666158600,21.13715869140625,4.1555562019348145,-62.131526947021484,26.495189666748047
1772791967686260000,21.157260009765626,-11.895946502685547,-46.87712097167969,22.904966354370117
1772791967706361300,21.177361328125,-18.20084571838379,-29.3637752532959,16.9677734375
1772791967726462500,21.19746240234375,-14.703447341918945,-18.245162963867188,11.69472599029541
1772791967746563800,21.217563720703126,-10.005314826965332,-13.105663299560547,8.65965461730957
1772791967766665200,21.237665283203125,-8.067373275756836,-10.317326545715332,6.3276567459106445
1772791967786766300,21.257766357421875,-9.423812866210938,-8.11528205871582,4.266946315765381
1772791967806867700,21.27786767578125,-11.27132511138916,-6.214470386505127,2.0157952308654785
1772791967826969000,21.297968994140625,-9.754388809204102,-4.614889621734619,-0.11138974875211716
1772791967847070500,21.318070556640624,-6.866639137268066,-3.783658266067505,-1.139050006866455
1772791967867171600,21.338171630859375,-4.3094658851623535,-3.0817830562591553,-1.358835220336914
1772791967887273000,21.35827294921875,-3.482426881790161,-2.7380318641662598,-1.0150840282440186
1772791967907374300,21.378374267578124,-3.695025682449341,-2.6709585189819336,-0.9336377382278442
1772791967927475500,21.398475341796875,-5.240708351135254,-2.8955347537994385,-1.320507526397705
1772791967947576800,21.418576904296874,-7.579893112182617,-3.0386645793914795,-0.9569936990737915
1772791967967678200,21.43867822265625,-10.128083229064941,-3.09555721282959,-1.2594228982925415
1772791967987779600,21.458779541015623,-12.751132011413574,-3.1482577323913574,-2.3397836685180664
1772791968007880700,21.478880615234374,-14.944192886352539,-3.200359344482422,-2.282292127609253
1772791968027982000,21.498982177734376,-16.125762939453125,-3.55369234085083,-1.0492196083068848
1772791968048083500,21.51908349609375,-15.634090423583984,-4.375341415405273,1.15462064743042
1772791968068184600,21.5391845703125,-13.795560836791992,-5.535951137542725,2.64101505279541
1772791968088286000,21.559285888671877,-11.754014015197754,-7.231350898742676,3.3249242305755615
1772791968108387300,21.57938720703125,-9.27708911895752,-9.734026908874512,5.561702251434326
1772791968128488700,21.59948876953125,-7.949395656585693,-12.527753829956055,7.7799153327941895
1772791968148589800,21.61958984375,-8.629711151123047,-16.224576950073242,10.51435375213623
1772791968168691000,21.63969091796875,-7.16427755355835,-22.624696731567383,16.523412704467773
1772791968208893000,21.679892822265625,7.095407485961914,-38.189918518066406,35.448890686035156
1772791968228993800,21.699993896484376,15.923943519592285,-39.1690673828125,38.95766830444336
1772791968249095000,21.720094970703126,27.06950569152832,-37.23950958251953,39.33555603027344
1772791968269195800,21.74019580078125,27.395292282104492,-31.326271057128906,38.192909240722656
1772791968289297000,21.760296875,30.122543334960938,-25.165699005126953,29.506906509399414
1772791968309397800,21.780397705078126,34.86798858642578,-22.71991539001465,23.775123596191406
1772791968329499000,21.800498779296873,32.57072448730469,-19.739940643310547,17.22109603881836
1772791968349599700,21.820599853515624,27.116817474365234,-17.687015533447266,8.6177339553833
1772791968369700900,21.840700927734375,24.77703285217285,-16.320993423461914,1.6289254426956177
1772791968389802000,21.860802001953125,23.023542404174805,-12.901448249816895,-0.49346858263015747
1772791968409902800,21.88090283203125,38.13901138305664,-10.756896018981934,-5.6179962158203125
1772791968430004000,21.90100390625,51.883670806884766,-11.530635833740234,-9.01179027557373
1772791968450104800,21.921104736328125,43.404273986816406,-13.360182762145996,-4.107048034667969
1772791968470205700,21.941205810546876,18.141557693481445,-13.522476196289062,-5.842572212219238
1772791968490306800,21.961306884765627,2.525433301925659,-10.159823417663574,-8.457237243652344
1772791968510408000,21.981407958984374,-3.1368792057037354,-8.292548179626465,-6.812740802764893
1772791968530508800,22.0015087890625,1.083954095840454,-9.362728118896484,-4.546618461608887
1772791968550610000,22.02160986328125,8.787214279174805,-12.027098655700684,-1.694202184677124
1772791968570710800,22.041710693359374,14.766328811645508,-14.863944053649902,2.804506540298462
1772791968590812000,22.06181201171875,17.195941925048828,-17.753490447998047,7.460119247436523
1772791968610912800,22.081912841796875,17.6492862701416,-21.464086532592773,11.289291381835938
1772791968631014000,22.102013916015625,18.443387985229492,-23.193023681640625,11.55219554901123
1772791968651114500,22.122114501953124,21.931804656982422,-23.19781494140625,10.45267105102539
1772791968671214000,22.142214111328126,22.489351272583008,-27.467754364013672,18.024778366088867
1772791968691314000,22.16231396484375,22.508514404296875,-31.737695693969727,25.840625762939453
1772791968711413500,22.18241357421875,24.22846794128418,-32.39166259765625,24.812965393066406
1772791968731513300,22.202513427734374,21.525171279907227,-34.75120544433594,23.77991485595703
1772791968751613000,22.222613037109376,12.100759506225586,-35.9405632019043,26.56765365600586
1772791968771712800,22.242712646484375,6.178537845611572,-31.59456443786621,23.61343002319336
1772791968791812400,22.262812255859377,0.8803383708000183,-25.796310424804688,17.298948287963867
1772791968811912200,22.282912109375,-4.389714241027832,-19.67825698852539,12.121720314025879
1772791968832011800,22.30301171875,-6.847475528717041,-14.276453018188477,9.32499885559082
1772791968852111600,22.323111572265624,-7.211588382720947,-10.632331848144531,6.806153297424316
1772791968872211200,22.343211181640626,-7.6697235107421875,-8.17756462097168,3.3452858924865723
1772791968892311000,22.36331103515625,-7.060074329376221,-6.147995471954346,-0.3168020248413086
1772791968912410600,22.38341064453125,-4.786765098571777,-4.471759796142578,-2.0325634479522705
1772791968932510500,22.403510498046874,-3.5674664974212646,-3.277613401412964,-2.1188008785247803
1772791968952610000,22.423610107421876,-4.956843852996826,-3.1009469032287598,-0.5940786600112915
1772791968972710000,22.4437099609375,-8.515926361083984,-2.4511733055114746,-1.344462275505066
1772791968992809500,22.4638095703125,-12.089381217956543,-3.062619209289551,-1.8846427202224731
1772791969012909300,22.483909423828123,-13.166748046875,-4.1274094581604,-1.3923718929290771
1772791969033009000,22.5040087890625,-12.656511306762695,-4.762810230255127,-4.059737205505371
1772791969053108700,22.524108642578124,-11.715686798095703,-5.173635005950928,-7.97993803024292
1772791969073208300,22.544208251953126,-12.07021713256836,-5.2119622230529785,-9.968185424804688
1772791969093308200,22.56430810546875,-13.024815559387207,-5.292809963226318,-9.390275955200195
1772791969113407700,22.58440771484375,-11.748624801635742,-6.090504169464111,-5.48923921585083
1772791969133507300,22.60450732421875,-10.27420711517334,-6.888198375701904,-2.602088451385498
1772791969153608000,22.62460791015625,-10.052026748657227,-7.671520233154297,-1.2773889303207397
1772791969173709300,22.644709228515627,-9.754388809204102,-9.419620513916016,-1.1624059677124023
1772791969193811000,22.66481103515625,-9.286072731018066,-12.447504997253418,-0.5024515986442566
1772791969213912600,22.68491259765625,-6.913351058959961,-15.690983772277832,2.2751057147979736
1772791969234014200,22.70501416015625,-5.22154426574707,-19.21533203125,7.949395656585693
1772791969254115600,22.725115478515626,-7.4996442794799805,-21.16884422302246,13.585357666015625
1772791969274217200,22.74521728515625,-9.857993125915527,-21.321556091308594,21.181419372558594
1772791969294318800,22.76531884765625,-9.281281471252441,-19.860313415527344,35.121307373046875
1772791969314420200,22.785420166015626,1.584609031677246,-18.62843894958496,43.61567687988281
1772791969334521900,22.80552197265625,12.848149299621582,-15.241830825805664,50.15053939819336
1772791969354623500,22.82562353515625,-8.132649421691895,-5.026312828063965,50.22240447998047
1772791969374724900,22.845724853515627,-19.660890579223633,-0.8042819499969482,39.404422760009766
1772791969394826500,22.865826416015626,5.101171493530273,-5.632369041442871,29.232025146484375
1772791969414928100,22.88592822265625,15.064565658569336,-7.007972240447998,27.983980178833008
1772791969435029800,22.90602978515625,1.4762136936187744,-3.9040310382843018,31.999401092529297
1772791969455131100,22.926131103515626,-4.75801944732666,0.8102706074714661,25.77594757080078
1772791969475232800,22.946232666015625,-1.5438859462738037,2.2236030101776123,16.123966217041016
1772791969495334400,22.96633447265625,1.36721932888031,0.9390276074409485,11.697720527648926
1772791969515436000,22.98643603515625,2.3505632877349854,-0.2359546422958374,11.649810791015625
1772791969535537400,23.006537353515625,1.2588239908218384,-0.8042819499969482,16.44915199279785
1772791969555639000,23.02663916015625,7.13852596282959,-1.5774226188659668,25.392671585083008
1772791969575740700,23.04674072265625,20.292098999023438,-1.6636598110198975,29.723695755004883
1772791969595842000,23.066842041015626,19.810009002685547,-1.4822022914886475,30.627391815185547
1772791969615943700,23.086943603515625,6.873825550079346,-0.11138974875211716,30.75135612487793
1772791969636045300,23.10704541015625,0.459931880235672,0.7581689357757568,25.392671585083008
1772791969656147000,23.12714697265625,1.7834337949752808,-0.2832653522491455,18.876970291137695
1772791969676248800,23.147248779296874,3.0123143196105957,-3.1440656185150146,17.663061141967773
1772791969696350700,23.167350830078124,1.6367107629776,-4.959239482879639,19.55129623413086
1772791969716452400,23.187452392578123,-2.3948795795440674,-4.701126575469971,22.189916610717773
1772791969736554200,23.20755419921875,-6.218662261962891,-4.251974582672119,22.34741973876953
1772791969756656000,23.22765625,-4.001646995544434,-4.729872226715088,20.96163558959961
1772791969776758000,23.247758056640624,-1.7948123216629028,-6.39652681350708,23.505033493041992
1772791969796860000,23.26785986328125,-8.13744068145752,-8.708163261413574,27.55878257751465
1772791969816961500,23.28796142578125,-13.68177604675293,-13.737470626831055,24.112287521362305
1772791969837063400,23.3080634765625,-6.898978233337402,-20.658008575439453,9.68971061706543
1772791969857165300,23.328165283203123,9.402253150939941,-24.966276168823242,0.9653778672218323
1772791969877267200,23.34826708984375,24.59317970275879,-26.207733154296875,7.151102542877197
1772791969897369000,23.368369140625,30.72800064086914,-27.893550872802734,16.87015724182129
1772791969917470700,23.388470703125,22.348018646240234,-30.802261352539062,21.57847023010254
1772791969937572600,23.408572509765627,12.89546012878418,-30.978927612304688,20.555601119995117
1772791969957674500,23.428674560546874,11.713890075683594,-28.652917861938477,21.564098358154297
1772791969977776400,23.4487763671875,9.393270492553711,-27.401878356933594,26.521541595458984
1772791969997878300,23.468878173828124,6.221656799316406,-26.656885147094727,29.169742584228516
1772791970017980200,23.488980224609374,4.2980875968933105,-25.343564987182617,25.598682403564453
1772791970038081800,23.509081787109373,-2.1301794052124023,-24.287757873535156,19.106935501098633
1772791970058183700,23.52918359375,-8.803982734680176,-22.568401336669922,14.919639587402344
1772791970078285600,23.54928564453125,-13.15716552734375,-18.853015899658203,9.474716186523438
1772791970098387500,23.569387451171874,-12.386420249938965,-14.697458267211914,2.963805913925171
1772791970118489000,23.589489013671876,-11.062918663024902,-12.213946342468262,-0.7839203476905823
1772791970138591000,23.609591064453124,-13.42126750946045,-10.141258239746094,-5.286821365356445
1772791970158692600,23.629692626953126,-13.657820701599121,-8.15420913696289,-9.059101104736328
1772791970178794000,23.6497939453125,-15.000486373901367,-7.667327880859375,-10.264026641845703
1772791970198895400,23.669895263671876,-19.62735366821289,-6.55402946472168,-13.548227310180664
1772791970218996700,23.689996826171875,-20.653217315673828,-5.632369041442871,-17.51573944091797
1772791970239098400,23.710098388671874,-18.984766006469727,-5.966537952423096,-20.049556732177734
1772791970259199700,23.73019970703125,-18.829059600830078,-7.494853496551514,-20.46996307373047
1772791970279301000,23.750301025390623,-20.596324920654297,-10.255642890930176,-15.608339309692383
1772791970299402500,23.770402587890626,-21.612606048583984,-12.753527641296387,-9.943631172180176
1772791970319504000,23.79050390625,-19.443500518798828,-15.843694686889648,-6.057566165924072
1772791970339605200,23.810605224609375,-16.498859405517578,-21.092187881469727,-1.3294905424118042
1772791970359707000,23.830706787109374,-13.63925552368164,-26.580230712890625,6.113860130310059
1772791970379808300,23.850808349609373,-9.177078247070312,-29.341018676757812,12.275629997253418
1772791970399909600,23.87090966796875,-4.725081443786621,-30.582475662231445,13.891979217529297
1772791970420011000,23.891010986328126,-2.8296589851379395,-31.614328384399414,16.568925857543945
1772791970440112400,23.9111123046875,1.140846610069275,-29.899765014648438,22.97922706604004
1772791970460213800,23.9312138671875,1.8924280405044556,-25.36751937866211,27.58273696899414
1772791970480315100,23.951315185546875,-4.653815746307373,-22.802560806274414,28.12291717529297
1772791970500416800,23.971416748046874,-6.436051845550537,-24.827938079833984,23.56731605529785
1772791970520518100,23.99151806640625,-9.394468307495117,-30.826215744018555,27.51566505432129
1772791970540619500,24.01161962890625,-12.282217025756836,-37.684471130371094,35.72856140136719
1772791970560721000,24.031720947265626,-9.332784652709961,-38.55402755737305,43.01441192626953
1772791970580822300,24.051822265625,-7.518209457397461,-38.38694381713867,40.5189208984375
1772791970600923600,24.071923583984375,-10.953924179077148,-40.08234405517578,43.415653228759766
1772791970621025000,24.09202490234375,-9.342366218566895,-31.99221420288086,40.777034759521484
1772791970641126700,24.112126708984373,-4.8478498458862305,-24.38836669921875,33.73552322387695
1772791970661227500,24.1322275390625,2.029569149017334,-19.727365493774414,22.70254898071289
1772791970681328000,24.152328125,8.717146873474121,-14.826814651489258,13.472171783447266
1772791970701429000,24.172428955078125,10.329303741455078,-11.48392391204834,10.35505485534668
1772791970721529600,24.192529541015624,8.741101264953613,-10.16102123260498,9.795710563659668
1772791970741630500,24.21263037109375,7.115170001983643,-9.157914161682129,9.413631439208984
1772791970761731000,24.23273095703125,5.0352959632873535,-8.245237350463867,9.006999015808105
1772791970781832000,24.25283203125,3.2632405757904053,-6.693565845489502,6.975034713745117
1772791970801932500,24.2729326171875,2.502077341079712,-5.169442653656006,4.747239589691162
1772791970822033400,24.293033447265625,3.745330810546875,-5.461091995239258,4.083093166351318
1772791970842134000,24.313134033203124,6.637871265411377,-6.50252628326416,4.427443027496338
1772791970862235000,24.33323486328125,8.839914321899414,-7.22835636138916,4.5130815505981445
1772791970882335500,24.35333544921875,9.086050033569336,-7.190028667449951,5.153872013092041
1772791970902436400,24.373436279296875,7.5547404289245605,-6.917542934417725,5.7611260414123535
1772791970922537000,24.393536865234374,5.120335578918457,-6.736085891723633,5.7994537353515625
1772791970942637800,24.413637939453125,3.2913875579833984,-7.022944450378418,5.670097827911377
1772791970962738400,24.433738525390623,2.866190195083618,-7.806265830993652,5.8329901695251465
1772791970982839300,24.45383935546875,2.832653284072876,-8.556050300598145,6.616910457611084
1772791971002940000,24.47393994140625,3.310551404953003,-8.96208381652832,8.285361289978027
1772791971023040800,24.494040771484375,3.844144105911255,-10.376015663146973,9.920275688171387
1772791971043141400,24.514141357421874,4.7328667640686035,-12.095370292663574,10.88086223602295
1772791971063242200,24.5342421875,4.590934753417969,-13.71411418914795,12.568476676940918
1772791971083342800,24.5543427734375,3.1871840953826904,-14.722012519836426,15.55623722076416
1772791971103443500,24.574443359375,1.5283153057098389,-14.741175651550293,17.024066925048828
1772791971123544300,24.59454443359375,1.410338044166565,-15.399932861328125,18.98356819152832
1772791971143645000,24.61464501953125,1.694202184677124,-17.34386444091797,21.4694766998291
1772791971163746800,24.634746826171874,1.2636148929595947,-22.53067398071289,26.435302734375
1772791971183848400,24.654848388671876,-2.4278175830841064,-32.918067932128906,31.822734832763672
1772791971203950300,24.674950439453124,-6.388741493225098,-34.0882568359375,25.0537109375
1772791971244154000,24.715154052734373,-6.076730251312256,-22.42527198791504,28.1037540435791
1772791971264256000,24.735256103515624,5.6401543617248535,-21.680278778076172,31.41670036315918
1772791971284357600,24.755357666015627,20.8640193939209,-26.461055755615234,29.618894577026367
1772791971304459500,24.77545947265625,31.068758010864258,-36.21843719482422,28.44271469116211
1772791971324561400,24.7955615234375,23.454130172729492,-45.83269119262695,31.03402328491211
1772791971344663000,24.8156630859375,6.500131130218506,-47.384361267089844,29.451210021972656
1772791971364765000,24.835764892578126,-6.639068603515625,-38.66901397705078,23.237937927246094
1772791971384866800,24.85586669921875,-12.447504997253418,-28.204364776611328,18.180484771728516
1772791971404968700,24.87596875,-10.543100357055664,-19.283002853393555,9.556761741638184
1772791971445172200,24.916172119140626,-3.6992177963256836,-13.885990142822266,-0.4629262387752533
1772791971465274000,24.936274169921877,-3.552494764328003,-13.489538192749023,-0.7593666911125183
1772791971485376000,24.9563759765625,-8.193734169006348,-12.071414947509766,-0.9887337684631348
1772791971505477600,24.9764775390625,-14.078227043151855,-10.777257919311523,-1.6912078857421875
1772791971525579500,24.99657958984375,-16.413219451904297,-9.392072677612305,-2.6523935794830322
1772791971545681400,25.016681396484376,-16.890520095825195,-7.777520179748535,-2.948235273361206
1772791971565783300,25.036783203125,-20.784969329833984,-6.187520980834961,1.2582250833511353
1772791971585885000,25.056885009765626,-25.530410766601562,-3.1829922199249268,5.813826560974121
1772791971605986800,25.07698681640625,-22.377962112426758,-0.3509376049041748,7.616424083709717
1772791971626088700,25.097088623046876,-17.519332885742188,0.9528015851974487,6.488153457641602
1772791971646190600,25.117190673828127,-12.490025520324707,1.9654901027679443,3.7632968425750732
1772791971666291500,25.13729150390625,-7.446943759918213,3.2213196754455566,3.6105849742889404
1772791971686392600,25.157392578125,-6.5917582511901855,4.616086959838867,5.240708351135254
1772791971706493700,25.17749365234375,-8.231463432312012,5.824007034301758,5.5084028244018555
1772791971726594600,25.197594482421874,-6.9882097244262695,7.3289666175842285,3.6010031700134277
1772791971746695700,25.21769580078125,-5.745555400848389,9.563947677612305,0.8665643334388733
1772791971766796500,25.237796630859375,-7.442751884460449,9.946625709533691,-0.11917505413293839
1772791971786897700,25.257897705078125,-7.078639030456543,8.141034126281738,1.4774113893508911
1772791971806998800,25.277998779296876,-5.33892297744751,7.715836524963379,3.2800090312957764
1772791971827099600,25.298099609375,-5.556911468505859,8.900400161743164,0.9084852337837219
1772791971847200800,25.31820068359375,-4.081895351409912,8.948309898376465,-1.036643385887146
1772791971867301600,25.338301513671876,-2.739828586578369,8.30811882019043,-1.5055582523345947
1772791971887402800,25.35840283203125,-3.8692967891693115,7.200209617614746,-2.222405195236206
1772791971907503900,25.37850390625,-6.511509418487549,6.43126106262207,-2.155930757522583
1772791971927604700,25.398604736328124,-9.683123588562012,5.796459197998047,-2.045738697052002
1772791971947705900,25.418705810546875,-11.299471855163574,4.807725429534912,-3.073399066925049
1772791971967807000,25.438806884765626,-11.82348346710205,2.810495138168335,-4.511284828186035
1772791971987907800,25.458907958984376,-10.363438606262207,0.7905079126358032,-5.682673931121826
1772791972008009000,25.479009033203123,-9.64000415802002,-0.671332836151123,-6.949283123016357
1772791972028109800,25.49910986328125,-9.498072624206543,-1.7744507789611816,-6.906164646148682
1772791972048211000,25.5192109375,-10.187970161437988,-2.591308832168579,-5.577272891998291
1772791972068312000,25.53931201171875,-10.868885040283203,-4.12920618057251,-2.579930305480957
1772791972088413000,25.559412841796874,-8.028446197509766,-5.456900119781494,0.16888123750686646
1772791972108514000,25.57951416015625,-7.597858905792236,-6.288131237030029,-0.2802709937095642
1772791972128615200,25.599615234375,-7.465508937835693,-9.569337844848633,-0.5671295523643494
1772791972148716000,25.619716064453126,-3.2309017181396484,-13.762622833251953,1.6319197416305542
1772791972168817700,25.639817626953125,1.5899988412857056,-15.796384811401367,4.98678731918335
1772791972188919000,25.6599189453125,3.1446645259857178,-16.484485626220703,8.50035572052002
1772791972209020400,25.6800205078125,0.9899315237998962,-18.719467163085938,10.561065673828125
1772791972229121800,25.700121826171873,-0.8533892035484314,-22.51150894165039,10.995845794677734
1772791972249223200,25.72022314453125,1.5235244035720825,-29.584758758544922,14.791481018066406
1772791972269324500,25.740324462890626,5.517385959625244,-37.4940299987793,24.968671798706055
1772791972289426200,25.76042626953125,2.3793091773986816,-45.59434127807617,34.677547454833984
1772791972309527600,25.780527587890624,-1.54867684841156,-51.244075775146484,37.512596130371094
1772791972329629000,25.80062890625,-4.422053337097168,-54.11445999145508,35.46625900268555
1772791972349730300,25.820730224609374,-6.761837005615234,-57.59209442138672,33.1582145690918
1772791972369831700,25.840831787109376,-1.127671480178833,-55.0989990234375,29.185911178588867
1772791972389933000,25.86093310546875,4.950855255126953,-47.003482818603516,25.380693435668945
1772791972410034700,25.88103466796875,6.850469589233398,-39.204402923583984,22.1444034576416
1772791972430136000,25.901135986328125,7.74877405166626,-34.40446090698242,18.420631408691406
1772791972450237400,25.921237548828124,9.989145278930664,-29.733278274536133,15.011865615844727
1772791972470338800,25.9413388671875,11.704907417297363,-24.006887435913086,12.483437538146973
1772791972490440200,25.961440185546873,10.305947303771973,-19.99026870727539,12.26844310760498
1772791972510541800,25.981541748046876,7.039712429046631,-17.955907821655273,12.033686637878418
1772791972530643200,26.001643310546875,4.870606899261475,-16.551559448242188,9.930456161499023
1772791972550744600,26.02174462890625,2.9560205936431885,-14.421380043029785,7.048096656799316
