time,seconds_elapsed,z,y,x
1772791596174277000,0.166277099609375,0.9006803035736084,-0.6255760192871094,0.5721796751022339
1772791596194377700,0.186377685546875,0.9534108638763428,-0.36245590448379517,-0.03368895873427391
1772791596214478000,0.20647802734375,1.1571425199508667,-0.7555381655693054,-0.7476818561553955
1772791596234578700,0.22657861328125,0.9986845254898071,-0.5371591448783875,-1.3865736722946167
1772791596254679300,0.24667919921875,0.9507476687431335,0.6601970791816711,-1.4587452411651611
1772791596274780000,0.26677978515625,1.1406309604644775,1.9848523139953613,-0.9096018671989441
1772791596294880500,0.286880615234375,1.555018424987793,2.735862970352173,-0.5455480813980103
1772791596314981000,0.306981201171875,1.8210680484771729,3.438138008117676,-1.0486187934875488
1772791596335081700,0.327081787109375,1.9749985933303833,4.090079307556152,-1.7181369066238403
1772791596355182000,0.34718212890625,1.927061676979065,4.060518264770508,-1.9652780294418335
1772791596375282700,0.36728271484375,1.7917732000350952,3.307643175125122,-1.630785346031189
1772791596395383300,0.38738330078125,1.4980268478393555,1.4223930835723877,-1.1311767101287842
1772791596415484000,0.40748388671875,1.2056119441986084,-0.3661843240261078,-0.6147902011871338
1772791596435584500,0.42758447265625,0.7102644443511963,-1.2186614274978638,-0.09121318906545639
1772791596455685000,0.44768505859375,0.32517167925834656,-1.1960246562957764,-0.07337002456188202
1772791596475785700,0.46778564453125,0.2862895727157593,-0.9081371426582336,-0.8536755442619324
1772791596495886000,0.487885986328125,0.4809664785861969,-0.9749824404716492,-1.5839136838912964
1772791596515986700,0.507986572265625,0.5371591448783875,-1.55448579788208,-1.61800217628479
1772791596536087300,0.52808740234375,0.4655201733112335,-2.024000644683838,-1.206810474395752
1772791596556188000,0.54818798828125,0.3243727385997772,-2.2482385635375977,-0.7303712964057922
1772791596576288500,0.56828857421875,0.42717066407203674,-1.842373251914978,-0.4965459704399109
1772791596596389000,0.58838916015625,0.8173234462738037,-2.0500996112823486,-0.6515418291091919
1772791596616489700,0.60848974609375,0.6213149428367615,-3.4455947875976562,-1.3634041547775269
1772791596636590000,0.628590087890625,0.09347687661647797,-4.114047527313232,-1.6246600151062012
1772791596656691200,0.648691162109375,0.23995061218738556,-4.036816120147705,-1.5940337181091309
1772791596676792600,0.66879248046875,1.074318289756775,-3.904989719390869,-1.3239893913269043
1772791596696893700,0.688893798828125,1.6652731895446777,-3.5870087146759033,-1.2539483308792114
1772791596716994800,0.708994873046875,1.5883078575134277,-3.0429253578186035,-1.5863105058670044
1772791596737096000,0.729095947265625,1.321459412574768,-2.9577040672302246,-1.742371678352356
1772791596757197000,0.749197021484375,0.8064044713973999,-2.7558367252349854,-1.2723240852355957
1772791596777298400,0.76929833984375,0.31611695885658264,-2.637326240539551,-0.7988144755363464
1772791596797399600,0.789399658203125,0.18269269168376923,-3.0309410095214844,-0.8712524175643921
1772791596817500700,0.809500732421875,0.3579285442829132,-3.1270811557769775,-1.1008167266845703
1772791596837601800,0.829601806640625,0.8266444802284241,-2.49537992477417,-1.1412967443466187
1772791596857703000,0.849702880859375,1.5113426446914673,-1.5238595008850098,-1.1458240747451782
1772791596877804300,0.86980419921875,1.8937722444534302,-0.8860329389572144,-1.2539483308792114
1772791596897905400,0.889905517578125,1.8114806413650513,-0.258060097694397,-1.226784110069275
1772791596918006500,0.910006591796875,1.0817750692367554,0.3808317184448242,-1.2875040769577026
1772791596938107600,0.930107666015625,0.1062600389122963,0.7829686999320984,-1.6222631931304932
1772791596958208800,0.950208740234375,-0.010652635246515274,0.5954822897911072,-1.5868431329727173
1772791596978310000,0.970309814453125,0.738760232925415,-0.14434321224689484,-1.198820948600769
1772791596998411300,0.990411376953125,1.4612752199172974,-1.5877752304077148,-1.1189261674880981
1772791597018512400,1.010512451171875,1.329448938369751,-2.3568954467773438,-0.901612401008606
1772791597038613500,1.030613525390625,0.40373486280441284,-0.6596644520759583,0.389220654964447
1772791597058714600,1.050714599609375,-1.1920298337936401,1.9494322538375854,2.288052797317505
1772791597078816000,1.07081591796875,-1.8117469549179077,2.5806009769439697,4.327766418457031
1772791597098917000,1.090917236328125,-2.7441189289093018,2.6671535968780518,6.126463890075684
1772791597119018200,1.111018310546875,-4.242145538330078,3.0727527141571045,6.8590989112854
1772791597139119400,1.131119384765625,-5.032038688659668,4.032288551330566,6.503833293914795
1772791597159221200,1.15122119140625,-4.550006866455078,5.203812122344971,5.480647563934326
1772791597179323000,1.171322998046875,-3.546262264251709,6.407027244567871,3.90938401222229
1772791597199424800,1.1914248046875,-2.4564976692199707,7.86510705947876,2.039313793182373
1772791597219526700,1.211526611328125,-1.4341109991073608,8.636624336242676,1.0238513946533203
1772791597239628300,1.231628173828125,-0.5949496626853943,8.4347562789917,1.3887041807174683
1772791597259730200,1.251730224609375,-0.5890907049179077,6.913293838500977,2.5887234210968018
1772791597279831800,1.271831787109375,-0.8934897780418396,4.581698417663574,3.7543880939483643
1772791597299933700,1.29193359375,-0.5712475776672363,2.88926100730896,4.255062103271484
1772791597320035600,1.31203564453125,0.2628537714481354,2.5094945430755615,3.8047218322753906
1772791597340137200,1.33213720703125,0.9278445243835449,2.5877914428710938,3.0403952598571777
1772791597360239000,1.352239013671875,1.0635324716567993,1.4743247032165527,2.9394614696502686
1772791597380340700,1.3723408203125,0.2852243185043335,-0.8855003118515015,3.612175464630127
1772791597400442600,1.392442626953125,-0.5739107131958008,-2.7923219203948975,4.200201034545898
1772791597420544500,1.41254443359375,-1.0969550609588623,-4.656533241271973,4.623643398284912
1772791597440646100,1.432646240234375,-1.5009562969207764,-6.427000999450684,5.716603755950928
1772791597460748000,1.452748046875,-0.9512803554534912,-7.6997246742248535,6.582662582397461
1772791597480849700,1.472849609375,1.1033467054367065,-7.866971015930176,5.480114936828613
1772791597500951600,1.49295166015625,3.7582497596740723,-6.781467437744141,3.472093343734741
1772791597521053400,1.513053466796875,6.174799919128418,-4.440817356109619,2.0310580730438232
1772791597541155000,1.533155029296875,8.06031608581543,-2.4588944911956787,0.7237133979797363
1772791597561257000,1.553257080078125,9.179908752441406,-1.7699353694915771,-0.05259738489985466
1772791597581358800,1.57335888671875,9.715203285217285,-2.170740842819214,0.43795645236968994
1772791597601460500,1.59346044921875,9.76553726196289,-3.02827787399292,1.9543590545654297
1772791597621562400,1.613562255859375,9.523988723754883,-3.8669066429138184,3.864110231399536
1772791597641664000,1.6336640625,8.951409339904785,-4.245873928070068,4.937097072601318
1772791597661764600,1.6537646484375,8.62969970703125,-3.808849811553955,4.337619781494141
1772791597681865500,1.673865478515625,9.266993522644043,-2.3023006916046143,3.1250836849212646
1772791597701966000,1.693966064453125,10.583393096923828,-0.6444844603538513,3.4316132068634033
1772791597722067000,1.71406689453125,11.111763954162598,-0.6098633408546448,5.628719329833984
1772791597742167600,1.73416748046875,10.018270492553711,-1.6948342323303223,7.525953769683838
1772791597762268200,1.75426806640625,8.854470252990723,-1.1073414087295532,6.499838352203369
1772791597782369000,1.774369140625,8.182822227478027,1.9646122455596924,1.13969886302948
1772791597802469600,1.7944697265625,7.898662567138672,4.886097431182861,-3.0862016677856445
1772791597822570500,1.814570556640625,7.4318108558654785,5.263467311859131,-3.632415533065796
1772791597842671000,1.834671142578125,6.541250705718994,3.697796106338501,-2.619349956512451
1772791597862772000,1.85477197265625,5.608612537384033,1.7068184614181519,-2.0734024047851562
1772791597882872600,1.87487255859375,5.0293755531311035,0.7518097162246704,-2.2531654834747314
1772791597902973400,1.894973388671875,4.856003761291504,1.225053071975708,-2.4225423336029053
1772791597923074000,1.915073974609375,5.373189449310303,2.006157636642456,-1.2899010181427002
1772791597943175000,1.9351748046875,6.378531455993652,2.08658504486084,0.691755473613739
1772791597963275500,1.955275634765625,7.1894636154174805,2.312953472137451,1.8872474431991577
1772791597983376100,1.975376220703125,7.547658443450928,2.8280084133148193,2.129861354827881
1772791598003477000,1.99547705078125,7.211301326751709,3.5393381118774414,1.8547569513320923
1772791598023577600,2.01557763671875,5.85921573638916,4.298871040344238,0.9468861222267151
1772791598043678500,2.035678466796875,4.2674455642700195,4.8163228034973145,-0.2749711573123932
1772791598063779000,2.055779052734375,3.252782106399536,4.786495208740234,-0.9612671732902527
1772791598083880000,2.0758798828125,2.6807355880737305,4.189947605133057,-1.1002840995788574
1772791598103980500,2.09598046875,2.357694387435913,3.3268179893493652,-0.9327713847160339
1772791598124081400,2.116081298828125,2.2964417934417725,2.2825934886932373,-0.7069355249404907
1772791598144182000,2.13618212890625,2.401902914047241,1.2804467678070068,-0.5697828531265259
1772791598164282000,2.1562822265625,2.5630240440368652,0.329166442155838,-0.36072486639022827
1772791598184382500,2.176382568359375,2.525739908218384,-0.48549383878707886,-0.05020054429769516
1772791598204482800,2.19648291015625,2.194709062576294,-0.7952192425727844,0.40972697734832764
1772791598224583000,2.2165830078125,1.5134731531143188,-0.5352949500083923,0.9793766736984253
1772791598244683300,2.236683349609375,0.43276330828666687,-0.08681897819042206,1.628122091293335
1772791598264783400,2.256783447265625,-1.0998846292495728,-0.13182635605335236,2.221207618713379
1772791598284883700,2.2768837890625,-2.5845956802368164,-1.0599372386932373,2.590587615966797
1772791598304984000,2.296984130859375,-3.5947318077087402,-2.6884589195251465,2.637192964553833
1772791598325084200,2.317084228515625,-5.338834285736084,-2.830671548843384,1.2864388227462769
1772791598345184500,2.3371845703125,-7.903722763061523,-0.673512876033783,0.3836280405521393
1772791598365284900,2.357284912109375,-9.150613784790039,1.867406964302063,1.1511503458023071
1772791598385385000,2.377385009765625,-9.950892448425293,3.70312237739563,2.366349697113037
1772791598405485300,2.3974853515625,-9.967670440673828,3.709247589111328,3.2933952808380127
1772791598425585700,2.417585693359375,-9.375384330749512,2.932936906814575,4.475039005279541
1772791598445685800,2.437685791015625,-10.194571495056152,1.931589126586914,7.177346229553223
1772791598465786000,2.4577861328125,-12.012177467346191,-3.912180185317993,5.865207672119141
1772791598485886500,2.477886474609375,-11.828153610229492,-8.011048316955566,2.9035089015960693
1772791598505986600,2.497986572265625,-10.370074272155762,-8.553000450134277,0.49761122465133667
1772791598526087000,2.5180869140625,-8.923978805541992,-5.510075569152832,-1.5207968950271606
1772791598546187000,2.53818701171875,-7.976959705352783,-1.4503562450408936,-2.3631539344787598
1772791598566287400,2.558287353515625,-7.444061279296875,1.2556793689727783,-2.557830810546875
1772791598606487800,2.59848779296875,-6.636591911315918,3.370227575302124,-1.5474283695220947
1772791598626588200,2.618588134765625,-5.4930315017700195,3.228813648223877,-1.1130672693252563
1772791598646688800,2.638688720703125,-4.10073184967041,2.8722167015075684,-1.1114693880081177
1772791598666790000,2.658789794921875,-2.907104253768921,2.3315954208374023,-1.0020134449005127
1772791598686891000,2.67889111328125,-2.116412401199341,1.6096131801605225,-0.3668501377105713
1772791598706991900,2.698991943359375,-1.5973626375198364,1.113466739654541,0.315717488527298
1772791598727093000,2.719093017578125,-1.1049445867538452,0.9342361092567444,0.7322354912757874
1772791598747194000,2.739194091796875,-0.5776391625404358,1.0697908401489258,0.9769797921180725
1772791598767295200,2.759295166015625,0.08335687220096588,1.2932299375534058,0.7668565511703491
1772791598787396400,2.779396240234375,0.8777771592140198,1.2756531238555908,0.10825740545988083
1772791598807497200,2.799497314453125,1.5014889240264893,0.9374319314956665,-0.7511439323425293
1772791598827598300,2.819598388671875,1.7494289875030518,0.5099949240684509,-1.1748524904251099
1772791598847699500,2.839699462890625,1.9078869819641113,-0.08202528953552246,-1.0704567432403564
1772791598867800600,2.859800537109375,2.0977702140808105,-0.724112868309021,-0.5492765307426453
1772791598887901700,2.879901611328125,2.3369219303131104,-1.271924614906311,0.26804694533348083
1772791598908002800,2.9000029296875,2.6783387660980225,-1.6703331470489502,1.3687304258346558
1772791598928103700,2.920103759765625,3.1598379611968994,-1.8239974975585938,2.2872538566589355
1772791598948204800,2.940204833984375,3.5542516708374023,-1.43118155002594,2.230794906616211
1772791598968306000,2.960305908203125,4.67624044418335,-1.0130655765533447,0.5708481073379517
1772791598988407000,2.980406982421875,5.909549236297607,-0.4775043725967407,-0.2366216629743576
1772791599008508200,3.000508056640625,6.631531715393066,-0.5134570002555847,0.21345217525959015
1772791599028609300,3.020609375,7.658445835113525,-1.3163994550704956,1.0856367349624634
1772791599048710100,3.040710205078125,8.334089279174805,-2.6450493335723877,1.8566211462020874
1772791599068811300,3.060811279296875,8.607595443725586,-3.3257527351379395,1.7652747631072998
1772791599088912400,3.080912353515625,8.862992286682129,-2.864227294921875,0.7122617959976196
1772791599109013500,3.101013427734375,9.033700942993164,-1.7084163427352905,-0.6403565406799316
1772791599129114600,3.121114501953125,9.187631607055664,-0.6498107314109802,-0.9362334609031677
1772791599149216300,3.14121630859375,9.224649429321289,0.7840339541435242,0.1279647797346115
1772791599169318100,3.161318115234375,8.808664321899414,2.5507736206054688,1.0656629800796509
1772791599189420300,3.181420166015625,7.698659420013428,4.157989978790283,0.9636639952659607
1772791599209522400,3.2015224609375,6.192377090454102,5.309805870056152,0.18042901158332825
1772791599229624600,3.22162451171875,5.045886993408203,5.984650611877441,-0.6837660074234009
1772791599249726500,3.2417265625,4.385689735412598,5.968937873840332,-1.3650020360946655
1772791599269828600,3.26182861328125,3.9390780925750732,5.041892051696777,-1.8968348503112793
1772791599289930800,3.2819306640625,3.762244462966919,3.4040496349334717,-2.2190771102905273
1772791599310032600,3.30203271484375,3.665571689605713,1.5291857719421387,-2.312021255493164
1772791599330134800,3.322134765625,3.2373359203338623,-0.2426137626171112,-2.2318601608276367
1772791599350237000,3.34223681640625,2.587258815765381,-1.3193289041519165,-1.9239990711212158
1772791599370339000,3.362339111328125,2.1049606800079346,-1.6450332403182983,-1.3610073328018188
1772791599390441000,3.38244091796875,1.837579607963562,-1.5028204917907715,-0.8531429171562195
1772791599410543000,3.402543212890625,1.7275911569595337,-0.9747161269187927,-0.4515385627746582
1772791599430645200,3.422645263671875,1.766206979751587,-0.20692743360996246,-0.17323848605155945
1772791599450747400,3.442747314453125,1.9062891006469727,0.543018102645874,-0.04274369776248932
1772791599470849300,3.462849365234375,1.9105501174926758,0.9094687104225159,-0.004926843568682671
1772791599490951400,3.482951416015625,1.77046799659729,0.8713855743408203,0.11358372122049332
1772791599511053600,3.503053466796875,1.3781846761703491,0.49135279655456543,0.3428817093372345
1772791599531155500,3.523155517578125,0.7858981490135193,-0.059654757380485535,0.7165228724479675
1772791599551257600,3.543257568359375,0.005858949385583401,-0.6751107573509216,1.1367692947387695
1772791599571359700,3.56335986328125,-1.0269140005111694,-1.7084163427352905,1.1972230672836304
1772791599591462000,3.5834619140625,-2.002695322036743,-3.6565170288085938,0.6589986681938171
1772791599611563800,3.603563720703125,-3.153712749481201,-6.1654791831970215,-0.4318312108516693
1772791599631666000,3.623666015625,-5.132439613342285,-7.014493942260742,-0.8643282055854797
1772791599651767300,3.643767333984375,-7.578284740447998,-6.89811372756958,0.0073236869648098946
1772791599671868200,3.6638681640625,-8.91598892211914,-6.085850715637207,0.8360987305641174
1772791599691969000,3.683968994140625,-9.761542320251465,-4.1952738761901855,0.47817015647888184
1772791599712070100,3.704070068359375,-10.35169792175293,-1.9499648809432983,-1.2416977882385254
1772791599732171000,3.7241708984375,-10.484589576721191,0.09374319016933441,-2.632399320602417
1772791599752272000,3.74427197265625,-10.28804874420166,1.7451679706573486,-2.616952896118164
1772791599772373000,3.764373046875,-9.54582691192627,1.8397101163864136,-2.127464532852173
1772791599792473900,3.784473876953125,-9.013993263244629,1.1488866806030273,-2.5021708011627197
1772791599812574700,3.80457470703125,-9.018521308898926,0.5145222544670105,-2.3921823501586914
1772791599832675800,3.82467578125,-9.51093864440918,0.21784639358520508,-1.6664716005325317
1772791599852776700,3.844776611328125,-9.860345840454102,0.10492845624685287,-1.213468313217163
1772791599872877800,3.8648779296875,-9.593230247497559,0.1555284708738327,-1.1189261674880981
1772791599892978700,3.884978759765625,-8.857399940490723,0.3289000988006592,-1.12478506565094
1772791599913079600,3.90507958984375,-7.94580078125,0.7933549880981445,-1.0728535652160645
1772791599933180700,3.9251806640625,-7.083203315734863,1.6231952905654907,-1.3447620868682861
1772791599953281500,3.945281494140625,-6.128993511199951,2.311089277267456,-1.7492958307266235
1772791599973382400,3.96538232421875,-4.953208923339844,2.829606294631958,-1.9628812074661255
1772791599993483500,3.9854833984375,-3.6642401218414307,3.1419947147369385,-1.7112126350402832
1772791600013584400,4.00558447265625,-2.6610283851623535,3.2828757762908936,-1.3924325704574585
1772791600033685200,4.025685302734375,-2.1800618171691895,3.1771485805511475,-0.9562071561813354
1772791600053786400,4.045786376953125,-1.8476996421813965,2.297240734100342,-0.09361003339290619
1772791600073887200,4.06588720703125,-1.376320481300354,0.973118245601654,0.7178544402122498
1772791600093988400,4.08598828125,-1.011467695236206,0.16298532485961914,1.0835061073303223
1772791600114089200,4.106089111328125,-0.8530097603797913,-0.07776423543691635,1.1535472869873047
1772791600134190000,4.126190185546875,-0.5997433662414551,0.03195790573954582,0.9796429872512817
1772791600154291500,4.14629150390625,-0.12836425006389618,0.2426137626171112,0.7069355249404907
1772791600174393000,4.16639306640625,0.46445488929748535,0.3206443190574646,0.7074681520462036
1772791600194494500,4.186494384765625,1.041295051574707,0.18535585701465607,1.0462219715118408
1772791600214596000,4.20659619140625,1.528120517730713,0.0330231711268425,1.4808495044708252
1772791600234697700,4.22669775390625,2.1233365535736084,0.040746331214904785,1.8030916452407837
1772791600254799000,4.246799072265625,3.0996506214141846,0.19414427876472473,1.590571641921997
1772791600274900700,4.266900634765625,4.496477127075195,0.3829622268676758,0.39481329917907715
1772791600295002000,4.287002197265625,5.943637847900391,0.5757749080657959,-1.6717979907989502
1772791600315103700,4.307103759765625,7.591866970062256,-0.10120003670454025,-3.60445237159729
1772791600335205400,4.327205322265625,9.20654010772705,-1.3118720054626465,-4.003393650054932
1772791600355306800,4.347306640625,9.8962984085083,-3.3217580318450928,-3.0798099040985107
1772791600375408400,4.367408447265625,9.242758750915527,-5.037364959716797,-1.9447717666625977
1772791600395509800,4.387509765625,8.182289123535156,-6.317811489105225,-0.9484840035438538
1772791600415611400,4.407611328125,8.038744926452637,-6.969220161437988,1.3269188404083252
1772791600435712800,4.427712646484375,8.566582679748535,-6.061349391937256,6.107022762298584
1772791600455814400,4.447814453125,8.958866119384766,-2.426936626434326,9.349418640136719
1772791600475916000,4.467916015625,10.097899436950684,1.4293173551559448,6.749909400939941
1772791600496017400,4.488017333984375,10.157553672790527,4.166245460510254,1.2701935768127441
1772791600516119000,4.508119140625,6.530864238739014,5.575855731964111,-3.079277276992798
1772791600536220400,4.528220458984375,3.186469554901123,7.078409671783447,-4.208456516265869
1772791600556322000,4.548322021484375,1.8258616924285889,8.041141510009766,-4.582896709442139
1772791600576423400,4.56842333984375,1.2434288263320923,7.733813285827637,-4.750143051147461
1772791600596525000,4.588525146484375,1.2503530979156494,5.740438938140869,-4.289949417114258
1772791600616626700,4.608626708984375,1.314002513885498,3.0756821632385254,-3.538139581680298
1772791600636728000,4.62872802734375,1.5393058061599731,0.6253097057342529,-2.5623581409454346
1772791600656829200,4.6488291015625,1.9845860004425049,-1.3185299634933472,-1.8920412063598633
1772791600676930000,4.668929931640625,2.4098923206329346,-2.559828281402588,-1.7591495513916016
1772791600697031200,4.68903125,2.755570411682129,-2.94305682182312,-1.6598137617111206
1772791600717132300,4.70913232421875,2.981672525405884,-2.687659978866577,-1.3719263076782227
1772791600737233200,4.729233154296875,3.0266799926757812,-2.020538568496704,-0.8685892224311829
1772791600757334300,4.749334228515625,2.9414589405059814,-1.3651351928710938,-0.4075964689254761
1772791600777435100,4.76943505859375,2.7105629444122314,-1.0026793479919434,-0.24168166518211365
1772791600797536300,4.789536376953125,2.3766028881073,-1.1438267230987549,-0.10346371680498123
1772791600817637000,4.80963720703125,1.9164091348648071,-1.6178690195083618,0.3223753869533539
1772791600837738200,4.82973828125,1.1914972066879272,-2.087383985519409,0.8416913151741028
1772791600857839400,4.84983935546875,0.5685843825340271,-2.3651514053344727,1.2568777799606323
1772791600877940200,4.869940185546875,0.2311621904373169,-2.8972504138946533,1.6957663297653198
1772791600898041300,4.890041259765625,-0.1014663502573967,-4.216845512390137,1.6494274139404297
1772791600918142500,4.910142578125,-1.5273215770721436,-5.478650093078613,0.30186906456947327
1772791600938243300,4.930243408203125,-4.579567909240723,-4.487156391143799,-1.8457021713256836
1772791600958344400,4.950344482421875,-7.846997261047363,-1.5326478481292725,-1.4859094619750977
1772791600978445300,4.9704453125,-9.27604866027832,0.3813643455505371,-0.07763107866048813
1772791600998546400,4.99054638671875,-10.187114715576172,2.4839282035827637,0.9865671992301941
1772791601018647300,5.010647216796875,-10.316278457641602,3.5204296112060547,2.2270665168762207
1772791601038748400,5.03074853515625,-9.418261528015137,3.0144295692443848,3.273954391479492
1772791601058849500,5.050849609375,-8.45845890045166,1.7188026905059814,3.1708900928497314
1772791601078950400,5.070950439453125,-8.58629035949707,0.07270423322916031,2.8028414249420166
1772791601099051500,5.091051513671875,-9.688838005065918,-2.5057661533355713,2.4228086471557617
1772791601119152400,5.11115234375,-10.080056190490723,-5.114596366882324,1.6337147951126099
1772791601139253500,5.13125341796875,-8.365514755249023,-5.298088073730469,1.134106159210205
1772791601159354600,5.151354736328125,-6.131656646728516,-2.7140252590179443,-0.5202480554580688
1772791601179456000,5.1714560546875,-5.430713653564453,2.664224147796631,-3.8284239768981934
1772791601199557000,5.19155712890625,-6.0629472732543945,6.634994029998779,-5.349886417388916
1772791601219658200,5.211658203125,-6.394244194030762,6.155625343322754,-3.4787511825561523
1772791601239759600,5.231759521484375,-6.661625385284424,2.2905828952789307,-0.2233058661222458
1772791601259860700,5.25186083984375,-6.714622497558594,-1.441035270690918,2.295243501663208
1772791601279962000,5.271962158203125,-6.3756022453308105,-3.1063084602355957,2.9538426399230957
1772791601300063200,5.292063232421875,-5.370792388916016,-2.6399893760681152,1.9668759107589722
1772791601320164400,5.312164306640625,-3.817904472351074,-1.202416181564331,0.1806953251361847
1772791601340265700,5.332265625,-2.0817911624908447,0.31265485286712646,-1.3213262557983398
1772791601360366800,5.352366943359375,-0.6846981048583984,1.3480910062789917,-1.6470305919647217
1772791601380468200,5.37246826171875,0.3150516748428345,1.4785857200622559,-0.7665902376174927
1772791601400569300,5.3925693359375,0.8506129384040833,0.9459540247917175,0.9902955889701843
1772791601420670500,5.41267041015625,0.9619329571723938,0.2167811244726181,2.80257511138916
1772791601440771800,5.432771728515625,1.0817750692367554,-0.463655948638916,4.032155513763428
1772791601460873000,5.452873046875,1.478053092956543,-0.8588687181472778,4.6137895584106445
1772791601480974300,5.472974365234375,2.1390490531921387,-0.7795065641403198,4.752007484436035
1772791601501075500,5.493075439453125,2.888728380203247,-0.4173169732093811,4.626306533813477
1772791601521176600,5.513176513671875,3.518831729888916,-0.07723160833120346,4.418846130371094
1772791601541278000,5.53327783203125,3.788609743118286,0.13768531382083893,4.294476509094238
1772791601581480200,5.573480224609375,3.5720949172973633,-0.02077263966202736,4.524041175842285
1772791601601581600,5.59358154296875,3.2189600467681885,-0.7110633850097656,4.266513347625732
1772791601621682700,5.6136826171875,2.682333469390869,-1.520397424697876,3.788742780685425
1772791601641783800,5.63378369140625,2.105226993560791,-2.0477027893066406,3.471294403076172
1772791601661883600,5.653883544921875,1.6530226469039917,-2.112417459487915,3.631882905960083
1772791601681983700,5.673983642578125,1.649560570716858,-1.438372015953064,3.9274935722351074
1772791601702083600,5.69408349609375,2.176866054534912,0.3456780016422272,4.323238849639893
1772791601722183700,5.71418359375,3.2722232341766357,2.6008408069610596,3.850261926651001
1772791601742283500,5.734283447265625,4.606998443603516,4.633363723754883,2.0382485389709473
1772791601762383600,5.754383544921875,5.375053405761719,5.59769344329834,-0.11012161523103714
1772791601782483700,5.774483642578125,5.421392440795898,5.536440849304199,-1.8201358318328857
1772791601802583600,5.79458349609375,5.21952486038208,4.909799575805664,-2.6086971759796143
1772791601822683600,5.81468359375,5.475986957550049,4.380630016326904,-2.2257349491119385
1772791601842783500,5.834783447265625,6.191311836242676,4.351335048675537,-1.1916303634643555
1772791601862883600,5.854883544921875,6.596644401550293,4.8951520919799805,-1.1306440830230713
1772791601882983400,5.8749833984375,6.54604434967041,5.49755859375,-2.1570255756378174
1772791601903083500,5.89508349609375,6.1351189613342285,5.736976623535156,-3.6124417781829834
1772791601923183400,5.915183349609375,5.518864154815674,5.714872360229492,-4.627904415130615
1772791601943283500,5.935283447265625,4.886363983154297,5.517798900604248,-5.007936954498291
1772791601963383600,5.955383544921875,4.355862617492676,5.394760608673096,-4.94295597076416
1772791601983483400,5.9754833984375,4.000863552093506,5.338834285736084,-4.6060662269592285
1772791602003583500,5.99558349609375,3.706051826477051,5.187567234039307,-4.236153602600098
1772791602023683300,6.015683349609375,3.470628499984741,4.786495208740234,-3.773296594619751
1772791602043783400,6.035783447265625,3.1752841472625732,4.130026817321777,-3.182607889175415
1772791602063883300,6.05588330078125,2.686328411102295,3.2123022079467773,-2.359159231185913
1772791602083983400,6.0759833984375,2.1198744773864746,2.0050923824310303,-1.1181272268295288
1772791602104083500,6.09608349609375,1.6162711381912231,0.8588687181472778,0.4185154139995575
1772791602124183300,6.116183349609375,1.2330424785614014,0.20746007561683655,1.7644758224487305
1772791602144283600,6.13628369140625,0.8740487098693848,-0.04900212213397026,2.6065666675567627
1772791602164384300,6.15638427734375,0.6977475881576538,-0.29747483134269714,2.856104612350464
1772791602184484900,6.17648486328125,1.0442246198654175,-0.5707149505615234,2.7346646785736084
1772791602204585700,6.196585693359375,2.015212297439575,-0.8844350576400757,2.6057677268981934
1772791602224686300,6.216686279296875,2.9297409057617188,-0.7512770891189575,1.900829553604126
1772791602244787000,6.236786865234375,2.961965322494507,-1.0154623985290527,0.6728470921516418
1772791602264887800,6.2568876953125,2.2309281826019287,-2.253831386566162,-0.8313050270080566
1772791602284988400,6.276988525390625,1.410408854484558,-3.8163065910339355,-2.2763350009918213
1772791602305089000,6.297089111328125,-0.564323365688324,-3.801126480102539,-3.398590087890625
1772791602325190000,6.31718994140625,-4.085285663604736,-2.9318716526031494,-3.332277536392212
1772791602345290500,6.33729052734375,-6.948980331420898,-1.244494080543518,-1.581250548362732
1772791602365391000,6.35739111328125,-8.607861518859863,1.165930986404419,0.5548691153526306
1772791602385492000,6.377491943359375,-8.934897422790527,3.7172369956970215,2.6941845417022705
1772791602405592600,6.397592529296875,-8.678169250488281,5.612340927124023,5.061999320983887
1772791602425693200,6.417693115234375,-8.622509002685547,5.374787330627441,8.00798511505127
1772791602445794000,6.4377939453125,-9.99297046661377,1.5017552375793457,8.219706535339355
1772791602465894700,6.457894775390625,-10.62893295288086,-0.371244341135025,4.661726474761963
1772791602485995300,6.477995361328125,-8.617448806762695,1.8817880153656006,0.45846277475357056
1772791602506096000,6.49809619140625,-5.606482028961182,7.053908824920654,-1.866208553314209
1772791602526196700,6.51819677734375,-3.9284255504608154,9.956485748291016,-1.4851105213165283
1772791602546297300,6.53829736328125,-3.4929990768432617,9.26566219329834,0.25126904249191284
1772791602566398200,6.558398193359375,-3.776092767715454,7.141526699066162,1.7695358991622925
1772791602586498800,6.578498779296875,-3.9923412799835205,5.7710652351379395,2.440385580062866
1772791602606599400,6.598599365234375,-3.6123085021972656,5.491966247558594,2.758366823196411
1772791602626700300,6.6187001953125,-2.8639609813690186,5.860813617706299,2.7288057804107666
1772791602646801700,6.6388017578125,-2.0817911624908447,6.187849521636963,2.2622201442718506
1772791602666904000,6.658904052734375,-1.0383656024932861,6.128460884094238,1.7330505847930908
1772791602687006500,6.67900634765625,0.003462106455117464,5.940708160400391,1.1657977104187012
1772791602707108900,6.69910888671875,0.8135949969291687,5.582513332366943,0.5833649635314941
1772791602727211300,6.719211181640625,1.3456941843032837,4.971052169799805,0.1639174222946167
1772791602747313700,6.739313720703125,1.5169352293014526,3.975829839706421,0.10133319348096848
1772791602767416000,6.759416015625,1.299355149269104,2.7220146656036377,0.5881586074829102
1772791602787518500,6.7795185546875,1.024250864982605,1.487906813621521,1.7932380437850952
1772791602807620900,6.799620849609375,0.7632613182067871,0.4516717195510864,3.5434658527374268
1772791602827723300,6.81972314453125,0.06285054981708527,-0.33955276012420654,5.285970687866211
1772791602847825700,6.83982568359375,-1.3765867948532104,-0.6290380954742432,6.154959678649902
1772791602867928000,6.859927978515625,-2.4868576526641846,-0.41891488432884216,5.65961217880249
1772791602888030500,6.880030517578125,-2.147571325302124,-0.2700442969799042,4.460391521453857
1772791602908132900,6.9001328125,-0.6918886303901672,0.4580633044242859,2.6827330589294434
1772791602928235300,6.9202353515625,1.1081403493881226,0.08602003008127213,-1.769269585609436
1772791602948337700,6.940337646484375,-0.7331676483154297,-3.293794870376587,-8.916122436523438
1772791602968440000,6.960440185546875,-3.6384074687957764,-6.205692768096924,-13.044817924499512
1772791602988542500,6.98054248046875,-4.242944717407227,-6.097035884857178,-13.486369132995605
1772791603008644900,7.000644775390625,-1.7997627258300781,-5.679718971252441,-13.08156967163086
1772791603028747300,7.020747314453125,0.7779086828231812,-6.325002193450928,-13.204873085021973
1772791603048849700,7.040849609375,2.0136144161224365,-6.094638824462891,-12.529496192932129
1772791603068952000,7.0609521484375,2.34517765045166,-4.827507972717285,-12.623772621154785
1772791603089054500,7.081054443359375,1.6791216135025024,-4.033886432647705,-11.315629005432129
1772791603109156900,7.101156982421875,-0.09400950372219086,-2.479400873184204,-6.5847930908203125
1772791603129259300,7.12125927734375,-2.284723997116089,0.018642112612724304,-0.7428881525993347
1772791603149361000,7.14136083984375,-3.119091510772705,0.5078643560409546,2.3655507564544678
1772791603169462300,7.161462158203125,-2.4181482791900635,0.37257590889930725,2.8475825786590576
1772791603189563600,7.181563720703125,-1.2924309968948364,1.07618248462677,1.895503282546997
1772791603209665000,7.2016650390625,-0.2503369152545929,2.1334564685821533,0.6584660410881042
1772791603229766400,7.221766357421875,0.15579478442668915,2.546778678894043,-0.045673172920942307
1772791603249867800,7.24186767578125,-0.36005908250808716,2.2426459789276123,-0.07416897267103195
1772791603269969200,7.26196923828125,-1.5472952127456665,1.636777400970459,0.4941491186618805
1772791603290070500,7.282070556640625,-2.6921873092651367,1.1611372232437134,1.1556777954101562
1772791603310172000,7.302171875,-3.404315948486328,0.9321056008338928,1.7658075094223022
1772791603330273300,7.322273193359375,-3.521761178970337,0.7518097162246704,2.2166802883148193
1772791603350374700,7.342374755859375,-3.133206367492676,0.6982802152633667,2.577538251876831
1772791603370476000,7.36247607421875,-2.5060324668884277,0.751543402671814,2.830538272857666
1772791603390577400,7.382577392578125,-1.8562216758728027,0.8426234722137451,3.0742173194885254
1772791603410678800,7.4026787109375,-1.3358404636383057,1.0037446022033691,3.140796422958374
1772791603430780200,7.4227802734375,-0.9214529395103455,1.1954920291900635,2.822282552719116
1772791603450881500,7.442881591796875,-0.438355952501297,1.2362383604049683,2.4614245891571045
1772791603470983000,7.46298291015625,0.14301162958145142,1.086568832397461,2.0944411754608154
1772791603491084500,7.48308447265625,0.9318392872810364,0.9073382019996643,1.27871572971344
1772791603511185700,7.503185546875,2.5816662311553955,0.3632548749446869,-0.771117627620697
1772791603531287300,7.523287353515625,5.532978534698486,-1.076715111732483,-5.068656921386719
1772791603551388400,7.543388427734375,8.77084732055664,-3.3497211933135986,-9.50547981262207
1772791603571490000,7.563489990234375,9.259004592895508,-5.055740833282471,-9.46739673614502
1772791603591591400,7.58359130859375,5.3492207527160645,-2.8889946937561035,-2.5985772609710693
1772791603611692800,7.60369287109375,0.3350253701210022,0.9555413722991943,6.113414287567139
1772791603631794200,7.623794189453125,-0.6695181131362915,1.9699385166168213,8.871114730834961
1772791603651895000,7.64389501953125,1.4578131437301636,2.9808735847473145,8.262316703796387
1772791603671995600,7.66399560546875,3.7822182178497314,5.3122029304504395,6.9941205978393555
1772791603692096300,7.68409619140625,5.000347137451172,6.430995941162109,6.221804618835449
1772791603712196900,7.70419677734375,4.315915107727051,5.579850196838379,6.342978477478027
1772791603732297700,7.724297607421875,2.431730270385742,3.712177038192749,7.502784252166748
1772791603752398300,7.7443984375,1.031707763671875,2.0213375091552734,8.576836585998535
1772791603772499000,7.7644990234375,0.40453383326530457,1.3001540899276733,8.642882347106934
1772791603792599600,7.784599609375,0.38935381174087524,1.8037574291229248,7.7030534744262695
1772791603812700400,7.804700439453125,0.7550055384635925,2.931605339050293,6.311286926269531
1772791603832801000,7.824801025390625,0.9587371945381165,3.1925947666168213,4.8835673332214355
1772791603852901600,7.844901611328125,0.8013445138931274,2.5571651458740234,3.6340134143829346
1772791603873002200,7.865002197265625,0.5187833309173584,1.9744659662246704,2.5937836170196533
1772791603893103000,7.88510302734375,0.37390750646591187,1.988847017288208,1.6925705671310425
1772791603913203700,7.90520361328125,0.4106590747833252,2.28312611579895,0.834500789642334
1772791603933304300,7.92530419921875,0.5190496444702148,2.4580955505371094,0.07416897267103195
1772791603953405000,7.945405029296875,0.5683180689811707,2.290316581726074,-0.44168490171432495
1772791603973505800,7.965505859375,0.5488770604133606,1.777658462524414,-0.6054691672325134
1772791603993606400,7.9856064453125,0.5358275771141052,1.1017488241195679,-0.4568648934364319
1772791604013707000,8.00570703125,0.6231791377067566,0.35579800605773926,-0.22303955256938934
1772791604033807600,8.0258076171875,0.7014760375022888,-0.2282327115535736,-0.12503530085086823
1772791604053908500,8.045908447265624,0.7960181832313538,-0.5523391366004944,-0.1524658352136612
1772791604074009000,8.066009033203125,0.9590035080909729,-0.6572675704956055,-0.26085641980171204
1772791604094109700,8.086109619140625,1.1190593242645264,-0.761397123336792,-0.3223753869533539
1772791604114210300,8.106210205078124,1.0354361534118652,-1.0338382720947266,-0.28482484817504883
1772791604134311200,8.126311279296875,0.6279728412628174,-1.5781879425048828,-0.3615238070487976
1772791604154411800,8.146411865234375,0.6151896715164185,-2.431730270385742,-0.8177229166030884
1772791604174512400,8.166512451171876,0.7406244874000549,-3.635211706161499,-2.4329288005828857
1772791604194613000,8.186613037109375,0.5267727971076965,-4.650407791137695,-6.261752128601074
1772791604214713600,8.206713623046875,-0.6127928495407104,-6.786261081695557,-12.262381553649902
1772791604234814200,8.226814208984376,-1.5230605602264404,-8.874444007873535,-17.119983673095703
1772791604254914800,8.246914794921874,0.05246422812342644,-9.465132713317871,-17.52025604248047
1772791604275015700,8.267015625,2.070073366165161,-8.392945289611816,-13.132169723510742
1772791604295116300,8.2871162109375,3.3806138038635254,-3.858917236328125,-7.802123069763184
1772791604315217000,8.307216796875,2.9545083045959473,2.918555736541748,-4.890491485595703
1772791604335317500,8.3273173828125,1.8785922527313232,4.575572967529297,-3.5993921756744385
1772791604355418000,8.347418212890625,0.33768853545188904,2.3627545833587646,-2.798314094543457
1772791604375518700,8.367518798828126,-1.2181288003921509,-1.3299815654754639,-1.868072748184204
1772791604395619600,8.38761962890625,-2.2373197078704834,-4.041609764099121,-0.5753754377365112
1772791604415720200,8.40772021484375,-2.7265419960021973,-4.377700328826904,0.301336407661438
1772791604435820800,8.42782080078125,-2.775277853012085,-2.7688863277435303,0.3783017098903656
1772791604455921400,8.44792138671875,-2.278332471847534,-1.1299782991409302,0.19960375130176544
1772791604476022000,8.46802197265625,-1.428252100944519,-0.26525062322616577,0.07576686888933182
1772791604496122600,8.48812255859375,-0.6274402141571045,-0.007989476434886456,-0.06165212765336037
1772791604516223500,8.508223388671874,-0.012783162295818329,0.12436951696872711,-0.2960101068019867
1772791604536324000,8.528323974609375,0.23995061218738556,0.38828855752944946,-0.374573290348053
1772791604556424700,8.5484248046875,0.2745716869831085,0.6998781561851501,-0.02996053732931614
1772791604576525300,8.568525390625,0.09267792850732803,0.8918918967247009,0.6307691931724548
1772791604596626000,8.5886259765625,-0.19867165386676788,0.876711905002594,1.4084115028381348
1772791604616726500,8.6087265625,-0.4838959574699402,0.7494128942489624,2.069141149520874
1772791604636827100,8.6288271484375,-0.679638147354126,0.5518065094947815,2.5455803871154785
1772791604656928000,8.648927978515625,-0.7182539105415344,0.2817622125148773,2.914161443710327
1772791604677029000,8.669029052734375,-0.6093307137489319,-0.04607264697551727,3.1495847702026367
1772791604697130000,8.6891298828125,-0.4138548672199249,-0.36884748935699463,3.3599743843078613
1772791604717230800,8.70923095703125,-0.1914811134338379,-0.5177180767059326,3.459576368331909
1772791604737331700,8.729331787109375,0.06178528442978859,-0.49401596188545227,3.4180312156677246
1772791604757432600,8.7494326171875,0.2708432376384735,-0.608798086643219,3.2310774326324463
1772791604777533400,8.769533447265625,0.5909549593925476,-1.1078740358352661,2.702706813812256
1772791604797634300,8.78963427734375,1.093226671218872,-1.691638469696045,1.6909726858139038
1772791604817735200,8.809735107421876,1.5097447633743286,-1.6998943090438843,1.285906195640564
1772791604837836000,8.8298359375,1.725993275642395,-1.4245235919952393,1.4273200035095215
1772791604857937200,8.849937255859375,1.8341175317764282,-0.9017455577850342,1.9519622325897217
1772791604878038000,8.8700380859375,1.8556890487670898,-0.2865558862686157,2.7000436782836914
1772791604898139000,8.890138916015625,1.7939038276672363,0.13182635605335236,3.351452112197876
1772791604918239700,8.91023974609375,1.6919047832489014,0.30040431022644043,3.6997933387756348
1772791604938340600,8.930340576171876,1.6351795196533203,0.21225376427173615,3.8052544593811035
1772791604958441500,8.95044140625,1.6335816383361816,-0.1981390118598938,3.7892754077911377
1772791604978542300,8.970542236328125,1.6655395030975342,-0.7459507584571838,3.672362804412842
1772791604998643200,8.990643310546876,1.8279922008514404,-1.0287781953811646,3.322157382965088
1772791605018744000,9.010744140625,2.0703396797180176,-0.9158602952957153,2.7961835861206055
1772791605038845000,9.030844970703125,2.363553524017334,-0.4418180584907532,2.1469054222106934
1772791605058946000,9.050946044921876,2.5829977989196777,0.04873580485582352,1.5729947090148926
1772791605079047000,9.071046875,2.654902935028076,0.3193127512931824,1.2592746019363403
1772791605099147800,9.091147705078125,2.4969778060913086,0.3073285222053528,1.2217241525650024
1772791605119248600,9.11124853515625,2.0423765182495117,0.13981583714485168,1.5724620819091797
1772791605139349500,9.131349609375,1.428252100944519,0.05938844010233879,2.2073590755462646
1772791605159451400,9.151451416015625,0.9286434650421143,0.373374879360199,2.6081645488739014
1772791605179553000,9.171552978515624,0.7909581661224365,1.165930986404419,2.6510415077209473
1772791605199655000,9.191655029296875,1.0985530614852905,2.1310596466064453,2.797781467437744
1772791605219756500,9.211756591796876,1.6413047313690186,2.9843356609344482,2.915226697921753
1772791605239858400,9.2318583984375,2.159555435180664,3.6613106727600098,2.6947171688079834
1772791605259960300,9.251960205078126,2.4762051105499268,4.02669620513916,2.2007012367248535
1772791605280062000,9.27206201171875,2.558230400085449,3.9433393478393555,1.6595474481582642
1772791605300163800,9.292163818359375,2.4762051105499268,3.4181642532348633,1.2733893394470215
1772791605320265500,9.312265380859374,2.454367160797119,2.5560998916625977,1.1333072185516357
1772791605340367400,9.332367431640625,2.686861038208008,1.7366458177566528,1.102414608001709
1772791605360469000,9.352468994140626,2.546778678894043,1.3403677940368652,0.5937512516975403
1772791605380571000,9.37257080078125,2.275935411453247,0.7523423433303833,-0.12743215262889862
1772791605400672800,9.3926728515625,2.3454439640045166,-0.2948116660118103,-0.7535408139228821
1772791605420774400,9.4127744140625,2.792588233947754,-1.3305141925811768,-0.9173250794410706
1772791605440876300,9.432876220703125,3.1678273677825928,-1.8929733037948608,-0.567918598651886
1772791605460978000,9.45297802734375,3.190730571746826,-2.065812349319458,-0.029694220051169395
1772791605481079800,9.473079833984375,2.810431480407715,-2.1092216968536377,0.26325324177742004
1772791605501181400,9.493181396484376,2.223205089569092,-2.0053586959838867,0.4978775382041931
1772791605521283300,9.513283447265625,1.6530226469039917,-1.7204005718231201,0.273905873298645
1772791605541385200,9.53338525390625,1.1020151376724243,-1.4285184144973755,-0.43928804993629456
1772791605561486800,9.55348681640625,0.7078676223754883,-1.1941604614257812,-1.595365285873413
1772791605581588700,9.573588623046875,0.2306295484304428,-1.185904622077942,-2.602571964263916
1772791605601690400,9.5936904296875,-0.15632742643356323,-1.4024194478988647,-2.7186856269836426
1772791605621792300,9.613792236328125,-0.20692743360996246,-1.40801203250885,-1.9647454023361206
1772791605641894000,9.633893798828124,0.10599371790885925,-1.2966920137405396,-1.1386336088180542
1772791605661995500,9.65399560546875,0.5089296698570251,-1.0649971961975098,-0.7135934233665466
1772791605682097000,9.674096923828126,0.7046718001365662,-0.27057692408561707,-0.3308974802494049
1772791605702198500,9.694198486328125,0.4809664785861969,1.0548771619796753,0.1969406008720398
1772791605722300000,9.7142998046875,-0.39601171016693115,1.3928320407867432,0.8933566212654114
1772791605742401500,9.734401611328124,-1.4415678977966309,0.05566002056002617,2.6076319217681885
1772791605762503000,9.7545029296875,-1.9771291017532349,-1.2410320043563843,5.0249810218811035
1772791605782604500,9.7746044921875,-2.1979050636291504,-1.6610121726989746,6.485990047454834
1772791605802706000,9.794705810546875,-2.343846082687378,-1.5765900611877441,6.764023780822754
1772791605822807600,9.8148076171875,-2.2160143852233887,-1.3004204034805298,6.319010257720947
1772791605842909200,9.8349091796875,-1.7188026905059814,-1.0990856885910034,5.328314781188965
1772791605863010600,9.855010498046875,-1.0583393573760986,-0.8950876593589783,4.148801803588867
1772791605903213600,9.895213623046875,-0.32517167925834656,-0.22796639800071716,2.0747339725494385
1772791605923315200,9.915315185546875,-0.21704743802547455,0.40133804082870483,1.2843083143234253
1772791605943416600,9.93541650390625,-0.09853687882423401,1.3651351928710938,0.4677838385105133
1772791605963518200,9.955518310546875,0.23995061218738556,2.2935123443603516,-0.3759048581123352
1772791605983619800,9.975619873046876,0.7158570885658264,2.478868246078491,-1.2044135332107544
1772791606003721200,9.99572119140625,1.0620677471160889,1.8458353281021118,-1.8675401210784912
1772791606023822800,10.01582275390625,1.7571521997451782,0.8383623957633972,-2.180194854736328
1772791606043924200,10.03592431640625,2.140913486480713,-0.5113264918327332,-2.0507655143737793
1772791606064025900,10.05602587890625,2.5614261627197266,-1.7427711486816406,-1.4954968690872192
1772791606084127200,10.076127197265626,3.2357380390167236,-2.845851421356201,-0.7692534327507019
1772791606104228900,10.096228759765625,4.263184547424316,-3.8962013721466064,0.20333217084407806
1772791606124330200,10.116330322265625,4.735629081726074,-5.163865089416504,1.7426379919052124
1772791606144431900,10.136431884765624,2.3632872104644775,-5.16945743560791,3.5658364295959473
1772791606164534000,10.156533935546875,1.080976128578186,-3.018157958984375,2.6411876678466797
1772791606184636000,10.176635986328124,1.1078740358352661,1.766206979751587,1.608148455619812
1772791606204737800,10.19673779296875,-0.5949496626853943,4.2482709884643555,2.3708770275115967
1772791606224840000,10.21683984375,-2.4690146446228027,3.809382438659668,4.640420913696289
1772791606244941800,10.23694189453125,-3.5412023067474365,2.973949432373047,6.327798366546631
1772791606265043700,10.257043701171876,-4.099666595458984,3.184072732925415,7.138996601104736
1772791606285145900,10.277145751953125,-4.098601341247559,4.049333095550537,6.696379661560059
1772791606305247700,10.297247802734375,-3.9020602703094482,4.353465557098389,5.612740516662598
1772791606325349600,10.317349609375,-3.687675952911377,3.6599791049957275,4.648942947387695
1772791606345451800,10.33745166015625,-3.5001895427703857,2.8101651668548584,4.038547039031982
1772791606365553700,10.3575537109375,-2.8961851596832275,1.6628763675689697,3.393263816833496
1772791606385655600,10.377655517578125,-1.9209364652633667,0.6756433844566345,2.1445086002349854
1772791606405757700,10.3977578125,-0.7808381915092468,0.17390426993370056,0.5934849381446838
1772791606425859600,10.417859619140625,0.46685174107551575,-0.2527337670326233,-0.6307691931724548
1772791606445961500,10.43796142578125,1.2972246408462524,-0.5896233320236206,-1.315999984741211
1772791606466063600,10.458063720703125,1.272457242012024,-0.5427517890930176,-1.0989525318145752
1772791606486165500,10.47816552734375,0.6351633667945862,-0.69428551197052,0.2840258777141571
1772791606506267400,10.498267333984375,0.190948486328125,-1.7659406661987305,2.3213424682617188
1772791606526369500,10.51836962890625,-0.11797793209552765,-3.3156328201293945,3.809781789779663
1772791606546471400,10.538471435546874,-0.3675159215927124,-4.312985897064209,3.9477334022521973
1772791606566573300,10.5585732421875,-0.33049800992012024,-4.185420513153076,3.1072404384613037
1772791606586675500,10.578675537109374,0.23808640241622925,-3.4384043216705322,1.697097897529602
1772791606606777300,10.59877734375,0.9869666695594788,-2.8479819297790527,0.5109270215034485
1772791606626879200,10.618879150390624,1.50068998336792,-2.7505104541778564,-0.37856802344322205
1772791606646981000,10.638981201171875,1.7371784448623657,-2.9033756256103516,-0.8965524435043335
1772791606667082800,10.659082763671876,1.7544890642166138,-2.997385263442993,-1.0345040559768677
1772791606687184100,10.67918408203125,1.5792531967163086,-2.5398545265197754,-0.9391629695892334
1772791606707285800,10.69928564453125,1.3515530824661255,-1.5211963653564453,-0.8861660957336426
1772791606727387400,10.719387451171874,1.5430341958999634,-0.5917539000511169,-0.6981470584869385
1772791606747488800,10.73948876953125,2.045572280883789,-1.0303761959075928,0.46432173252105713
1772791606767590400,10.75959033203125,1.8024258613586426,-2.393913507461548,1.9945727586746216
1772791606787692000,10.779692138671875,1.5443657636642456,-3.8754286766052246,2.1714065074920654
1772791606807793700,10.799793701171875,1.048751950263977,-3.2898001670837402,0.786297619342804
1772791606827895000,10.81989501953125,0.6016075611114502,-1.3350415229797363,-1.2765852212905884
1772791606847996700,10.83999658203125,1.128114104270935,0.2354232370853424,-2.4864583015441895
1772791606868098000,10.86009814453125,1.9137458801269531,0.6079991459846497,-2.466484546661377
1772791606888199700,10.88019970703125,2.1246681213378906,-0.7664570808410645,-1.6097463369369507
1772791606908301300,10.90030126953125,1.8184047937393188,-1.8122795820236206,-0.27656903862953186
1772791606928403000,10.92040283203125,1.6527563333511353,-1.8703364133834839,0.7338334321975708
1772791606948504300,10.94050439453125,1.6532889604568481,-1.7592827081680298,0.9751155972480774
1772791606968606000,10.96060595703125,1.4554163217544556,-1.2210583686828613,0.2816290557384491
1772791606988707600,10.98070751953125,1.3736573457717896,-0.2047969102859497,-0.9719198346138
1772791607008809000,11.00080908203125,1.4471604824066162,0.9840371608734131,-2.0486350059509277
1772791607028910600,11.02091064453125,1.4692647457122803,1.891908049583435,-2.58659291267395
1772791607049012200,11.04101220703125,1.4697973728179932,2.3723418712615967,-2.6172192096710205
1772791607069113600,11.061113525390626,1.4623404741287231,2.621347188949585,-2.4422497749328613
1772791607089215200,11.08121533203125,1.384310007095337,2.703638792037964,-2.141845464706421
1772791607109316900,11.10131689453125,1.2088078260421753,2.6330652236938477,-1.7208000421524048
1772791607129418500,11.12141845703125,0.849281370639801,2.5284030437469482,-1.2211915254592896
1772791607149519600,11.14151953125,0.3547327518463135,2.4090933799743652,-0.6904239058494568
1772791607169620700,11.161620849609376,-0.12996214628219604,2.248504877090454,-0.24301324784755707
1772791607189721900,11.181721923828125,-0.5355612635612488,1.9334533214569092,0.1849563866853714
1772791607209823000,11.201822998046875,-0.8026760816574097,1.6373100280761719,0.7111965417861938
1772791607229924000,11.221924072265624,-1.021321415901184,1.4524868726730347,1.4369072914123535
1772791607250025500,11.242025390625,-0.9289097785949707,1.1046782732009888,2.4148192405700684
1772791607270126600,11.262126708984376,0.7163897156715393,-0.16058847308158875,2.5778045654296875
1772791607290227700,11.282227783203124,1.6895079612731934,-0.994423508644104,2.286987543106079
1772791607310328800,11.302328857421875,-0.9590035080909729,-0.9475519061088562,2.0084211826324463
1772791607330430000,11.322429931640626,-3.3939294815063477,1.314002513885498,0.7617965936660767
1772791607350531000,11.342531005859374,-4.1713056564331055,4.074100494384766,0.20759323239326477
1772791607370632200,11.362632080078125,-4.81738805770874,4.886363983154297,1.3258535861968994
1772791607390733300,11.3827333984375,-5.155343055725098,4.061583518981934,2.7772750854492188
1772791607410834400,11.40283447265625,-4.872249126434326,3.3113715648651123,3.483278512954712
1772791607430935600,11.422935546875,-4.28449010848999,2.9222841262817383,3.1703574657440186
1772791607451037000,11.443036865234374,-3.521761178970337,2.8216166496276855,2.261154890060425
1772791607471138000,11.463137939453125,-2.4461114406585693,3.021087408065796,1.3343757390975952
1772791607491239200,11.4832392578125,-1.2990888357162476,2.947051525115967,0.6006754636764526
1772791607511340300,11.50334033203125,-0.42663803696632385,2.951845169067383,-0.09467529505491257
1772791607531441400,11.52344140625,0.10492845624685287,3.105775833129883,-0.834500789642334
1772791607551542500,11.54354248046875,0.1771000623703003,2.9798083305358887,-1.5615432262420654
1772791607571643600,11.5636435546875,0.19707375764846802,2.781403064727783,-2.0880496501922607
1772791607591744800,11.583744873046875,0.4178496301174164,2.653571367263794,-2.3237392902374268
1772791607611846000,11.603845947265626,0.6183854937553406,2.2061607837677,-2.661161422729492
1772791607631947000,11.623947021484375,0.9230508208274841,1.54702889919281,-2.9245479106903076
1772791607652048100,11.644048095703125,1.1680614948272705,0.8639287352561951,-2.876344680786133
1772791607672148700,11.664148681640626,1.3997563123703003,0.1699095368385315,-2.4728760719299316
1772791607692249600,11.68424951171875,1.4599436521530151,-0.6056023240089417,-1.799096941947937
1772791607712350500,11.7043505859375,1.1145319938659668,-1.5539531707763672,-1.0520808696746826
1772791607732451300,11.724451416015626,0.5858949422836304,-2.337188243865967,-0.3721764385700226
1772791607752552000,11.744552001953124,0.24101586639881134,-2.7691526412963867,0.21291954815387726
1772791607772652800,11.76465283203125,0.29694220423698425,-2.8479819297790527,0.5841639041900635
1772791607792753700,11.784753662109376,0.9704550504684448,-2.6932525634765625,0.5490102171897888
1772791607812854500,11.8048544921875,2.645848274230957,-3.224552631378174,0.3956122398376465
1772791607832955100,11.824955078125,4.255727767944336,-5.154810428619385,-0.24061639606952667
1772791607853056000,11.845055908203125,5.437903881072998,-8.042206764221191,-0.917591392993927
1772791607873156900,11.865156982421874,5.636043071746826,-7.956719398498535,-3.7479965686798096
1772791607893257700,11.8852578125,5.171321868896484,-4.2578582763671875,-7.564835548400879
1772791607913358300,11.9053583984375,4.242678165435791,-0.782169759273529,-8.976842880249023
1772791607933459200,11.925459228515624,2.818953514099121,-0.31558433175086975,-6.7112932205200195
1772791607953560000,11.94556005859375,1.3259867429733276,-2.552105188369751,-2.675276279449463
1772791607973661000,11.965660888671875,1.0636656284332275,-4.8432207107543945,-0.15832479298114777
1772791607993761500,11.985761474609374,1.6053521633148193,-4.723112106323242,-0.05020054429769516
1772791608013862400,12.0058623046875,2.127331256866455,-2.9875316619873047,-1.1990872621536255
1772791608033963300,12.02596337890625,1.894837498664856,-1.6721974611282349,-2.135986566543579
1772791608054064000,12.046064208984374,1.2082751989364624,-1.3038825988769531,-2.414552927017212
1772791608074164700,12.066164794921875,0.42424118518829346,-0.6924213171005249,-2.467816114425659
1772791608094265600,12.086265625,0.025566324591636658,0.24288007616996765,-2.2478392124176025
1772791608114366500,12.106366455078126,-0.13102741539478302,0.8905603289604187,-1.7010927200317383
1772791608134467300,12.12646728515625,-0.4937496483325958,1.296425700187683,-1.176716685295105
1772791608154568200,12.146568115234375,-1.1342393159866333,1.5600783824920654,-0.7309039235115051
1772791608174669300,12.16666943359375,-1.6745942831039429,1.5869762897491455,-0.060320548713207245
1772791608194770400,12.1867705078125,-1.8969680070877075,1.2399667501449585,0.8456860780715942
1772791608214871600,12.20687158203125,-1.8053553104400635,0.6950844526290894,1.66061270236969
1772791608234972700,12.22697265625,-1.671132206916809,0.4838959574699402,1.886182188987732
1772791608255073500,12.247073486328125,-1.6724637746810913,0.7054707407951355,1.6456990242004395
1772791608275174700,12.267174560546875,-1.6676700115203857,1.004809856414795,1.4222599267959595
1772791608295275800,12.28727587890625,-1.520397424697876,1.1720561981201172,1.5849789381027222
1772791608315377000,12.307376953125,-1.5584805011749268,1.4133384227752686,1.9389127492904663
1772791608335478000,12.32747802734375,-1.9374480247497559,1.9694058895111084,2.1128170490264893
1772791608355579000,12.347578857421874,-2.506831407546997,2.5209460258483887,2.119741201400757
1772791608375680000,12.367679931640625,-2.173936605453491,1.8998974561691284,1.8174726963043213
1772791608395781000,12.387781005859376,-2.890592575073242,2.374206066131592,1.9418421983718872
1772791608415882200,12.40788232421875,-4.184887886047363,2.851177930831909,1.739442229270935
1772791608435983400,12.4279833984375,-4.655201435089111,3.543865442276001,0.7641934156417847
1772791608456084200,12.448084228515626,-5.855753421783447,3.457312822341919,1.7213326692581177
1772791608476185300,12.468185302734375,-7.648858547210693,1.9949722290039062,3.270225763320923
1772791608496286500,12.488286376953125,-8.667250633239746,1.0410287380218506,3.036400556564331
1772791608516387600,12.5083876953125,-8.4075927734375,0.3470095992088318,2.6513078212738037
1772791608536488700,12.52848876953125,-7.4866719245910645,-0.006657897029072046,2.5812666416168213
1772791608556589600,12.548589599609375,-6.391847610473633,0.5297023057937622,1.853958010673523
1772791608576690700,12.568690673828126,-5.4453606605529785,1.4101425409317017,1.0571409463882446
1772791608596791800,12.588791748046875,-4.112982273101807,1.540371060371399,0.8885629177093506
1772791608616893000,12.608892822265625,-2.355297565460205,1.074318289756775,0.8379629254341125
1772791608636994000,12.628994140625,-0.7161234021186829,0.8873645067214966,0.45553332567214966
1772791608657095400,12.649095458984375,0.7566034197807312,0.7566034197807312,-0.05153212323784828
1772791608677197000,12.669197021484376,2.325470209121704,0.2335590273141861,-0.3687143325805664
1772791608697298700,12.689298583984375,3.774761199951172,-0.20586217939853668,-0.523443877696991
1772791608717400000,12.709400146484375,5.01179838180542,-0.14514215290546417,-0.4941491186618805
1772791608737501700,12.729501708984374,5.761211395263672,0.32463905215263367,-0.5439502000808716
1772791608757603300,12.749603271484375,5.8498945236206055,0.09134634584188461,-0.8230492472648621
1772791608777705000,12.769705078125,5.248020648956299,-1.239700436592102,-0.9146618843078613
1772791608797806300,12.789806396484375,4.96838903427124,-1.8642112016677856,-0.6153228282928467
1772791608817908000,12.809907958984375,5.334839820861816,-0.8343676328659058,-0.19907112419605255
1772791608838009600,12.830009521484374,5.094089984893799,1.1097382307052612,-0.7101312875747681
1772791608858111200,12.850111328125,3.630950689315796,2.4975104331970215,-3.1423943042755127
1772791608878212600,12.870212646484376,0.7147918343544006,3.1539790630340576,-4.444678783416748
1772791608898314200,12.890314208984375,-1.4564815759658813,3.1771485805511475,-3.867039680480957
1772791608918416000,12.910415771484375,-2.5209460258483887,4.491683483123779,-2.4441139698028564
1772791608938517500,12.930517578125,-2.8730156421661377,5.342296600341797,1.7977653741836548
1772791608958619000,12.950618896484375,1.2559456825256348,-0.5715138912200928,5.1096696853637695
1772791608978720500,12.970720458984376,2.9616990089416504,-3.559311866760254,4.808999061584473
1772791608998822100,12.990822265625,-0.2942790389060974,1.4961626529693604,1.9804580211639404
1772791609018923500,13.010923583984376,-1.1145319938659668,2.812828302383423,0.2954774796962738
1772791609039025200,13.031025146484374,-1.8519606590270996,0.6506096720695496,0.9455545544624329
1772791609059126800,13.051126708984375,-2.432262897491455,-1.0551434755325317,2.08884859085083
1772791609079228400,13.071228515625,-2.525207281112671,-0.7880287170410156,2.228930711746216
1772791609099329800,13.091329833984375,-2.5286693572998047,-0.7957518696784973,1.8574200868606567
1772791609119431400,13.111431396484376,-2.3244049549102783,-1.4247899055480957,1.4462283849716187
1772791609139533000,13.131532958984375,-2.3747386932373047,-1.5635405778884888,1.231577754020691
1772791609159634000,13.151634033203125,-2.3430471420288086,-1.4564815759658813,1.1982883214950562
1772791609179734800,13.17173486328125,-1.6871111392974854,-1.7702016830444336,0.8289082050323486
1772791609199835600,13.191835693359375,-0.9491497874259949,-3.020554780960083,0.14341109991073608
1772791609219936800,13.211936767578125,-0.36245590448379517,-4.427767753601074,-0.1074584573507309
1772791609240037600,13.23203759765625,0.23861902952194214,-5.871732711791992,0.9050745368003845
1772791609260138500,13.252138427734375,0.6705833673477173,-7.369759559631348,2.652106761932373
1772791609280239400,13.2722392578125,0.8029423952102661,-7.721828937530518,3.3546481132507324
1772791609300340500,13.292340576171876,0.9976192712783813,-6.690121173858643,2.6816678047180176
1772791609320441300,13.31244140625,1.6359784603118896,-4.747613430023193,1.3913673162460327
1772791609340542200,13.332542236328125,2.591519832611084,-2.4940481185913086,0.05978791415691376
1772791609360643000,13.35264306640625,3.540403366088867,-0.29268115758895874,-1.2089409828186035
1772791609380744000,13.372743896484375,3.951328754425049,1.197622537612915,-2.2776665687561035
1772791609400845000,13.392844970703125,3.791539192199707,1.5121415853500366,-2.5245413780212402
1772791609420946000,13.41294580078125,3.4402685165405273,0.42770329117774963,-1.518932580947876
1772791609441046800,13.433046875,2.6008408069610596,-1.3387699127197266,0.5580649375915527
1772791609461147600,13.453147705078125,1.5773890018463135,-1.971802830696106,2.186053991317749
1772791609481248800,13.473248779296876,1.0673940181732178,-1.6394405364990234,2.571413040161133
1772791609501349600,13.493349609375,0.5589970350265503,-0.9832382202148438,1.3357073068618774
1772791609521450500,13.513450439453125,0.6386255025863647,0.4306327700614929,-0.7157239317893982
1772791609541551400,13.53355126953125,1.17258882522583,2.1483702659606934,-1.8608821630477905
1772791609561652200,13.55365234375,0.7816371321678162,3.0208210945129395,-1.484311580657959
1772791609581753300,13.57375341796875,-1.0327730178833008,2.796849489212036,-0.5439502000808716
1772791609601854200,13.593854248046876,-2.894587278366089,2.8037736415863037,0.26751428842544556
1772791609621955000,13.613955078125,-3.954524517059326,2.9004461765289307,0.8813723921775818
1772791609642056000,13.634055908203125,-4.046669960021973,2.429866075515747,1.238502025604248
1772791609662156000,13.654156005859376,-3.5281527042388916,2.1765997409820557,1.1684609651565552
1772791609682256100,13.674256103515624,-3.0194895267486572,2.0607523918151855,0.850479781627655
1772791609702356200,13.694356201171875,-2.4354586601257324,1.792838454246521,0.42304277420043945
1772791609722456300,13.714456298828125,-1.480716347694397,1.6511584520339966,-0.12689951062202454
1772791609742556400,13.734556396484376,-0.26338639855384827,1.9952385425567627,-0.9357008337974548
1772791609762656500,13.754656494140624,0.5363602042198181,2.970487356185913,-2.14717173576355
1772791609782756600,13.774756591796875,1.0396971702575684,3.5079128742218018,-3.0824732780456543
1772791609802857000,13.79485693359375,1.711345911026001,2.5803346633911133,-3.371692180633545
1772791609822957000,13.81495703125,2.2777998447418213,1.1078740358352661,-3.2574427127838135
1772791609843057200,13.83505712890625,2.6013734340667725,0.5113264918327332,-2.976745843887329
1772791609863157200,13.8551572265625,2.766489267349243,0.3403517007827759,-2.696315050125122
1772791609883257300,13.87525732421875,2.4855260848999023,-0.060187388211488724,-2.4084277153015137
1772791609903357400,13.895357421875,2.2256019115448,-1.0548771619796753,-1.6901737451553345
1772791609923457500,13.91545751953125,2.1150808334350586,-2.328399658203125,-0.7087997198104858
1772791609943557600,13.9355576171875,2.0397133827209473,-3.2911317348480225,0.17616795003414154
1772791609963658000,13.955657958984375,2.0447733402252197,-3.815507650375366,0.5463470220565796
1772791609983758000,13.975758056640625,2.0793943405151367,-3.6517233848571777,0.25845956802368164
1772791610003858200,13.995858154296876,1.9526280164718628,-2.3968429565429688,-0.5141227841377258
1772791610023958300,14.015958251953125,2.003227949142456,-0.8378297686576843,-1.1580746173858643
1772791610044058400,14.036058349609375,2.4849934577941895,0.2287653386592865,-1.0483524799346924
1772791610064158500,14.056158447265625,2.7587661743164062,0.7976160645484924,-0.601474404335022
1772791610084258600,14.076258544921876,2.691654682159424,0.30360010266304016,-0.7966839671134949
1772791610104358700,14.096358642578124,2.204296588897705,0.01784316450357437,-1.3772525787353516
1772791610124458800,14.116458740234375,2.02533221244812,0.6633928418159485,-2.2742044925689697
1772791610144559400,14.136559326171875,1.7933712005615234,2.33026385307312,-2.921085834503174
1772791610164660200,14.15666015625,1.3036162853240967,3.7177696228027344,-1.6566178798675537
1772791610184761300,14.17676123046875,0.40613171458244324,1.9281269311904907,0.8472839593887329
1772791610204862200,14.1968623046875,-0.6474139094352722,-0.07643266022205353,3.072885751724243
1772791610224963300,14.21696337890625,-1.1696593761444092,-0.35819485783576965,4.087283134460449
1772791610245064200,14.237064208984375,-1.3438299894332886,0.07110633701086044,4.3136515617370605
1772791610265165300,14.257165283203125,-1.29216468334198,-0.03382211551070213,4.1501336097717285
1772791610285266200,14.27726611328125,-1.1616698503494263,-0.904142439365387,3.516035318374634
1772791610305367300,14.2973671875,-0.8482160568237305,-1.2154656648635864,2.53279709815979
1772791610325468200,14.31746826171875,-0.306263267993927,-0.7741802930831909,1.2576767206192017
1772791610345569300,14.3375693359375,0.3225085437297821,0.008255792781710625,-0.052863702178001404
1772791610365670100,14.357670166015625,0.8500803112983704,0.5858949422836304,-0.9649956226348877
1772791610385771300,14.377771240234376,1.1270488500595093,0.6929539442062378,-1.3993568420410156
1772791610405872000,14.3978720703125,1.2679299116134644,0.40506646037101746,-1.5309168100357056
1772791610425973200,14.41797314453125,1.3515530824661255,-0.0732368677854538,-1.5197315216064453
1772791610446074000,14.43807421875,1.3432973623275757,-0.49454858899116516,-1.50668203830719
1772791610466175000,14.458175048828124,1.323856234550476,-0.8021434545516968,-1.4076125621795654
1772791610486276000,14.478276123046875,1.2460919618606567,-1.0178593397140503,-1.1583409309387207
1772791610506377000,14.498376953125,1.001613974571228,-1.3427646160125732,-0.6914891600608826
1772791610526478000,14.51847802734375,0.6833665370941162,-1.6112110614776611,-0.05339633300900459
1772791610546579000,14.538578857421875,0.3957453966140747,-1.6530226469039917,0.8600671291351318
1772791610566680000,14.55868017578125,0.08362318575382233,-1.7246615886688232,2.2513012886047363
1772791610586781000,14.578781005859375,-0.4420843720436096,-1.9939069747924805,3.8654417991638184
1772791610606882000,14.598882080078125,0.721716046333313,-2.875678777694702,5.154144287109375
1772791610626983000,14.61898291015625,4.548941612243652,-5.638972282409668,5.209804534912109
1772791610647084000,14.639083984375,5.730585098266602,-4.872781753540039,2.1165454387664795
1772791610667185400,14.659185302734375,2.330796480178833,0.6929539442062378,-4.127230167388916
1772791610687286800,14.679286865234374,-1.0247834920883179,4.4488067626953125,-7.793601036071777
1772791610707388200,14.69938818359375,-2.814692497253418,3.1862032413482666,-4.348006248474121
1772791610727489500,14.719489501953126,-3.9563887119293213,1.5057499408721924,0.6715154647827148
1772791610747591000,14.7395908203125,-5.198752403259277,1.7227973937988281,2.811363697052002
1772791610767692300,14.7596923828125,-5.415799617767334,1.6106784343719482,3.8105807304382324
1772791610787793700,14.779793701171876,-4.873847007751465,0.16911058127880096,4.096870422363281
1772791610807895000,14.79989501953125,-4.052794933319092,-1.0506161451339722,3.366365909576416
1772791610827996400,14.819996337890625,-2.864227294921875,-1.5164026021957397,2.2012338638305664
1772791610848097800,14.840097900390624,-1.1430277824401855,-1.8583521842956543,0.8824376463890076
1772791610868199200,14.86019921875,0.8372971415519714,-1.7640763521194458,-0.4342280328273773
1772791610888300500,14.880300537109376,2.4642207622528076,-1.317198395729065,-1.126915693283081
1772791610908402000,14.90040185546875,3.953192949295044,-1.0703234672546387,-0.8115976452827454
1772791610928503300,14.92050341796875,5.992107391357422,-1.6506258249282837,0.32637012004852295
1772791610948604700,14.940604736328124,8.813191413879395,-2.511625051498413,1.8278590440750122
1772791610968706000,14.9607060546875,11.199115753173828,-2.8181545734405518,3.1368017196655273
1772791610988807400,14.980807373046876,12.671043395996094,-2.3704776763916016,3.1397311687469482
1772791611008908800,15.00090869140625,14.2489652633667,-2.169675588607788,2.386057138442993
1772791611029010200,15.02101025390625,15.494524002075195,-2.275935411453247,1.8851169347763062
1772791611049111600,15.041111572265624,14.815152168273926,-2.502570390701294,2.0275959968566895
1772791611069213000,15.061212890625,12.15412425994873,-3.010434627532959,2.5903213024139404
1772791611089314300,15.081314208984375,8.522374153137207,-3.3526506423950195,4.035085201263428
1772791611109415700,15.101415771484374,5.24562406539917,-2.5608935356140137,4.856136798858643
1772791611129517000,15.12151708984375,4.216312885284424,-0.07936213165521622,2.5493087768554688
1772791611149618700,15.14161865234375,4.550006866455078,3.4882054328918457,-1.7650084495544434
1772791611169720600,15.161720458984375,4.385157108306885,5.392097473144531,-4.099533557891846
1772791611189822500,15.181822509765626,4.090878486633301,3.9404096603393555,-3.41163969039917
1772791611209924400,15.20192431640625,3.677023410797119,0.014913689345121384,-0.8044071197509766
1772791611230026200,15.222026123046875,3.38700532913208,-2.8048388957977295,2.3540992736816406
1772791611250128100,15.242128173828124,3.326019048690796,-3.1587727069854736,4.502735614776611
1772791611270230300,15.262230224609375,3.2578420639038086,-2.0029616355895996,4.928042411804199
1772791611290332200,15.282332275390624,3.1087052822113037,-0.1856221705675125,4.141078948974609
1772791611310434000,15.30243408203125,2.2849903106689453,1.5784542560577393,2.8630287647247314
1772791611330536000,15.322535888671876,1.090829849243164,2.7928545475006104,1.8949706554412842
1772791611350637800,15.342637939453125,0.10945582389831543,3.4170989990234375,1.2155988216400146
1772791611370739700,15.36273974609375,-0.6250433921813965,3.278348445892334,0.8376966118812561
1772791611390841600,15.382841552734375,-0.7896265983581543,2.707367181777954,0.6233122944831848
1772791611410943500,15.402943603515626,-0.9475519061088562,1.803224802017212,0.17909742891788483
1772791611431045600,15.423045654296875,-0.9725856184959412,1.140364646911621,-1.0070735216140747
1772791611451147300,15.443147216796875,-0.6953507661819458,0.6615286469459534,-3.105109930038452
1772791611471249400,15.46324951171875,-0.19734007120132446,0.0282294824719429,-5.083037853240967
1772791611491351300,15.483351318359375,-0.22556954622268677,-0.34248220920562744,-6.243642807006836
1772791611511453200,15.503453125,-0.9664603471755981,0.21864533424377441,-5.87426233291626
1772791611531555000,15.52355517578125,-1.810149073600769,1.3129372596740723,-4.945619106292725
1772791611551657000,15.543656982421876,-2.4216103553771973,2.3030996322631836,-3.84733247756958
1772791611571758800,15.5637587890625,-2.8101651668548584,2.8615641593933105,-1.8776601552963257
1772791611591860700,15.58386083984375,-3.22109055519104,2.5680840015411377,0.6776407361030579
1772791611611963000,15.603962890625,-4.12017297744751,1.8828532695770264,2.7317352294921875
1772791611632064800,15.624064697265625,-5.127379894256592,0.4689822793006897,4.160253524780273
1772791611652166700,15.644166748046874,-5.9471001625061035,-1.6599469184875488,5.477451801300049
1772791611672268500,15.6642685546875,-7.501319408416748,-3.934018135070801,4.6268391609191895
1772791611692370400,15.684370361328124,-8.830768585205078,-5.4834442138671875,2.233724355697632
1772791611712472000,15.70447216796875,-7.789739608764648,-6.876542568206787,0.10879004001617432
1772791611732574000,15.724573974609376,-7.5439300537109375,-5.444561958312988,-1.040629267692566
1772791611752675800,15.74467578125,-9.08696460723877,-2.6700830459594727,-2.3285329341888428
1772791611772777700,15.76477783203125,-8.349002838134766,-2.286055564880371,-0.1854890137910843
1772791611792879600,15.784879638671875,-6.657896995544434,-4.843753337860107,2.9463858604431152
1772791611812981500,15.8049814453125,-5.053610324859619,-4.953475475311279,3.9794249534606934
1772791611833083400,15.82508349609375,-2.6168198585510254,-2.667419910430908,2.8395931720733643
1772791611853185300,15.845185302734375,0.32037800550460815,0.3579285442829132,0.2786995768547058
1772791611873287200,15.865287109375,2.3286659717559814,3.02002215385437,-1.6289210319519043
1772791611893389000,15.88538916015625,3.02002215385437,3.8866140842437744,-1.5596789121627808
1772791611913491000,15.905490966796876,2.6162872314453125,2.7009756565093994,0.31065747141838074
1772791611933592600,15.925592529296875,1.9989670515060425,0.7201181650161743,2.411090850830078
1772791611953694500,15.945694580078126,1.688709020614624,-0.3693801164627075,3.708315372467041
1772791611973796400,15.96579638671875,1.7425048351287842,-0.33822116255760193,4.0332207679748535
1772791611993898200,15.985898193359375,1.9470354318618774,0.3656516969203949,3.582880735397339
1772791612014000000,16.006000244140626,2.2911155223846436,0.8138613104820251,3.0324058532714844
1772791612034102000,16.02610205078125,2.632798910140991,1.0921614170074463,2.57088041305542
1772791612054204000,16.046203857421876,2.8133609294891357,1.3217257261276245,2.1082897186279297
1772791612074305800,16.066305908203127,2.720416784286499,1.5249247550964355,1.6741948127746582
1772791612094407700,16.08640771484375,2.492982864379883,1.733183741569519,1.1780482530593872
1772791612114509600,16.106509521484377,2.331329107284546,1.7614132165908813,0.7932218313217163
1772791612134611500,16.126611572265624,1.9915101528167725,1.7952353954315186,0.6278396844863892
1772791612154711600,16.146711669921874,0.14381057024002075,1.1251846551895142,-0.1290300488471985
1772791612174811100,16.16681103515625,-1.9763301610946655,-1.3467594385147095,-3.38474178314209
1772791612215010800,16.2070107421875,1.9438396692276,1.0330393314361572,-3.969571352005005
1772791612235110400,16.2271103515625,0.46019384264945984,-0.11451582610607147,-1.5618095397949219
1772791612255210200,16.247210205078126,-1.9606175422668457,-2.713758945465088,0.45260384678840637
1772791612275310000,16.26731005859375,-4.905272006988525,-3.741471767425537,0.08881634473800659
1772791612295410000,16.287409912109375,-6.819817066192627,-1.267663598060608,-2.15090012550354
1772791612315509500,16.307509521484373,-6.7479119300842285,2.037849187850952,-3.6225616931915283
1772791612335609300,16.327609375,-6.308224201202393,3.2439937591552734,-3.1905972957611084
1772791612355709200,16.347709228515626,-5.493297576904297,2.2234714031219482,-1.3753883838653564
1772791612375808800,16.367808837890625,-4.767853260040283,0.6767086386680603,-0.42197751998901367
1772791612395908600,16.38790869140625,-4.100465774536133,-0.06444844603538513,-0.6456828713417053
1772791612416008400,16.408008544921874,-3.3190948963165283,-0.24580955505371094,-1.4835126399993896
1772791612436108300,16.4281083984375,-2.6365272998809814,-0.8663255572319031,-2.437189817428589
1772791612456208000,16.448207763671874,-1.2974909543991089,-1.482580542564392,-2.0558254718780518
1772791612476307700,16.4683076171875,0.207726389169693,-1.2082751989364624,-0.34181642532348633
1772791612496407600,16.488407470703127,1.0628666877746582,-0.3051980137825012,0.9135966300964355
1772791612516507100,16.508507080078125,1.7821859121322632,0.2631200850009918,1.1578083038330078
1772791612536607000,16.52860693359375,2.394312858581543,0.30652958154678345,1.2350399494171143
1772791612576806400,16.568806396484376,1.5512900352478027,-0.8609992265701294,2.8899266719818115
1772791612596906200,16.58890625,0.7938876152038574,-2.122004985809326,3.819369316101074
1772791612617006000,16.609006103515625,0.4846948981285095,-2.8586347103118896,4.3381524085998535
1772791612637105700,16.629105712890624,0.5888243913650513,-2.950247287750244,4.212451457977295
1772791612657205800,16.649205810546874,0.9488834738731384,-2.2506356239318848,3.5802175998687744
1772791612677305600,16.6693056640625,1.2958930730819702,-1.3701951503753662,2.903775215148926
1772791612697405400,16.689405517578123,1.0700571537017822,-0.40852856636047363,2.4196128845214844
1772791612717505500,16.709505615234374,0.7105307579040527,-0.4250401556491852,1.6941684484481812
1772791612737605400,16.72960546875,1.8831195831298828,-0.47350963950157166,0.949815571308136
1772791612757705200,16.749705322265626,4.795816421508789,-1.5137394666671753,1.8896443843841553
1772791612777805300,16.769805419921877,5.471992492675781,-0.6130591630935669,2.327467679977417
1772791612797905200,16.7899052734375,2.9736831188201904,3.1454567909240723,-2.191380262374878
1772791612818005000,16.8100048828125,-0.5592633485794067,8.641950607299805,-6.859897613525391
1772791612838105000,16.83010498046875,-1.6042869091033936,8.088545799255371,-5.191694736480713
1772791612858205000,16.850204833984375,-1.5680679082870483,1.4950973987579346,-0.6587323546409607
1772791612878304800,16.8703046875,-2.5494418144226074,-2.4415841102600098,1.2938957214355469
1772791612898404900,16.89040478515625,-2.3965766429901123,-1.8218669891357422,0.2294311374425888
1772791612918504700,16.910504638671874,-1.039430856704712,0.29214853048324585,-1.9908443689346313
1772791612938604800,16.930604736328124,0.12197267264127731,1.824796438217163,-3.4071121215820312
1772791612958704600,16.95070458984375,0.5984117984771729,2.050898551940918,-3.688075542449951
1772791612978804500,16.970804443359373,0.5398222804069519,1.575258493423462,-3.3487889766693115
1772791612998904600,16.990904541015624,0.2577937841415405,1.2159982919692993,-2.503502368927002
1772791613019004400,17.01100439453125,0.2886864244937897,1.1936278343200684,-1.5077474117279053
1772791613039104300,17.031104248046876,0.5472791194915771,1.2242541313171387,-0.8392944931983948
1772791613059204400,17.051204345703123,0.9590035080909729,0.4442148804664612,-0.28482484817504883
1772791613079304200,17.07130419921875,1.766206979751587,-0.5960149168968201,0.764992356300354
1772791613099404000,17.091404052734376,2.179795503616333,-1.3531509637832642,1.8994979858398438
1772791613119504100,17.111504150390626,1.6839152574539185,-1.7651416063308716,2.6393234729766846
1772791613139604200,17.131604248046877,0.9900292754173279,-2.115879774093628,3.100848913192749
1772791613159706400,17.151706298828124,0.5087965130805969,-2.29963755607605,3.5527870655059814
1772791613179808300,17.171808349609375,0.09693898260593414,-2.3411829471588135,3.8326849937438965
1772791613199910400,17.191910400390626,0.48070016503334045,-2.6335978507995605,4.101397514343262
1772791613220012500,17.212012451171876,1.3864405155181885,-2.5853946208953857,4.356528282165527
1772791613240114700,17.23211474609375,1.8365143537521362,-1.910017490386963,4.406063079833984
1772791613260216600,17.252216552734374,1.3944299221038818,-1.084172010421753,4.116844177246094
1772791613280318700,17.272318603515625,0.3568632900714874,-0.9755150675773621,2.1482369899749756
1772791613300420900,17.2924208984375,0.7395591735839844,-0.23036323487758636,-1.2049461603164673
1772791613320522800,17.312522705078123,2.756103038787842,0.43622541427612305,-4.2497358322143555
1772791613340625000,17.332625,3.069556951522827,0.6865623593330383,-5.0279107093811035
1772791613360727000,17.35272705078125,1.1768498420715332,2.0487680435180664,-4.70460319519043
1772791613380829200,17.3728291015625,-1.743037462234497,5.026712417602539,-3.260105848312378
1772791613400931000,17.39293115234375,-2.2570271492004395,5.020853519439697,-0.43635857105255127
1772791613421033200,17.413033203125,-0.8966856002807617,2.9092347621917725,1.0789787769317627
1772791613441135400,17.43313525390625,-0.3829622268676758,1.448225736618042,0.8795081973075867
1772791613461237500,17.453237548828124,-0.7342329025268555,0.5384907126426697,0.8286418914794922
1772791613481339400,17.47333935546875,-0.6287717819213867,-0.24048323929309845,1.181244134902954
1772791613501441500,17.493441650390626,-0.001864211168140173,-0.827177107334137,0.9684576988220215
1772791613521543700,17.513543701171876,0.3211769461631775,-1.198155164718628,0.5482112169265747
1772791613541645600,17.5336455078125,0.4018706679344177,-0.8583360910415649,0.11518161743879318
1772791613581849900,17.573849853515625,0.8243808150291443,1.3760541677474976,-0.5820333361625671
1772791613601952000,17.593951904296876,1.1679283380508423,2.2892513275146484,-0.5950828194618225
1772791613622054000,17.614053955078123,1.7061526775360107,2.451171398162842,-0.25419852137565613
1772791613642155800,17.63415576171875,2.14717173576355,1.8735321760177612,0.12823109328746796
1772791613662257200,17.654257080078125,2.2747371196746826,0.8088013529777527,0.46698489785194397
1772791613682358500,17.674358642578124,1.8792580366134644,-0.29827380180358887,0.8603334426879883
1772791613702459600,17.694459716796874,1.2638020515441895,-1.5068153142929077,1.4595441818237305
1772791613722561000,17.71456103515625,0.838229238986969,-2.4754061698913574,2.2054948806762695
1772791613742662400,17.734662353515624,0.5474122762680054,-3.088731527328491,2.7554373741149902
1772791613762763500,17.754763427734375,0.19534270465373993,-3.1217546463012695,2.7855310440063477
1772791613782865000,17.774864990234374,-0.2972085177898407,-2.826144218444824,2.231327533721924
1772791613802966000,17.794966064453124,-0.7861644625663757,-2.543316602706909,0.7902923822402954
1772791613823067400,17.8150673828125,-1.0998846292495728,-2.176866054534912,-2.27793288230896
1772791613843168800,17.835168701171874,0.5858949422836304,-1.4666016101837158,-3.514437437057495
1772791613863270000,17.855269775390624,2.239450216293335,-2.570747137069702,-2.156226634979248
1772791613883371300,17.875371337890623,1.5094784498214722,-3.769434928894043,0.3423490524291992
1772791613903472600,17.89547265625,-0.6543381214141846,-3.418696880340576,0.7644597291946411
1772791613923573800,17.91557373046875,-2.386190414428711,-0.11824425309896469,-1.6214642524719238
1772791613963776500,17.955776611328126,-1.395761489868164,4.60300350189209,-1.3431642055511475
1772791613983877600,17.975877685546877,0.5494096875190735,5.785712718963623,-1.3450284004211426
1772791614003979000,17.99597900390625,1.7515594959259033,6.886129856109619,-2.6941845417022705
1772791614024080400,18.016080322265626,1.239700436592102,4.292479515075684,-2.5802013874053955
1772791614044181500,18.036181396484373,-0.28495800495147705,-0.4828307032585144,-0.9724524617195129
1772791614064283000,18.056282958984376,-1.11879301071167,-4.085019111633301,0.5122585892677307
1772791614084384300,18.07638427734375,-0.9166592359542847,-4.862395286560059,1.2393009662628174
1772791614104485400,18.0964853515625,-0.21225376427173615,-3.049849510192871,1.2369041442871094
1772791614124586800,18.116586669921876,0.6932202577590942,-0.5637907385826111,1.0118671655654907
1772791614144687900,18.13668798828125,1.5651384592056274,1.0426266193389893,0.7918902635574341
1772791614164788700,18.156788818359374,2.1156134605407715,1.6903069019317627,0.5756417512893677
1772791614184889600,18.1768896484375,2.2443771362304688,1.2564783096313477,0.39907434582710266
1772791614204990500,18.196990478515627,2.0611517429351807,-0.15819163620471954,0.5633912682533264
1772791614225091000,18.217091064453125,1.6989622116088867,-1.696432113647461,1.0142639875411987
1772791614245192000,18.23719189453125,1.4028189182281494,-2.6306681632995605,1.4235914945602417
1772791614265292800,18.257292724609375,1.3420988321304321,-2.5792694091796875,1.6044200658798218
1772791614285393700,18.2773935546875,1.322657823562622,-1.5393058061599731,1.4166673421859741
1772791614305494500,18.29749462890625,0.9660608768463135,0.1267663538455963,0.7506113052368164
1772791614325595400,18.317595458984375,0.9556745290756226,1.1795130968093872,-0.7383607625961304
1772791614345696300,18.3376962890625,1.8749970197677612,0.1464737355709076,-2.1415791511535645
1772791614365797000,18.357797119140624,0.49281755089759827,-2.1113522052764893,-1.2006851434707642
1772791614385898000,18.37789794921875,-1.263535737991333,-3.660245418548584,0.49335017800331116
1772791614405998800,18.397998779296874,-3.691537618637085,-3.012831449508667,0.6438186168670654
1772791614426099700,18.418099609375,-6.154693126678467,-0.8407592177391052,-0.8771113753318787
1772791614446200600,18.43820068359375,-6.723011493682861,1.6596806049346924,-2.785797357559204
1772791614466301200,18.45830126953125,-4.516584396362305,1.7211995124816895,-2.9213521480560303
1772791614486402000,18.478402099609376,-2.060086488723755,0.8319708108901978,-1.8536916971206665
1772791614506503000,18.4985029296875,-0.6070670485496521,0.053529493510723114,-1.0648640394210815
1772791614526603800,18.518603759765625,-0.22676797211170197,-0.3619232773780823,-1.2965588569641113
1772791614546704600,18.53870458984375,-0.37137749791145325,-0.23222744464874268,-1.9564895629882812
1772791614566805500,18.558805419921875,-0.35406696796417236,0.09400950372219086,-2.303499221801758
1772791614586906400,18.57890625,-0.4850943684577942,0.4402201473712921,-1.7631442546844482
1772791614607007200,18.59900732421875,-0.8273102641105652,0.28921905159950256,-0.5543364882469177
1772791614627108000,18.619108154296875,-1.4134715795516968,-0.07297055423259735,0.30479851365089417
1772791614647208700,18.639208740234373,-1.7615463733673096,-0.4186485707759857,0.6840323209762573
1772791614667309000,18.65930908203125,-1.4432989358901978,-0.8617981672286987,0.7727155089378357
1772791614687409400,18.679409423828126,-0.9338366389274597,-1.4223930835723877,0.7391597032546997
1772791614707509500,18.699509521484377,-0.8062713146209717,-1.9856512546539307,0.6302365064620972
1772791614727609900,18.71960986328125,-0.7037397027015686,-2.343313455581665,0.911466121673584
1772791614747710200,18.739710205078126,-0.5207806825637817,-2.4218766689300537,1.441701054573059
1772791614767810600,18.759810546875,-0.32210904359817505,-2.302833318710327,1.878459095954895
1772791614787911000,18.779910888671875,-0.13195951282978058,-1.9720691442489624,2.0592875480651855
1772791614808011300,18.80001123046875,-0.01105210930109024,-1.5584805011749268,1.9453043937683105
1772791614828111600,18.820111572265624,-0.03981422260403633,-1.1046782732009888,1.672863245010376
1772791614848212000,18.8402119140625,0.06298370659351349,-0.5201148986816406,1.6334484815597534
1772791614868312300,18.860312255859377,1.2345073223114014,-0.5294359922409058,1.39456307888031
1772791614888412700,18.88041259765625,1.8672738075256348,-0.6407560110092163,1.3239893913269043
1772791614908513000,18.900512939453126,2.1058928966522217,-1.3496888875961304,1.6036211252212524
1772791614928613400,18.92061328125,1.479517936706543,-2.012016534805298,1.8574200868606567
1772791614948713700,18.940713623046875,0.29148274660110474,-2.402435541152954,1.8488980531692505
1772791614968814000,18.96081396484375,-1.064597725868225,-1.8660753965377808,1.6510252952575684
1772791614988914400,18.98091455078125,-1.7871127128601074,-0.5355612635612488,1.0922945737838745
1772791615009014500,19.0010146484375,-1.921069622039795,0.5358275771141052,0.4701806902885437
1772791615029115000,19.021114990234373,-1.9421085119247437,0.5656549334526062,0.26218798756599426
1772791615049215200,19.04121533203125,-2.0699400901794434,-0.3302316963672638,0.17270584404468536
1772791615069315600,19.061315673828126,-2.518948793411255,-1.8897775411605835,0.4179827868938446
1772791615089416000,19.081416015625,-2.866224765777588,-3.4647696018218994,1.0028125047683716
1772791615109516300,19.101516357421875,-3.0079047679901123,-4.20006799697876,1.5852452516555786
1772791615129616600,19.12161669921875,-2.9884636402130127,-4.182490825653076,1.8267937898635864
1772791615149717200,19.14171728515625,-2.7365288734436035,-3.4671664237976074,1.7234631776809692
1772791615169818000,19.161818115234375,-2.2465076446533203,-2.290849208831787,1.3455610275268555
1772791615189919200,19.181919189453126,-1.5945663452148438,-1.076715111732483,0.8246471285820007
1772791615210020000,19.20202001953125,-1.0267808437347412,-0.2503369152545929,0.4997417628765106
1772791615230121000,19.222120849609375,-0.6097301840782166,0.10359688103199005,0.3415501117706299
1772791615250221800,19.242221923828126,-0.318114310503006,-0.0804273933172226,0.16258583962917328
1772791615270323000,19.262322998046876,-0.11837740987539291,-0.8072034120559692,0.0366184338927269
1772791615290423800,19.282423828125,-0.0600542314350605,-1.939312219619751,0.057923704385757446
1772791615310524700,19.302524658203126,-0.06910897046327591,-3.126814842224121,0.1820269078016281
1772791615330625500,19.32262548828125,-0.02436790242791176,-4.094872951507568,0.5388901829719543
1772791615350726700,19.3427265625,-0.11544793099164963,-4.655201435089111,1.452620029449463
1772791615370827500,19.36282763671875,-0.9703218936920166,-4.735096454620361,2.562624454498291
1772791615390928400,19.382928466796876,-1.7801885604858398,-4.765722751617432,2.5383899211883545
1772791615411029200,19.403029296875,0.14394372701644897,-3.871433973312378,2.1511664390563965
1772791615431130400,19.42313037109375,1.0286450386047363,-3.3915326595306396,0.9625987410545349
1772791615451231200,19.443231201171876,0.6866955161094666,-3.897000312805176,2.0323896408081055
1772791615471332000,19.46333203125,-0.35087117552757263,-5.719399929046631,4.683564186096191
1772791615491433000,19.483432861328126,-1.2739219665527344,-8.924511909484863,5.6699981689453125
1772791615511533800,19.503533935546876,-2.5205466747283936,-12.328560829162598,4.288884162902832
1772791615531635000,19.523635009765623,-3.137866973876953,-13.765335083007812,2.605501413345337
1772791615551735800,19.54373583984375,-1.3194620609283447,-13.258003234863281,1.5016220808029175
1772791615571836700,19.563836669921876,1.3673988580703735,-9.881916999816895,1.2896347045898438
1772791615591937500,19.5839375,3.032139539718628,-6.678136825561523,2.3455772399902344
1772791615612038700,19.60403857421875,3.1905972957611084,-3.836812973022461,2.578603506088257
1772791615632139500,19.624139404296876,2.3314623832702637,-2.1209397315979004,1.6568843126296997
1772791615652241000,19.644240966796875,0.726642906665802,-1.373923659324646,0.5554017424583435
1772791615672342500,19.664342529296874,-0.31065747141838074,-0.6258423328399658,-0.374573290348053
1772791615692444200,19.684444091796873,-0.725311279296875,0.49082016944885254,-0.9476850628852844
1772791615712545800,19.7045458984375,-0.6267744302749634,1.919871211051941,-0.9921598434448242
1772791615732647400,19.7246474609375,0.1620532125234604,2.1507670879364014,-0.7468829154968262
1772791615752749000,19.7447490234375,0.9695229530334473,0.7717834115028381,-0.04274369776248932
1772791615772851000,19.764850830078124,1.0262482166290283,-0.7896265983581543,0.48429542779922485
1772791615792952600,19.78495263671875,0.44354909658432007,-2.5608935356140137,0.6795049905776978
1772791615813054200,19.80505419921875,-0.31012484431266785,-4.13055944442749,0.7937544584274292
1772791615833155800,19.82515576171875,-0.7306376099586487,-4.695948123931885,0.7767102718353271
1772791615853257500,19.845257568359376,-0.8920250535011292,-4.205394268035889,0.43023329973220825
1772791615873359000,19.865359130859375,-1.1503514051437378,-3.2309441566467285,-0.050466857850551605
1772791615893460700,19.885460693359374,-1.6190674304962158,-2.323606014251709,-0.7239797115325928
1772791615913562400,19.905562255859376,-1.994839072227478,-1.7723321914672852,-1.6931031942367554
1772791615933664000,19.9256640625,-1.8358485698699951,-1.4399700164794922,-2.840125799179077
1772791615953766000,19.945765869140626,-1.1503514051437378,-1.4498236179351807,-3.5240249633789062
1772791615973867500,19.965867431640625,-1.3154672384262085,-2.7822020053863525,-3.377817392349243
1772791615993969200,19.98596923828125,-1.6064174175262451,-4.646945953369141,-1.0837724208831787
1772791616014070800,20.00607080078125,-2.9699547290802,-5.583312511444092,1.5247915983200073
1772791616034172400,20.02617236328125,-4.067442417144775,-5.60807991027832,1.9871159791946411
1772791616054274000,20.046274169921876,-4.143075942993164,-5.282907962799072,-0.16018900275230408
1772791616074375700,20.066375732421875,-3.5710296630859375,-5.190762996673584,-2.159688711166382
1772791616094477300,20.086477294921874,-2.921485185623169,-5.293294429779053,-2.357295036315918
1772791616114579000,20.106578857421876,-2.168344020843506,-5.136967182159424,-1.1932283639907837
1772791616134680800,20.126680908203124,-1.490836262702942,-4.396875381469727,-0.001731053227558732
1772791616154782000,20.146781982421874,-1.0293108224868774,-3.200317859649658,0.49335017800331116
1772791616174883300,20.16688330078125,-0.8584692478179932,-1.9598186016082764,0.3026680052280426
1772791616194984400,20.186984375,-1.045156717300415,-0.923583447933197,-0.10000161081552505
1772791616215085600,20.20708544921875,-1.474457859992981,-0.3331611752510071,-0.36285537481307983
1772791616235187000,20.22718701171875,-1.5761905908584595,-0.43862226605415344,-0.31252169609069824
1772791616255288000,20.2472880859375,-1.0355693101882935,-1.0847046375274658,0.14820478856563568
1772791616275389400,20.267389404296875,-0.450206995010376,-1.8921743631362915,0.9940240383148193
1772791616295490600,20.287490478515625,-0.14793847501277924,-2.572345018386841,1.9940401315689087
1772791616315592000,20.307592041015624,-0.09334371984004974,-2.8202850818634033,2.791123628616333
1772791616335693000,20.327693115234375,0.0318247489631176,-2.6976466178894043,3.1269478797912598
1772791616355794200,20.347794189453126,0.2552637755870819,-2.1897823810577393,3.097120523452759
1772791616375895600,20.3678955078125,0.4400869905948639,-1.4785857200622559,2.897383689880371
1772791616395996700,20.38799658203125,0.4568648934364319,-0.7494128942489624,2.3796656131744385
1772791616416098000,20.40809814453125,0.3061301112174988,-0.07350318133831024,1.196956753730774
1772791616456300300,20.44830029296875,0.9615334868431091,1.9949722290039062,-3.285672187805176
1772791616476401700,20.468401611328126,1.243295669555664,2.675143003463745,-5.106473922729492
1772791616496502800,20.488502685546877,1.5122747421264648,2.4272029399871826,-5.785313129425049
1772791616516604200,20.508604248046876,2.3849918842315674,1.6439679861068726,-5.806085586547852
1772791616536705300,20.528705322265626,2.3252038955688477,1.3805814981460571,-6.231925010681152
1772791616556806700,20.548806640625,0.48362964391708374,3.430414915084839,-5.0028767585754395
1772791616576907800,20.56890771484375,-1.1266493797302246,5.545495510101318,-1.504285216331482
1772791616597009200,20.589009033203126,-2.135453939437866,6.005156993865967,1.679521083831787
1772791616617110300,20.6091103515625,-3.0377321243286133,4.259456157684326,4.021236419677734
1772791616637211400,20.62921142578125,-4.672645092010498,0.6910896897315979,5.324320316314697
1772791616657311500,20.6493115234375,-6.965624809265137,-2.858901023864746,5.475321292877197
1772791616677411300,20.669411376953125,-8.905203819274902,-5.46693229675293,5.457478046417236
1772791616697511400,20.689511474609375,-9.739571571350098,-6.884398460388184,5.435640335083008
1772791616717611300,20.709611328125,-9.384305953979492,-6.553634166717529,5.056139945983887
1772791616737711400,20.72971142578125,-8.128626823425293,-4.959733963012695,4.426835536956787
1772791616757811200,20.749811279296875,-6.399970054626465,-2.764225721359253,3.486207962036133
1772791616777911300,20.769911376953125,-4.626039981842041,-0.1512674242258072,2.116279125213623
1772791616798011100,20.79001123046875,-3.291264772415161,2.3461098670959473,0.5926859974861145
1772791616818111200,20.810111328125,-2.5796687602996826,4.165579795837402,-0.4994754493236542
1772791616838211000,20.830211181640625,-2.278465509414673,5.2976884841918945,-0.9543429613113403
1772791616858311200,20.850311279296875,-2.1056265830993652,5.836179256439209,-0.9442229270935059
1772791616878411000,20.870410888671874,-1.9287927150726318,5.961348056793213,-0.7404913306236267
1772791616898511000,20.890510986328124,-1.6385084390640259,5.9104814529418945,-0.6073333621025085
1772791616918611000,20.91061083984375,-1.2590082883834839,5.96161413192749,-0.8643282055854797
1772791616938711000,20.9307109375,-1.0510156154632568,6.232723712921143,-1.4379725456237793
1772791616958811000,20.950810791015623,-1.0259819030761719,6.199700355529785,-1.6936358213424683
1772791616978911000,20.970910888671874,-0.9357008337974548,6.175332546234131,-1.8683390617370605
1772791616999010800,20.9910107421875,-0.8486155271530151,6.637124538421631,-1.8848506212234497
1772791617019111000,21.01111083984375,-0.36791539192199707,7.569230079650879,-2.024400234222412
1772791617039210800,21.031210693359377,0.23928481340408325,7.78814172744751,-2.608430862426758
1772791617059310800,21.051310791015624,0.2925480008125305,6.665886402130127,-3.02681303024292
1772791617079410700,21.07141064453125,0.10772477090358734,4.868786811828613,-2.828674077987671
1772791617099510800,21.0915107421875,-0.30000483989715576,3.1635663509368896,-2.1868529319763184
1772791617119610600,21.111610595703127,-0.5689838528633118,2.0250658988952637,-1.146889328956604
1772791617139710700,21.131710693359373,-0.4880238473415375,1.2727235555648804,-0.01344895176589489
1772791617159811300,21.151811279296876,-0.47044700384140015,0.5677854418754578,0.4467448890209198
1772791617179912200,21.171912109375,-0.592952311038971,0.0756337121129036,0.6970818042755127
1772791617200012800,21.1920126953125,-0.6659228801727295,-0.051798440515995026,1.1207903623580933
1772791617220113700,21.21211376953125,-0.760198712348938,0.34740906953811646,1.8845843076705933
1772791617240214300,21.23221435546875,-0.4587291181087494,1.020655632019043,2.455832004547119
1772791617280415700,21.272415771484376,0.08428897708654404,2.8369300365448,2.1695423126220703
1772791617300516400,21.292516357421874,0.17723321914672852,2.9823384284973145,1.7836506366729736
1772791617320617000,21.312616943359377,-0.0744352862238884,2.7466487884521484,1.4685989618301392
1772791617340717800,21.3327177734375,-0.4198469817638397,1.472061038017273,1.1905651092529297
1772791617360818400,21.352818359375,-0.7215828895568848,0.1892174333333969,1.3000209331512451
1772791617380919000,21.3729189453125,-0.8155924081802368,0.30293431878089905,1.8366475105285645
1772791617401020000,21.39302001953125,-0.5415533185005188,0.06404896825551987,2.282726526260376
1772791617421120500,21.41312060546875,0.0768321305513382,-0.6403565406799316,2.5343949794769287
1772791617441221400,21.433221435546876,0.5732449293136597,-1.099485158920288,2.089913845062256
1772791617461322000,21.453322021484375,1.0118671655654907,-0.5996102094650269,1.598294734954834
1772791617501523500,21.4935234375,1.7980316877365112,-0.23129534721374512,1.29815673828125
1772791617521624000,21.5136240234375,1.6611453294754028,-0.07550055533647537,1.285373568534851
1772791617541724700,21.533724609375,1.4973610639572144,0.1711079478263855,1.3253209590911865
1772791617561825500,21.553825439453124,1.4409021139144897,0.4262385666370392,1.3290493488311768
1772791617581926100,21.573926025390627,1.369529366493225,0.5651223063468933,1.2044135332107544
1772791617602027000,21.594027099609374,1.1506177186965942,0.6916223168373108,0.9796429872512817
1772791617622127600,21.614127685546876,0.9378314018249512,0.7422223687171936,0.9727187752723694
1772791617642228500,21.634228515625,0.7548723816871643,0.7632613182067871,1.0563418865203857
1772791617662329000,21.6543291015625,0.6938860416412354,0.8242476582527161,0.8725839853286743
1772791617682430000,21.674429931640624,0.7285071015357971,0.9384971857070923,0.5340964794158936
1772791617702530800,21.69453076171875,0.7226481437683105,1.0431593656539917,0.42543962597846985
1772791617722631700,21.714631591796874,0.6928207874298096,0.9550087451934814,0.40440067648887634
1772791617742732500,21.734732666015624,0.6142575740814209,0.8322371244430542,0.40812909603118896
1772791617762833400,21.75483349609375,0.5490102171897888,0.6687191724777222,0.5652554631233215
1772791617782934000,21.77493408203125,0.5250417590141296,0.492284893989563,0.743687093257904
1772791617803035000,21.795034912109376,0.5426186323165894,0.5495428442955017,0.7548723816871643
1772791617823135700,21.8151357421875,0.5676522850990295,0.6278396844863892,0.6584660410881042
1772791617863337500,21.85533740234375,0.4715122580528259,0.48482805490493774,0.48722490668296814
1772791617883438300,21.875438232421875,0.34740906953811646,0.4198469817638397,0.4645880460739136
1772791617903539000,21.8955390625,0.24727429449558258,0.25845956802368164,0.5495428442955017
1772791617923639800,21.915639892578124,0.1237037256360054,-0.022770008072257042,0.6725807785987854
1772791617943740700,21.93574072265625,0.07789739221334457,-0.18389111757278442,0.6720481514930725
1772791617963841500,21.955841552734373,0.0858868733048439,-0.12024161964654922,0.49281755089759827
1772791617983942400,21.9759423828125,0.07789739221334457,0.08215844631195068,0.28908589482307434
1772791618004043300,21.996043212890626,-0.010519477538764477,0.18841849267482758,0.31678274273872375
1772791618024144100,22.01614404296875,-0.13462267816066742,0.11078740656375885,0.5431512594223022
1772791618044244700,22.03624462890625,-0.14873741567134857,-0.07723160833120346,0.6028059720993042
1772791618064345600,22.056345703125,-0.043808963149785995,-0.10732530057430267,0.5066659450531006
1772791618084446500,22.076446533203125,0.029161589220166206,0.02689790353178978,0.4443480372428894
1772791618104547300,22.09654736328125,0.07230476289987564,0.010652635246515274,0.2786995768547058
1772791618124648200,22.116648193359374,0.11038793623447418,-0.16138742864131927,0.07230476289987564
1772791618144748800,22.136748779296877,0.16471637785434723,-0.16245268285274506,0.07789739221334457
1772791618164849400,22.156849365234375,0.28908589482307434,-0.07004107534885406,0.22730059921741486
1772791618184950000,22.176949951171874,0.3980090916156769,0.06298370659351349,0.31864693760871887
1772791618205050400,22.19705029296875,0.47577333450317383,0.21345217525959015,0.31784799695014954
1772791618225151000,22.21715087890625,0.49281755089759827,0.3032006323337555,0.313586950302124
1772791618245251600,22.23725146484375,0.4701806902885437,0.35033854842185974,0.3122553825378418
1772791618265352000,22.25735205078125,0.3817638158798218,0.26218798756599426,0.28242799639701843
1772791618285452500,22.27745263671875,0.27230799198150635,0.11118687689304352,0.199337437748909
1772791618305553200,22.29755322265625,0.17909742891788483,0.07070686668157578,-0.004394211806356907
1772791618325653800,22.31765380859375,0.07283739000558853,0.2744385302066803,-0.22170796990394592
1772791618345754000,22.337754150390627,-0.05153212323784828,0.5229112505912781,-0.3764374852180481
1772791618365854700,22.357854736328125,-0.14074794948101044,0.5649891495704651,-0.4797680675983429
1772791618385955300,22.377955322265624,-0.1050616130232811,0.3500722348690033,-0.42916804552078247
1772791618406055700,22.3980556640625,-0.013182636350393295,-0.013715268112719059,-0.20306585729122162
1772791618426156300,22.41815625,0.05685843899846077,-0.2395511418581009,0.08508792519569397
1772791618446257000,22.4382568359375,0.10559424757957458,-0.13542161881923676,0.2898848354816437
1772791618466357200,22.458357177734374,0.07949528843164444,-0.003328948514536023,0.4366248846054077
1772791618486457900,22.478457763671877,-0.02330263890326023,-0.12503530085086823,0.5122585892677307
1772791618506558500,22.498558349609375,-0.08721844851970673,-0.27284061908721924,0.4408859312534332
1772791618526659000,22.5186591796875,-0.024101587012410164,-0.23209428787231445,0.11385004222393036
1772791618546759400,22.538759521484376,0.03608580306172371,-0.15113426744937897,-0.17510269582271576
1772791618566860000,22.558860107421875,0.006258423440158367,-0.11118687689304352,-0.15992268919944763
1772791618586960600,22.578960693359374,-0.024634219706058502,-0.13009530305862427,0.036352116614580154
1772791618607061000,22.59906103515625,0.016112111508846283,-0.11305109411478043,0.23076270520687103
1772791618627161600,22.61916162109375,0.09334371984004974,-0.08002792298793793,0.3585943281650543
1772791618647262200,22.63926220703125,0.10559424757957458,-0.027830010280013084,0.4376901388168335
1772791618667362800,22.65936279296875,0.04833633080124855,0.02516685053706169,0.4075964689254761
1772791618687463700,22.679463623046875,-0.022770008072257042,0.04407527670264244,0.25659534335136414
1772791618707564300,22.699564208984373,-0.08322371542453766,0.007856318727135658,0.11278477311134338
1772791618727665000,22.719664794921876,-0.09201213717460632,0.0552605465054512,-0.012916320003569126
1772791618747765800,22.739765869140626,-0.016112111508846283,0.17137427628040314,-0.10213214159011841
1772791618767866400,22.759866455078125,0.04886896535754204,0.24514377117156982,-0.11784477531909943
1772791618787967000,22.779967041015624,0.06937528401613235,0.28562378883361816,-0.003328948514536023
1772791618828168400,22.82016845703125,-0.11464899033308029,-0.06458160281181335,0.2174469232559204
1772791618848269000,22.84026904296875,0.09494160860776901,-0.36658382415771484,-0.050466857850551605
1772791618868370000,22.860369873046874,0.19188059866428375,-0.32024484872817993,-0.28668904304504395
1772791618888470500,22.880470458984377,0.03235737979412079,-0.09387634694576263,-0.21025638282299042
1772791618908571100,22.900571044921875,-0.014780531637370586,-0.018508953973650932,-0.09653950482606888
1772791618928672000,22.920672119140626,0.2755037844181061,-0.14021530747413635,-0.39188382029533386
1772791618948772600,22.940772705078125,0.5263733267784119,-0.0624510757625103,-0.4438154101371765
1772791618968873200,22.960873291015623,0.5428849458694458,-0.09627319127321243,-0.42064592242240906
1772791618988974000,22.98097412109375,0.5692501664161682,-0.040613170713186264,-0.5170522928237915
1772791619009074700,23.00107470703125,0.5644565224647522,0.23289324343204498,-0.42410802841186523
1772791619029175600,23.021175537109375,0.5743101835250854,0.28136274218559265,-0.18442374467849731
1772791619049276200,23.041276123046874,0.6185186505317688,0.05712475627660751,-0.05739107355475426
1772791619069376800,23.061376708984376,0.6962828636169434,-0.00945421401411295,-0.15992268919944763
1772791619089477600,23.0814775390625,0.7498123645782471,0.01717737503349781,-0.36179012060165405
1772791619109578200,23.101578125,0.7407576441764832,0.009720529429614544,-0.46139225363731384
1772791619129678800,23.121678955078124,0.665656566619873,0.0624510757625103,-0.4576638340950012
1772791619149780200,23.1417802734375,0.552738606929779,0.13488899171352386,-0.39374804496765137
1772791619169882000,23.161882080078126,0.5213133096694946,0.28375956416130066,-0.363920658826828
1772791619189984000,23.18198388671875,0.5346291065216064,0.3873564600944519,-0.41665118932724
1772791619210085600,23.202085693359376,0.5348954200744629,0.4696480631828308,-0.47950175404548645
1772791619230187500,23.2221875,0.5388901829719543,0.4022701382637024,-0.5242428183555603
1772791619250289400,23.242289306640625,0.571647047996521,0.19188059866428375,-0.4808333218097687
1772791619270391300,23.262391357421876,0.5588638782501221,-0.06644581258296967,-0.21185427904129028
1772791619290493000,23.282492919921875,0.5514070391654968,0.20066902041435242,0.22170796990394592
1772791619310594800,23.3025947265625,0.5889575481414795,0.8547407984733582,0.3692469596862793
1772791619330696700,23.32269677734375,0.7303712964057922,1.1357040405273438,-0.14341109991073608
1772791619350798300,23.34279833984375,0.7908250093460083,1.0049430131912231,-0.7753787040710449
1772791619370900200,23.362900146484375,0.7538071274757385,0.886432409286499,-1.1386336088180542
1772791619391002000,23.383002197265625,0.7958850264549255,1.0028125047683716,-1.149286150932312
1772791619411104000,23.40310400390625,0.919988214969635,1.2595409154891968,-0.786297619342804
1772791619431205600,23.42320556640625,0.9556745290756226,1.467267394065857,-0.22144165635108948
1772791619451307500,23.4433076171875,0.9721861481666565,1.8457021713256836,0.3687143325805664
1772791619471409400,23.463409423828125,0.8155924081802368,2.2012338638305664,0.7325018048286438
1772791619491511000,23.483510986328124,0.5117259621620178,1.5767232179641724,0.7319691777229309
1772791619511613000,23.503613037109375,0.6360954642295837,1.2435619831085205,0.22969745099544525
1772791619531714800,23.52371484375,0.6816354990005493,1.080976128578186,-0.3285006284713745
