time,seconds_elapsed,z,y,x
1772791596171726600,0.1637265625,7.990118503570557,5.522775650024414,-1.025264859199524
1772791596211927800,0.203927734375,6.468390941619873,7.1415205001831055,-1.345061182975769
1772791596232028400,0.2240283203125,6.444436073303223,6.625893592834473,0.7006774544715881
1772791596252129000,0.24412890625,7.782310962677002,5.412583827972412,2.655986785888672
1772791596272229600,0.264229736328125,10.835348129272461,5.298199653625488,2.244563341140747
1772791596292330200,0.284330322265625,10.684432983398438,5.1119513511657715,1.369614839553833
1772791596312430800,0.304430908203125,7.091814041137695,4.299883842468262,1.0929371118545532
1772791596332531200,0.32453125,5.064640522003174,3.1871840953826904,0.3419545590877533
1772791596352631800,0.3446318359375,6.709136486053467,3.1153197288513184,-0.4659205675125122
1772791596372732400,0.364732421875,8.736908912658691,3.745929479598999,-0.7863158583641052
1772791596392833000,0.3848330078125,9.469326972961426,3.7650933265686035,-0.5856944918632507
1772791596412933600,0.40493359375,8.429689407348633,2.948834180831909,-1.7235468626022339
1772791596433034200,0.4250341796875,7.536175727844238,3.8848674297332764,-3.4686529636383057
1772791596453134800,0.445134765625,6.292922019958496,6.005464553833008,-2.431410789489746
1772791596473235500,0.4652353515625,3.7926414012908936,4.3861212730407715,0.7144514918327332
1772791596493335800,0.485335693359375,3.475839376449585,2.552382469177246,1.3594341278076172
1772791596513436400,0.5054365234375,6.288131237030029,2.661975622177124,1.168394684791565
1772791596533537000,0.525537109375,7.673316478729248,2.1703035831451416,1.8612868785858154
1772791596553637600,0.5456376953125,7.559531211853027,2.0271737575531006,1.9906426668167114
1772791596573738200,0.56573828125,6.288730144500732,1.8546992540359497,2.1637160778045654
1772791596593838800,0.5858388671875,6.870232582092285,0.8707564473152161,3.7986299991607666
1772791596613939500,0.605939453125,8.476999282836914,0.6174346208572388,3.6932289600372314
1772791596634040000,0.6260400390625,8.614140510559082,2.8572070598602295,4.7550249099731445
1772791596654140700,0.646140625,8.8596773147583,4.844256401062012,3.172811269760132
1772791596674242000,0.666241943359375,10.15024185180664,4.83467435836792,1.6283265352249146
1772791596694343200,0.68634326171875,10.52393627166748,3.7932403087615967,3.1919751167297363
1772791596714444300,0.7064443359375,9.24295425415039,2.4511733055114746,6.566605567932129
1772791596734545400,0.72654541015625,9.918478965759277,2.5613653659820557,7.384661674499512
1772791596754646500,0.746646484375,11.82827377319336,3.0290825366973877,7.360706806182861
1772791596774747600,0.76674755859375,11.55399227142334,3.6650822162628174,6.8672380447387695
1772791596794849000,0.78684912109375,9.975371360778809,3.832166910171509,4.859228134155273
1772791596814950100,0.8069501953125,8.26440143585205,4.262155055999756,2.6266422271728516
1772791596835051300,0.82705126953125,7.905079364776611,4.859228134155273,1.2025302648544312
1772791596855152400,0.84715234375,7.8625593185424805,4.816109657287598,0.43238386511802673
1772791596875253500,0.86725341796875,7.876333236694336,3.349477767944336,1.4887899160385132
1772791596895354600,0.887354736328125,8.647078514099121,3.4405059814453125,3.0428566932678223
1772791596915456000,0.9074560546875,8.230864524841309,2.9727888107299805,5.317962169647217
1772791596935557000,0.92755712890625,7.318785667419434,2.6763484477996826,5.7389678955078125
1772791596955658200,0.947658203125,9.275293350219727,2.881760597229004,2.4883034229278564
1772791596975759400,0.96775927734375,11.034173011779785,3.1823933124542236,-0.30302804708480835
1772791596995860700,0.98786083984375,12.485234260559082,2.150540828704834,0.9348354935646057
1772791597015961900,1.0079619140625,15.883220672607422,0.010779653675854206,8.139237403869629
1772791597036063000,1.02806298828125,19.68364715576172,-2.5775349140167236,19.946550369262695
1772791597056164000,1.0481640625,23.493057250976562,-5.543735980987549,28.78586769104004
1772791597076265200,1.06826513671875,27.666580200195312,-6.149792194366455,25.926862716674805
1772791597096366300,1.088366455078125,28.063629150390625,-8.33746337890625,29.402103424072266
1772791597116467700,1.1084677734375,22.859453201293945,-9.684320449829102,36.31006622314453
1772791597136568800,1.12856884765625,15.042407035827637,-8.905790328979492,34.966800689697266
1772791597156670200,1.148670166015625,9.554965019226074,-6.455814838409424,27.561777114868164
1772791597176772000,1.168772216796875,6.695362567901611,-3.9249916076660156,22.318674087524414
1772791597196873700,1.188873779296875,4.549612522125244,-2.6925179958343506,17.691207885742188
1772791597216975600,1.2089755859375,6.128232955932617,-3.3806190490722656,11.142568588256836
1772791597237077500,1.229077392578125,9.285473823547363,-4.531646728515625,5.444324016571045
1772791597257179100,1.24917919921875,10.04184627532959,-5.63955545425415,3.9669125080108643
1772791597277281000,1.269281005859375,7.1966166496276855,-5.897668361663818,2.8392410278320312
1772791597297383000,1.2893828125,1.732529878616333,-3.653104782104492,-1.5876034498214722
1772791597317484500,1.309484619140625,-4.5957255363464355,-2.4397947788238525,-4.503499507904053
1772791597337586400,1.32958642578125,-8.03683090209961,-2.5164501667022705,-3.8914549350738525
1772791597357688000,1.34968798828125,-7.247520446777344,-2.688325881958008,-2.849421739578247
1772791597377790000,1.3697900390625,-4.979001998901367,-2.2098288536071777,-1.5744283199310303
1772791597397891800,1.389891845703125,-7.049294471740723,-3.256054162979126,-1.746303915977478
1772791597417993500,1.409993408203125,-9.521428108215332,-6.3552045822143555,-4.65321683883667
1772791597438095400,1.430095458984375,-8.306921005249023,-9.937643051147461,-6.995396137237549
1772791597458197200,1.450197265625,-8.694389343261719,-11.785754203796387,-11.087471961975098
1772791597478299000,1.470298828125,-15.164576530456543,-12.951154708862305,-15.241830825805664
1772791597498400800,1.49040087890625,-17.679229736328125,-13.394917488098145,-12.665493965148926
1772791597518502400,1.51050244140625,-13.510499000549316,-13.041584014892578,-6.073136806488037
1772791597538604300,1.530604248046875,-10.438298225402832,-14.617809295654297,-1.3217053413391113
1772791597558706000,1.550705810546875,-7.238537311553955,-17.97028160095215,2.129580497741699
1772791597578807800,1.570807861328125,-2.5877156257629395,-21.509601593017578,5.600628852844238
1772791597598909700,1.59090966796875,0.4515477120876312,-25.278287887573242,8.836920738220215
1772791597619011300,1.61101123046875,0.6922932863235474,-27.980985641479492,11.083879470825195
1772791597639113200,1.63111328125,-3.570460796356201,-32.02156066894531,14.152486801147461
1772791597659214300,1.65121435546875,-10.041247367858887,-34.15652847290039,16.332372665405273
1772791597679315000,1.67131494140625,-13.666205406188965,-36.98379135131836,17.56125259399414
1772791597699415800,1.691415771484375,-11.426432609558105,-45.040985107421875,18.76078987121582
1772791597719516400,1.711516357421875,-6.699554443359375,-52.463375091552734,23.2834529876709
1772791597739617300,1.7316171875,-11.889358520507812,-55.576900482177734,33.22169494628906
1772791597759718000,1.7517177734375,-23.351125717163086,-49.28218078613281,35.83635711669922
1772791597779818800,1.77181884765625,-35.337501525878906,-38.006065368652344,33.058799743652344
1772791597799919400,1.79191943359375,-26.801212310791016,-34.42362594604492,27.99595832824707
1772791597820020200,1.812020263671875,-5.948572158813477,-36.329227447509766,23.454729080200195
1772791597840120800,1.832120849609375,1.8882359266281128,-37.15087890625,23.359508514404297
1772791597860221400,1.852221435546875,0.19583037495613098,-38.14440155029297,24.96986961364746
1772791597880322300,1.872322265625,-1.9073997735977173,-36.16214370727539,22.498933792114258
1772791597900423000,1.8924228515625,-1.4774113893508911,-32.73780822753906,17.474416732788086
1772791597920523800,1.912523681640625,3.9914660453796387,-28.802635192871094,11.398285865783691
1772791597940624400,1.932624267578125,9.393869400024414,-24.537485122680664,8.291350364685059
1772791597960725200,1.952725341796875,6.236628532409668,-21.719205856323242,10.647902488708496
1772791597980825900,1.972825927734375,1.5007673501968384,-17.87506103515625,14.553730010986328
1772791598000926700,1.9929267578125,-0.5270052552223206,-14.269267082214355,18.770370483398438
1772791598021027300,2.01302734375,-2.1152076721191406,-9.407044410705566,22.546842575073242
1772791598041128200,2.033128173828125,-2.7296478748321533,-5.323352336883545,22.06834602355957
1772791598061228800,2.053228759765625,-0.25751394033432007,-2.892540454864502,17.197738647460938
1772791598081329400,2.073329345703125,2.5829248428344727,-2.3577497005462646,13.373357772827148
1772791598101430300,2.09343017578125,3.916008472442627,-1.7223490476608276,11.427630424499512
1772791598121531000,2.11353076171875,4.454392433166504,-0.9438185691833496,10.299360275268555
1772791598141631700,2.1336318359375,4.690945625305176,-0.13175131380558014,9.596885681152344
1772791598161732000,2.153732177734375,5.612606048583984,1.0953326225280762,9.692106246948242
1772791598181832200,2.173832275390625,6.132425308227539,1.6205412149429321,11.355766296386719
1772791598201932500,2.1939326171875,5.7401652336120605,1.682823657989502,13.736272811889648
1772791598222033000,2.214032958984375,5.087996482849121,1.8786540031433105,16.007186889648438
1772791598242133000,2.234133056640625,4.402889728546143,1.4390836954116821,17.88105010986328
1772791598262233300,2.2542333984375,3.953737258911133,-0.9054908752441406,19.381816864013672
1772791598282333700,2.274333740234375,2.7859416007995605,-5.323352336883545,19.850730895996094
1772791598302433800,2.294433837890625,0.966575562953949,-11.26952838897705,22.016244888305664
1772791598322534100,2.3145341796875,-5.125725269317627,-16.7767333984375,27.288692474365234
1772791598342634500,2.334634521484375,-9.606468200683594,-27.3078556060791,33.51274490356445
1772791598362734600,2.354734619140625,-4.927499294281006,-30.660327911376953,25.98854637145996
1772791598382835000,2.3748349609375,-6.392334461212158,-35.784854888916016,20.859228134155273
1772791598402935000,2.39493505859375,-13.392521858215332,-46.63158416748047,21.45210838317871
1772791598423035400,2.415035400390625,-16.852191925048828,-52.64962387084961,23.41221046447754
1772791598443135700,2.4351357421875,-17.272598266601562,-59.36415100097656,33.16899490356445
1772791598463235800,2.45523583984375,-19.111127853393555,-64.85697937011719,34.99973678588867
1772791598483336200,2.475336181640625,-15.552644729614258,-55.14691162109375,19.592618942260742
1772791598503436500,2.4954365234375,-8.675225257873535,-47.61073303222656,15.663434982299805
1772791598523536600,2.51553662109375,-11.180296897888184,-42.500579833984375,18.9284725189209
1772791598543637000,2.535636962890625,-10.343676567077637,-36.310665130615234,18.837444305419922
1772791598563737300,2.5557373046875,-7.304412841796875,-32.21738815307617,16.03114128112793
1772791598583837400,2.57583740234375,-4.51607608795166,-28.37264633178711,11.709098815917969
1772791598603937800,2.595937744140625,-2.2757046222686768,-22.445634841918945,5.346708297729492
1772791598624038000,2.616037841796875,-1.6235356330871582,-16.728225708007812,0.06407905369997025
1772791598644138200,2.63613818359375,-1.6995919942855835,-11.751618385314941,-3.535726308822632
1772791598664239400,2.6562392578125,-0.7258300185203552,-8.503949165344238,-5.528764247894287
1772791598684340500,2.676340576171875,2.327806234359741,-6.04439115524292,-6.255792140960693
1772791598704441300,2.69644140625,2.8524160385131836,-5.070030212402344,-5.906651020050049
1772791598724542500,2.71654248046875,1.5995807647705078,-4.554403781890869,-6.385148048400879
1772791598744643600,2.7366435546875,0.2760789096355438,-4.773590087890625,-7.073249340057373
1772791598764744700,2.75674462890625,-1.7516937255859375,-5.289815425872803,-8.110491752624512
1772791598784845800,2.776845703125,-2.776958465576172,-4.759815692901611,-9.056705474853516
1772791598804947000,2.796947021484375,-2.8476250171661377,-5.089194297790527,-8.349440574645996
1772791598825047800,2.8170478515625,-1.3163154125213623,-6.3552045822143555,-6.36538553237915
1772791598845149000,2.83714892578125,0.7156491875648499,-7.859565258026123,-4.993374824523926
1772791598865250000,2.85725,2.4505746364593506,-7.964367389678955,-4.821499347686768
1772791598885351200,2.87735107421875,3.5992064476013184,-7.31998348236084,-4.9263014793396
1772791598905452300,2.897452392578125,3.816596269607544,-7.893101692199707,-4.725680351257324
1772791598925553200,2.91755322265625,1.6043717861175537,-10.252049446105957,-3.999251365661621
1772791598945654300,2.937654296875,-3.8639068603515625,-14.961560249328613,-1.2360669374465942
1772791598965755400,2.95775537109375,-9.313620567321777,-17.9606990814209,-2.0151963233947754
1772791598985856500,2.9778564453125,-6.704944610595703,-17.325298309326172,-3.8698956966400146
1772791599005957600,2.99795751953125,-2.507467269897461,-23.123554229736328,0.9677733182907104
1772791599026058800,3.018058837890625,-4.738256454467773,-28.143280029296875,2.903918981552124
1772791599046159600,3.03815966796875,-9.2477445602417,-33.05281448364258,7.569113254547119
1772791599066260700,3.0582607421875,-16.459932327270508,-38.2012939453125,14.410000801086426
1772791599086361900,3.07836181640625,-22.041996002197266,-41.0339469909668,19.175806045532227
1772791599106463000,3.098462890625,-23.60205078125,-42.81977844238281,22.679792404174805
1772791599126564000,3.118564208984375,-17.575626373291016,-42.63352966308594,23.803272247314453
1772791599146665200,3.138665283203125,-10.169404983520508,-39.056480407714844,23.92783546447754
1772791599166767000,3.15876708984375,-8.27877426147461,-36.12860870361328,26.571247100830078
1772791599186869200,3.178869140625,-10.349065780639648,-33.82655334472656,29.329042434692383
1772791599206971400,3.198971435546875,-10.717370986938477,-30.554927825927734,28.397199630737305
1772791599227073500,3.219073486328125,-8.860276222229004,-27.321630477905273,23.253509521484375
1772791599247175400,3.239175537109375,-5.858741760253906,-24.14043426513672,17.60796546936035
1772791599267277600,3.259277587890625,-2.7631845474243164,-20.18130874633789,13.520679473876953
1772791599287379700,3.279379638671875,0.43238386511802673,-15.14241886138916,10.25085163116455
1772791599307481600,3.299481689453125,2.506868362426758,-10.199348449707031,8.372197151184082
1772791599327583700,3.319583740234375,3.447692394256592,-7.9068756103515625,9.223191261291504
1772791599347686000,3.339685791015625,3.4950032234191895,-6.3881425857543945,10.379608154296875
1772791599367788000,3.3597880859375,3.882471799850464,-4.563985347747803,9.935247421264648
1772791599387890000,3.379889892578125,3.4572744369506836,-3.3458845615386963,9.217801094055176
1772791599407992000,3.399991943359375,2.9608113765716553,-2.2619307041168213,8.472208976745605
1772791599428094200,3.42009423828125,2.4930942058563232,-0.3653104901313782,7.9943108558654785
1772791599448196400,3.4401962890625,1.779241681098938,0.7617622017860413,8.166186332702637
1772791599468298200,3.46029833984375,1.5193322896957397,0.6276153922080994,9.170490264892578
1772791599488400400,3.480400390625,2.2373769283294678,1.3875809907913208,10.131077766418457
1772791599508502500,3.50050244140625,2.9135007858276367,2.0271737575531006,11.584534645080566
1772791599528604400,3.5206044921875,3.135681390762329,2.012800931930542,13.343414306640625
1772791599548706600,3.54070654296875,3.4003818035125732,1.850507140159607,14.27525520324707
1772791599568808700,3.56080859375,3.1925740242004395,0.6803159117698669,14.978328704833984
1772791599588910800,3.580910888671875,1.8355354070663452,-2.5386083126068115,16.020360946655273
1772791599609012700,3.6010126953125,0.3611183762550354,-9.339371681213379,19.59621238708496
1772791599629115000,3.621114990234375,-0.673728346824646,-16.699480056762695,24.682411193847656
1772791599649216800,3.641216796875,2.3793091773986816,-24.680017471313477,28.45888328552246
1772791599669317600,3.661317626953125,3.4902122020721436,-24.73750877380371,21.670696258544922
1772791599689418800,3.681418701171875,-2.271512508392334,-24.455440521240234,17.392372131347656
1772791599709519600,3.70151953125,-10.207134246826172,-31.21368408203125,18.95063018798828
1772791599729620500,3.721620361328125,-13.264962196350098,-41.38668441772461,21.50780487060547
1772791599749721600,3.7417216796875,-12.608002662658691,-50.55178451538086,24.275779724121094
1772791599769822500,3.761822509765625,-10.746116638183594,-51.65011215209961,23.15709114074707
1772791599789923300,3.78192333984375,-11.597110748291016,-47.915557861328125,21.823408126831055
1772791599830125300,3.822125244140625,-7.5984578132629395,-45.5799674987793,26.268817901611328
1772791599870327300,3.862327392578125,-9.796309471130371,-42.86229705810547,20.432233810424805
1772791599890428200,3.88242822265625,-8.472807884216309,-36.82988357543945,13.854249954223633
1772791599910529000,3.902529052734375,-6.610322952270508,-29.350601196289062,8.423700332641602
1772791599930630100,3.922630126953125,-6.875023365020752,-22.067148208618164,4.709510803222656
1772791599950731000,3.94273095703125,-6.984017848968506,-16.264699935913086,1.9319534301757812
1772791599970832000,3.962831787109375,-5.665306568145752,-12.529550552368164,-0.7737395763397217
1772791599990933000,3.98293310546875,-2.8859527111053467,-9.315417289733887,-3.3404948711395264
1772791600011033900,4.003033935546875,-1.8367332220077515,-7.38585901260376,-4.693341255187988
1772791600031134700,4.023134765625,-1.7798405885696411,-6.913351058959961,-5.334131717681885
1772791600051235800,4.04323583984375,-0.03593217954039574,-6.096492767333984,-6.055769920349121
1772791600071336700,4.063336669921875,0.46532171964645386,-4.711307525634766,-6.686978340148926
1772791600091437800,4.083437744140625,-1.1749821901321411,-3.612980604171753,-5.950368881225586
1772791600131639600,4.1236396484375,-2.645207166671753,-2.3613429069519043,-4.913126468658447
1772791600151740700,4.14374072265625,-3.042257785797119,-2.223004102706909,-6.428865432739258
1772791600171842300,4.16384228515625,-2.002021074295044,-2.084665298461914,-6.696560382843018
1772791600191943700,4.183943603515625,-0.43298274278640747,-2.166111469268799,-6.3659844398498535
1772791600212045300,4.20404541015625,-0.2862596809864044,-2.1421566009521484,-5.940786838531494
1772791600232147000,4.22414697265625,-1.6995919942855835,-3.2596473693847656,-5.902459144592285
1772791600252248300,4.244248291015625,-4.124415397644043,-6.2066850662231445,-7.116367816925049
1772791600272350000,4.264349853515625,-6.766029357910156,-7.4720964431762695,-8.254220008850098
1772791600292451300,4.284451416015625,-9.909496307373047,-8.838118553161621,-8.11528205871582
1772791600312553000,4.304552978515625,-9.592694282531738,-14.254295349121094,-6.70973539352417
1772791600332654600,4.324654541015625,-5.154470920562744,-21.04607582092285,-3.851330518722534
1772791600352756000,4.344755859375,-2.0774786472320557,-27.35995864868164,2.4350039958953857
1772791600372857600,4.364857666015625,-3.9022345542907715,-30.769922256469727,10.681438446044922
1772791600392959000,4.384958984375,-8.136841773986816,-33.37260818481445,16.182655334472656
1772791600413060600,4.405060546875,-10.41554069519043,-40.765655517578125,16.89950180053711
1772791600433162200,4.425162353515625,-10.533517837524414,-50.527828216552734,19.42852783203125
1772791600453263600,4.445263671875,-21.031103134155273,-51.00093460083008,24.247034072875977
1772791600473365200,4.465365234375,-38.863643646240234,-44.08518981933594,25.447168350219727
1772791600493466600,4.485466552734375,-40.18235778808594,-30.06265640258789,28.96971893310547
1772791600513568300,4.505568359375,-23.69188117980957,-20.52505874633789,39.1379280090332
1772791600533669600,4.525669677734375,-9.205224990844727,-19.11591911315918,32.392860412597656
1772791600553771300,4.545771240234375,-6.468989849090576,-20.596324920654297,17.573230743408203
1772791600573872600,4.56587255859375,-6.492345809936523,-22.721712112426758,11.84683895111084
1772791600593974300,4.585974365234375,-1.3546431064605713,-20.911928176879883,9.370512962341309
1772791600614076000,4.606075927734375,2.2140209674835205,-17.554067611694336,7.745181083679199
1772791600634177300,4.62617724609375,4.459183216094971,-12.43912124633789,5.316764831542969
1772791600654278700,4.646278564453125,4.874798774719238,-8.19792652130127,2.9841673374176025
1772791600674379500,4.666379638671875,3.0266871452331543,-6.783995151519775,3.1704158782958984
1772791600694480600,4.686480712890625,1.8025976419448853,-6.903769016265869,4.834075927734375
1772791600714581800,4.706581787109375,1.622936725616455,-6.1683573722839355,6.143803596496582
1772791600734682600,4.7266826171875,2.0816707611083984,-4.630459785461426,6.970842361450195
1772791600754783700,4.74678369140625,2.3511621952056885,-2.805704355239868,7.376876354217529
1772791600774884600,4.766884521484375,1.5193322896957397,-1.7025864124298096,8.147022247314453
1772791600794985700,4.78698583984375,1.5804169178009033,-0.89531010389328,9.074671745300293
1772791600815086600,4.807086669921875,3.012913227081299,1.0240670442581177,10.159823417663574
1772791600835187700,4.827187744140625,3.981884241104126,3.073399066925049,11.206647872924805
1772791600855288800,4.847288818359375,3.3674440383911133,4.38192892074585,11.66538143157959
1772791600875389700,4.8673896484375,2.6913201808929443,3.0494441986083984,13.343414306640625
1772791600895490800,4.88749072265625,0.6539656519889832,-1.6073660850524902,18.530223846435547
1772791600915592000,4.907592041015625,-3.7698843479156494,-9.053112030029297,26.938953399658203
1772791600935692800,4.92769287109375,-9.228581428527832,-18.07029151916504,34.29127502441406
1772791600955794000,4.9477939453125,-5.40479850769043,-27.33600425720215,36.8580322265625
1772791600975894800,4.967894775390625,1.8307445049285889,-27.640827178955078,24.542875289916992
1772791600995996000,4.987995849609375,-2.2152187824249268,-29.054759979248047,17.12407875061035
1772791601016096800,5.0080966796875,-4.5406293869018555,-32.507843017578125,14.413594245910645
1772791601036198000,5.028197998046875,-5.958154201507568,-33.69719696044922,11.564172744750977
1772791601056299000,5.048299072265625,-10.618557929992676,-33.214508056640625,11.377923965454102
1772791601076399900,5.06839990234375,-13.015233993530273,-35.13927459716797,16.77493667602539
1772791601096501000,5.0885009765625,-11.398884773254395,-39.12235641479492,21.622188568115234
1772791601116601900,5.108601806640625,-9.371111869812012,-39.19422149658203,18.787139892578125
1772791601136703000,5.128702880859375,-6.761837005615234,-31.084327697753906,11.071303367614746
1772791601156804000,5.14880419921875,-11.649211883544922,-23.476287841796875,13.10805892944336
1772791601176905200,5.1689052734375,-23.03013038635254,-22.445035934448242,21.493431091308594
1772791601197006600,5.189006591796875,-19.239885330200195,-25.40105628967285,22.186323165893555
1772791601217107700,5.209107666015625,-2.7206647396087646,-26.52333641052246,13.261967658996582
1772791601237208800,5.229208740234375,7.512220859527588,-22.807950973510742,8.132649421691895
1772791601257310200,5.249310302734375,7.294830799102783,-17.54927635192871,4.537635326385498
1772791601277411300,5.269411376953125,1.3678182363510132,-13.80993366241455,0.6605532169342041
1772791601297512700,5.2895126953125,-4.3370137214660645,-10.428116798400879,-2.6140658855438232
1772791601317613800,5.30961376953125,-6.090504169464111,-6.621701717376709,-4.898753643035889
1772791601337715000,5.32971484375,-4.053149700164795,-4.386720180511475,-6.142006874084473
1772791601357816300,5.34981640625,0.5120335221290588,-5.026911735534668,-5.807239055633545
1772791601377917400,5.36991748046875,5.356888771057129,-5.575476169586182,-5.5970354080200195
1772791601398018800,5.390018798828125,8.788412094116211,-5.40839147567749,-4.641239643096924
1772791601418120000,5.410119873046875,8.594378471374512,-5.929408073425293,-3.173410177230835
1772791601438221000,5.430220947265625,5.484447956085205,-6.573791980743408,-3.102144718170166
1772791601458322400,5.450322509765625,2.0199873447418213,-7.538570880889893,-3.5896246433258057
1772791601478423600,5.470423583984375,-0.4994572699069977,-8.178762435913086,-3.6998167037963867
1772791601498525000,5.49052490234375,-1.7043830156326294,-8.336265563964844,-3.106935739517212
1772791601518626000,5.5106259765625,-1.9032076597213745,-8.73271656036377,-1.5678406953811646
1772791601538727200,5.53072705078125,-1.7331286668777466,-9.492083549499512,0.7461915612220764
1772791601558828500,5.55082861328125,-1.6570723056793213,-10.227495193481445,2.3236141204833984
1772791601578929700,5.5709296875,-1.7756484746932983,-10.901224136352539,2.821274757385254
1772791601599031000,5.591031005859375,-3.3069581985473633,-12.706216812133789,3.629149913787842
1772791601619132200,5.611132080078125,-4.52146577835083,-15.16577434539795,5.153872013092041
1772791601639233300,5.6312333984375,-4.261556148529053,-16.0449161529541,5.918628692626953
1772791601659333600,5.651333740234375,-3.514765977859497,-17.921772003173828,6.716921806335449
1772791601679433700,5.671433837890625,-4.583149433135986,-21.20777130126953,6.907961368560791
1772791601699533600,5.691533447265625,-6.369577407836914,-21.43234634399414,6.043193340301514
1772791601719633700,5.711633544921875,-9.631021499633789,-19.249465942382812,4.895759105682373
1772791601739733800,5.731733642578125,-13.988396644592285,-17.17677879333496,4.3316240310668945
1772791601759833600,5.75183349609375,-13.638656616210938,-16.656360626220703,5.933001518249512
1772791601779933700,5.77193359375,-10.004117012023926,-18.217615127563477,8.264999389648438
1772791601800033500,5.792033447265625,-6.274956226348877,-21.446121215820312,9.866376876831055
1772791601820133600,5.812133544921875,-3.6045963764190674,-25.142942428588867,9.656173706054688
1772791601840233500,5.8322333984375,-2.0637047290802,-25.147733688354492,9.082456588745117
1772791601860333600,5.85233349609375,-4.810121059417725,-23.15110206604004,10.999438285827637
1772791601880433700,5.87243359375,-7.650559425354004,-22.157577514648438,12.9978666305542
1772791601900533500,5.892533447265625,-7.452333927154541,-21.70363426208496,13.379945755004883
1772791601920633600,5.912633544921875,-5.164651870727539,-21.852153778076172,13.355990409851074
1772791601940733400,5.9327333984375,-2.5505857467651367,-21.89467430114746,13.126623153686523
1772791601960833500,5.95283349609375,-0.9863383173942566,-21.388629913330078,12.357075691223145
1772791601980933400,5.972933349609375,0.6587566137313843,-18.685930252075195,10.230489730834961
1772791602021133300,6.01313330078125,3.2207210063934326,-12.472658157348633,6.851068496704102
1772791602041233400,6.0332333984375,4.5675787925720215,-9.544784545898438,6.153385639190674
1772791602061333500,6.05333349609375,5.79166841506958,-7.018153190612793,6.29172420501709
1772791602081433300,6.073433349609375,7.1858367919921875,-5.250888824462891,6.626492500305176
1772791602101533400,6.093533447265625,8.277576446533203,-3.202155828475952,6.253396511077881
1772791602121633300,6.11363330078125,7.077441215515137,-0.8617734313011169,5.522176742553711
1772791602141733400,6.1337333984375,4.549013614654541,-0.13594341278076172,5.240109443664551
1772791602161834000,6.153833984375,2.2517497539520264,0.07425983250141144,4.384923458099365
1772791602181934600,6.1739345703125,0.8288355469703674,1.4115357398986816,2.122992753982544
1772791602202035200,6.19403515625,0.762959897518158,3.1213085651397705,0.005389826837927103
1772791602222136000,6.214135986328125,-1.212710976600647,3.135681390762329,0.6509712934494019
1772791602242236700,6.234236572265625,-2.233783721923828,0.29883596301078796,5.990492820739746
1772791602262337300,6.254337158203125,-1.9738743305206299,-5.356289863586426,11.506681442260742
1772791602282438100,6.274438232421875,-0.6743271946907043,-9.076468467712402,16.110191345214844
1772791602302538800,6.294538818359375,-1.345061182975769,-13.030804634094238,23.768537521362305
1772791602322639400,6.314639404296875,0.459931880235672,-25.63521385192871,34.85421371459961
1772791602342740200,6.334740234375,5.862334728240967,-24.192537307739258,29.705730438232422
1772791602362840800,6.3548408203125,4.832279205322266,-22.5067195892334,20.240596771240234
1772791602382941400,6.37494140625,0.15750271081924438,-23.06546401977539,13.939888954162598
1772791602403042300,6.395042236328125,-6.137814998626709,-26.408952713012695,15.55623722076416
1772791602423143000,6.415142822265625,-10.940150260925293,-33.75408935546875,21.928211212158203
1772791602443243500,6.435243408203125,-18.114608764648438,-45.5799674987793,29.8734130859375
1772791602463344400,6.455344482421875,-30.644758224487305,-48.67911911010742,26.321517944335938
1772791602483445000,6.475445068359375,-32.246734619140625,-37.355690002441406,15.661040306091309
1772791602503545600,6.495545654296875,-27.851030349731445,-30.268068313598633,13.25657844543457
1772791602523646500,6.515646484375,-17.032451629638672,-29.814125061035156,15.16397762298584
1772791602543747000,6.5357470703125,-7.499045372009277,-27.177902221679688,14.289029121398926
1772791602583948500,6.575948486328125,-5.301194190979004,-17.907400131225586,10.067597389221191
1772791602604049200,6.596049072265625,-5.745555400848389,-13.642250061035156,5.559905529022217
1772791602624149800,6.616149658203125,-5.8216118812561035,-9.415428161621094,2.156529664993286
1772791602644250600,6.636250732421875,-7.125949859619141,-7.7966837882995605,1.4486656188964844
1772791602664352800,6.656352783203125,-6.359995365142822,-5.938391208648682,-0.24853089451789856
1772791602684455200,6.676455078125,-5.339521884918213,-3.894449234008789,-1.5055582523345947
1772791602704557600,6.6965576171875,-4.171725749969482,-2.485308885574341,-1.6061683893203735
1772791602724660000,6.716659912109375,-2.569749593734741,-1.6924055814743042,-1.4241119623184204
1772791602744762400,6.736762451171875,-0.7970954775810242,-1.8738631010055542,-0.3581240475177765
1772791602764864800,6.75686474609375,1.1121009588241577,-3.130291700363159,1.2815810441970825
1772791602784967200,6.77696728515625,3.1823933124542236,-3.4788336753845215,1.8073885440826416
1772791602805069600,6.797069580078125,4.25556755065918,-2.7530035972595215,1.8882359266281128
1772791602825172000,6.817171875,3.5986075401306152,-2.848223924636841,2.9733877182006836
1772791602845274400,6.8372744140625,-0.20661002397537231,-3.6267545223236084,5.052663326263428
1772791602865376800,6.857376708984375,-7.007972240447998,-3.827375888824463,4.197477340698242
1772791602885479200,6.877479248046875,-10.217314720153809,-0.9617846608161926,-1.7876259088516235
1772791602905581600,6.89758154296875,-12.830781936645508,4.626267910003662,-7.40981388092041
1772791602925684000,6.91768408203125,-19.986675262451172,12.969719886779785,-10.335291862487793
1772791602945786400,6.937786376953125,-24.48598289489746,7.878728866577148,5.3874311447143555
1772791602965888800,6.957888671875,-10.065800666809082,-4.663397789001465,19.608787536621094
1772791602985991200,6.9779912109375,4.047161102294922,-17.047422409057617,18.906314849853516
1772791603006093600,6.998093505859375,5.233521938323975,-19.39738655090332,10.181981086730957
1772791603026196000,7.018196044921875,3.229703903198242,-18.21282386779785,7.4667067527771
1772791603046298400,7.03829833984375,2.4451847076416016,-20.013025283813477,16.740800857543945
1772791603066400800,7.05840087890625,-0.18744619190692902,-22.883407592773438,22.625295639038086
1772791603106605600,7.09860546875,29.51828384399414,-29.866228103637695,22.912153244018555
1772791603126708000,7.1187080078125,38.2006950378418,-28.127708435058594,24.31770133972168
1772791603146810400,7.138810302734375,25.56694221496582,-26.623348236083984,19.842947006225586
1772791603166911500,7.158911376953125,11.52464771270752,-21.250289916992188,12.227720260620117
1772791603187013000,7.17901318359375,6.028221607208252,-14.521390914916992,8.280570030212402
1772791603207114500,7.199114501953125,4.354979991912842,-10.408952713012695,6.760040283203125
1772791603227216000,7.2192158203125,6.089306354522705,-9.062694549560547,6.430662155151367
1772791603247317200,7.239317138671875,8.060186386108398,-9.062694549560547,7.248119354248047
1772791603267418600,7.259418701171875,9.28487491607666,-8.594378471374512,7.248119354248047
1772791603287520000,7.27952001953125,8.717744827270508,-7.390650272369385,5.231126308441162
1772791603307621400,7.299621337890625,7.3894524574279785,-6.40730619430542,2.051727294921875
1772791603327722800,7.31972265625,6.004266738891602,-5.389826774597168,-1.107908844947815
1772791603347824000,7.33982421875,4.861024856567383,-4.190889835357666,-3.4452970027923584
1772791603367925500,7.359925537109375,3.9675114154815674,-2.882359504699707,-4.817307472229004
1772791603388027000,7.38002685546875,3.6555001735687256,-1.8169704675674438,-5.191001892089844
1772791603408128300,7.400128173828125,2.9129018783569336,-1.191151738166809,-4.842459678649902
1772791603428229600,7.420229736328125,1.2115132808685303,-0.6467791795730591,-4.211251258850098
1772791603448331000,7.4403310546875,0.81925368309021,-0.19283601641654968,-4.407081604003906
1772791603468432400,7.460432373046875,1.2306771278381348,0.22277949750423431,-5.286821365356445
1772791603488533800,7.48053369140625,0.2754800319671631,0.9342366456985474,-6.142605781555176
1772791603508635100,7.50063525390625,-2.475128173828125,1.6409027576446533,-8.026050567626953
1772791603528736500,7.520736572265625,-7.277463912963867,-1.4822022914886475,-9.914286613464355
1772791603548838000,7.540837890625,-8.974061965942383,-18.62843894958496,-5.234120845794678
1772791603568939300,7.560939208984375,5.3095784187316895,-41.749000549316406,13.61949348449707
1772791603589040600,7.58104052734375,37.879703521728516,-48.08204650878906,32.420406341552734
1772791603609142000,7.60114208984375,55.036720275878906,-38.84029006958008,37.225135803222656
1772791603629243400,7.621243408203125,22.651046752929688,-31.657445907592773,22.410301208496094
1772791603649344500,7.641344482421875,1.4810045957565308,-19.521352767944336,7.9452033042907715
1772791603669445400,7.6614453125,1.3678182363510132,-9.778343200683594,6.869633674621582
1772791603689546000,7.6815458984375,5.432346343994141,-10.217913627624512,12.428940773010254
1772791603709646600,7.701646484375,10.220309257507324,-13.565594673156738,18.227794647216797
1772791603729747200,7.721747314453125,14.436351776123047,-14.358498573303223,19.446495056152344
1772791603749848000,7.74184814453125,13.448216438293457,-13.489538192749023,14.011154174804688
1772791603769948700,7.76194873046875,8.145225524902344,-11.216229438781738,7.964367389678955
1772791603790049300,7.78204931640625,2.3745181560516357,-7.614627361297607,4.790358066558838
1772791603810150000,7.80214990234375,-1.6241344213485718,-4.334019660949707,3.6812517642974854
1772791603830250800,7.822250732421875,-2.484710216522217,-1.5061571598052979,2.925478219985962
1772791603850351400,7.842351318359375,-2.602687358856201,0.7479881644248962,1.8738631010055542
1772791603870452000,7.862451904296875,-2.6356253623962402,2.233184814453125,0.9420219659805298
1772791603890552600,7.882552490234375,-3.112924337387085,2.591308832168579,0.08144626766443253
1772791603910653400,7.9026533203125,-3.411161422729492,2.1762921810150146,-0.8605756759643555
1772791603930754000,7.922754150390625,-3.051839590072632,1.6840214729309082,-1.1755810976028442
1772791603950854700,7.942854736328125,-2.2200098037719727,1.349852204322815,-0.8893213868141174
1772791603970955300,7.962955322265625,-0.7312198281288147,1.168394684791565,-0.8366208672523499
1772791603991056100,7.98305615234375,0.5216154456138611,0.9677733182907104,-1.0420331954956055
1772791604011156700,8.00315673828125,1.069581151008606,1.0492196083068848,-1.5157390832901
1772791604031257300,8.02325732421875,0.37489238381385803,1.1444398164749146,-1.625332236289978
1772791604051358000,8.04335791015625,-0.5090391635894775,1.2115132808685303,-1.2528352737426758
1772791604071458800,8.063458740234376,-1.1941460371017456,1.1061122417449951,-1.1043156385421753
1772791604091559400,8.083559326171875,-1.2366658449172974,1.0869483947753906,-1.0138863325119019
1772791604111660000,8.103659912109375,-0.7689486145973206,1.3690159320831299,-0.2964404821395874
1772791604131760600,8.1237607421875,-1.1612082719802856,2.343376874923706,0.7647565007209778
1772791604151861200,8.143861328125,-1.4965752363204956,4.8268890380859375,-0.9995134472846985
1772791604171962000,8.163962158203125,-3.31174898147583,6.813938617706299,-2.227795124053955
1772791604192062700,8.184062744140626,-8.151813507080078,7.238537311553955,0.3629150092601776
1772791604212163300,8.204163330078124,-12.424149513244629,0.14133323729038239,9.106411933898926
1772791604232264000,8.224263916015625,-9.975970268249512,-23.136730194091797,21.320358276367188
1772791604252364500,8.244364501953125,-0.6270164847373962,-41.400455474853516,23.122356414794922
1772791604272465200,8.264465087890626,15.404723167419434,-38.43904495239258,18.112812042236328
1772791604292565800,8.284565673828125,27.9821834564209,-21.097578048706055,15.096305847167969
1772791604312666600,8.30466650390625,23.969158172607422,-13.441629409790039,14.317176818847656
1772791604332767200,8.324767333984376,16.510835647583008,-17.233671188354492,13.155369758605957
1772791604352867800,8.344867919921874,14.454916000366211,-19.26803207397461,12.108545303344727
1772791604372968400,8.364968505859375,14.904068946838379,-18.996145248413086,11.70251178741455
1772791604393069000,8.385069091796876,17.045026779174805,-15.423288345336914,9.522625923156738
1772791604413169700,8.405169677734374,15.759254455566406,-11.077291488647461,7.8350114822387695
1772791604433270500,8.4252705078125,11.368941307067871,-8.961484909057617,7.734401226043701
1772791604453371100,8.44537109375,9.029157638549805,-8.7608642578125,6.783396244049072
1772791604473471700,8.4654716796875,8.65067195892334,-8.474604606628418,5.119736671447754
1772791604493572400,8.485572265625,8.33926010131836,-8.178163528442383,4.661002159118652
1772791604513673000,8.5056728515625,7.724819660186768,-8.0829439163208,5.1293182373046875
1772791604533773600,8.525773681640626,7.97993803024292,-8.054197311401367,5.965939521789551
1772791604553874400,8.54587451171875,9.478309631347656,-7.920650005340576,6.171351432800293
1772791604573975000,8.56597509765625,10.475427627563477,-7.619418144226074,6.0857133865356445
1772791604594075600,8.58607568359375,10.281394004821777,-7.333158493041992,5.717408180236816
1772791604614176300,8.60617626953125,9.03394889831543,-7.118164539337158,5.038290023803711
1772791604634276900,8.62627685546875,7.582887172698975,-6.664221286773682,4.235206127166748
1772791604674478600,8.666478515625,5.876707553863525,-5.685069561004639,2.3852977752685547
1772791604694579500,8.686579345703125,5.625781536102295,-5.284425735473633,1.682823657989502
1772791604714680300,8.706680419921875,5.092188358306885,-5.021522045135498,1.5301119089126587
1772791604734781200,8.72678125,4.690347194671631,-4.414866924285889,1.2719991207122803
1772791604754882000,8.746882080078125,4.813115119934082,-4.2429914474487305,1.1665980815887451
1772791604774983000,8.76698291015625,4.349590301513672,-5.804843425750732,2.1750946044921875
1772791604795083800,8.787083740234374,3.300370454788208,-7.681700706481934,3.035670280456543
1772791604815185000,8.807184814453125,5.370662689208984,-7.810457706451416,3.8483362197875977
1772791604835285800,8.82728564453125,7.932627201080322,-8.211700439453125,5.033499240875244
1772791604855386600,8.84738671875,9.30344009399414,-8.875846862792969,5.755136966705322
1772791604875487500,8.867487548828125,9.695699691772461,-9.047722816467285,6.008459091186523
1772791604895588400,8.88758837890625,8.669836044311523,-8.765654563903809,5.745555400848389
1772791604915689200,8.907689208984374,6.727102756500244,-8.321293830871582,5.243702411651611
1772791604935790000,8.9277900390625,5.1676459312438965,-7.672119140625,4.507691860198975
1772791604975991800,8.96799169921875,4.496313095092773,-6.907961368560791,3.245274543762207
1772791604996093000,8.988093017578125,3.8249802589416504,-6.468390941619873,2.924879312515259
1772791605016193800,9.00819384765625,3.607590675354004,-6.219860076904297,3.1877830028533936
1772791605036294700,9.028294677734374,3.877082109451294,-6.139012813568115,3.7327544689178467
1772791605056395500,9.0483955078125,4.864617824554443,-6.4156904220581055,4.244189262390137
1772791605076496400,9.068496337890625,6.571396350860596,-7.256503582000732,4.942471027374268
1772791605096597200,9.08859716796875,8.31530475616455,-8.321293830871582,5.8551483154296875
1772791605116698000,9.108697998046875,10.399371147155762,-9.353145599365234,7.045701026916504
1772791605136799200,9.12879931640625,11.954635620117188,-9.59628677368164,7.834412574768066
1772791605156900400,9.148900390625,11.203054428100586,-9.004005432128906,7.4613165855407715
1772791605177002200,9.169002197265625,9.487293243408203,-8.503350257873535,6.463001251220703
1772791605197104000,9.189104248046876,9.978964805603027,-7.939813613891602,4.856832981109619
1772791605217205800,9.209205810546875,10.007710456848145,-6.998989582061768,3.4518845081329346
1772791605237307600,9.2293076171875,8.150016784667969,-5.847961902618408,2.930867910385132
1772791605257409300,9.2494091796875,6.259385585784912,-4.544222831726074,2.739229679107666
1772791605277511200,9.26951123046875,5.404199600219727,-3.4357151985168457,2.2900774478912354
1772791605297612800,9.28961279296875,5.385035991668701,-2.561964273452759,1.4917842149734497
1772791605317714700,9.309714599609375,5.6353631019592285,-1.7738518714904785,0.37788674235343933
1772791605337816600,9.329816650390624,5.526968002319336,-0.5797058343887329,-0.3772878646850586
1772791605357918200,9.349918212890625,3.0266871452331543,-0.4317850172519684,0.9611857533454895
1772791605378020000,9.37002001953125,1.9822584390640259,-0.7090616226196289,1.4678294658660889
1772791605398121700,9.390121826171875,2.9464385509490967,-1.3821910619735718,0.6695362329483032
1772791605418223600,9.4102236328125,4.987985134124756,-2.2373769283294678,0.5264064073562622
1772791605438325200,9.4303251953125,6.954074382781982,-3.0111165046691895,2.4290151596069336
1772791605458427100,9.45042724609375,8.235055923461914,-3.053636312484741,5.101171493530273
1772791605478529000,9.470529052734374,8.079350471496582,-2.2751057147979736,7.285848140716553
1772791605498630700,9.490630615234375,8.589587211608887,-0.937829852104187,8.433281898498535
1772791605518732500,9.510732666015626,8.64168930053711,0.3802822232246399,8.542875289916992
1772791605538834200,9.530834228515625,7.776921272277832,-0.05928809568285942,8.877643585205078
1772791605558936000,9.55093603515625,7.034921646118164,-0.3742935359477997,7.997903823852539
1772791605579037700,9.57103759765625,7.852378845214844,-2.146348714828491,7.600254535675049
1772791605599139600,9.5911396484375,11.330613136291504,-4.2046637535095215,6.825916290283203
1772791605619241200,9.6112412109375,13.585357666015625,-4.715499401092529,5.34431266784668
1772791605639343000,9.631343017578125,12.148669242858887,-3.349477767944336,3.910019874572754
1772791605659444700,9.65144482421875,9.170490264892578,-1.7067784070968628,3.618370294570923
1772791605679546000,9.671546142578125,7.9278364181518555,-0.4216042160987854,5.243702411651611
1772791605699647700,9.691647705078125,9.501666069030762,-0.16888123750686646,8.470412254333496
1772791605719749000,9.7117490234375,13.736272811889648,-2.293670654296875,10.673653602600098
1772791605739850800,9.731850830078125,23.378673553466797,-7.0648651123046875,11.658794403076172
1772791605759952100,9.7519521484375,31.597558975219727,-8.597970962524414,8.962682723999023
1772791605780053800,9.7720537109375,28.984092712402344,-7.843994617462158,6.687577247619629
1772791605800155400,9.7921552734375,21.440731048583984,-7.739192485809326,6.7786054611206055
1772791605820256800,9.8122568359375,14.639368057250977,-5.819216251373291,4.335816383361816
1772791605840358400,9.8323583984375,8.90159797668457,-2.3852977752685547,0.023954786360263824
1772791605860459800,9.852459716796876,5.347307205200195,0.3659093379974365,-2.633828639984131
1772791605880561400,9.8725615234375,2.870382070541382,1.8415241241455078,-2.4332072734832764
1772791605900662800,9.892662841796875,1.504360556602478,2.3337950706481934,-2.1798853874206543
1772791605920764400,9.912764404296874,-0.31021445989608765,1.7367219924926758,-1.7732529640197754
1772791605940866000,9.932865966796875,-2.6691620349884033,0.21798855066299438,-1.73013436794281
1772791605960967400,9.952967529296876,-4.446008205413818,-1.2438522577285767,-3.5231499671936035
1772791605981069000,9.973069091796875,-5.220945358276367,-2.227196216583252,-5.8940749168396
1772791606001170400,9.99317041015625,-5.207171440124512,-3.239884614944458,-5.717408180236816
1772791606021272000,10.01327197265625,-4.498109817504883,-3.927985906600952,-6.892989635467529
1772791606041373400,10.03337353515625,-2.27630352973938,-4.58195161819458,-4.340607166290283
1772791606061475000,10.05347509765625,-0.4144177734851837,-4.128607273101807,-2.91589617729187
1772791606081576400,10.073576416015625,0.8144627213478088,-3.6555001735687256,-2.5715463161468506
1772791606101678000,10.093677978515625,2.9602127075195312,-1.6924055814743042,-1.7828348875045776
1772791606121779500,10.113779541015624,8.494965553283691,-0.05928809568285942,4.923906326293945
1772791606141881000,10.133881103515625,18.24576187133789,0.6192312240600586,22.82172393798828
1772791606161983000,10.15398291015625,17.243852615356445,8.671632766723633,28.830781936645508
1772791606182084900,10.1740849609375,18.330801010131836,13.471572875976562,30.23992156982422
1772791606202187000,10.19418701171875,25.26451301574707,8.82434368133545,37.74555587768555
1772791606222289000,10.214288818359375,28.350488662719727,5.615001678466797,31.68379783630371
1772791606242390800,10.234390869140626,21.36048126220703,3.6662797927856445,24.29314613342285
1772791606262493000,10.254492919921875,14.535164833068848,0.6527678966522217,22.873226165771484
1772791606282594800,10.2745947265625,7.988921165466309,0.4952651858329773,19.369239807128906
1772791606302696700,10.29469677734375,3.9573304653167725,1.8804506063461304,13.073324203491211
1772791606322798800,10.314798828125,4.34000825881958,2.4056594371795654,6.428865432739258
1772791606342900700,10.334900634765624,4.113036632537842,-0.7036718130111694,3.053636312484741
1772791606363002600,10.355002685546875,2.661975622177124,-1.5343040227890015,-1.6546767950057983
1772791606383104800,10.375104736328124,-1.4354904890060425,-0.3982483148574829,-5.879702091217041
1772791606403206700,10.39520654296875,-4.190889835357666,0.7144514918327332,-7.9835309982299805
1772791606423308500,10.41530859375,-3.3919975757598877,1.4786090850830078,-7.878129959106445
1772791606443410700,10.43541064453125,-1.4211176633834839,1.2163041830062866,-4.13998556137085
1772791606463512600,10.4555126953125,0.7952988743782043,-0.1401354968547821,1.6732417345046997
1772791606483614500,10.475614501953125,3.3428902626037598,-0.26470038294792175,5.430549621582031
1772791606503716600,10.495716552734375,4.931092739105225,1.4073436260223389,4.402889728546143
1772791606523818500,10.515818603515624,2.293670654296875,2.4050605297088623,1.8834450244903564
1772791606543920400,10.53592041015625,-2.952427387237549,1.6504846811294556,-0.07605644315481186
1772791606564022300,10.556022216796874,-7.201407432556152,0.29883596301078796,-1.476812481880188
1772791606584124400,10.57612451171875,-8.841711044311523,0.28985291719436646,-3.4902122020721436
1772791606604226300,10.596226318359374,-6.955870628356934,1.2450499534606934,-4.083093166351318
1772791606624328400,10.616328369140625,-4.313657760620117,1.7223490476608276,-2.2517497539520264
1772791606644430300,10.636430419921876,-2.2343826293945312,2.386495590209961,0.573118269443512
1772791606664532000,10.656531982421875,-0.9060897827148438,3.876483201980591,3.46026873588562
1772791606684633300,10.67663330078125,-0.5186210870742798,5.5910468101501465,5.616199493408203
1772791606704735000,10.69673486328125,-0.8258412480354309,8.342253684997559,6.146798133850098
1772791606724836600,10.716836669921875,-0.5892876982688904,11.289291381835938,3.866901159286499
1772791606744938000,10.73693798828125,3.1871840953826904,13.772804260253906,3.2356927394866943
1772791606765039600,10.75703955078125,3.6782572269439697,12.965527534484863,9.99992561340332
1772791606785141200,10.777141357421876,-2.9668002128601074,14.245311737060547,13.838679313659668
1772791606805243000,10.797242919921874,-11.621065139770508,16.37070083618164,15.36400032043457
1772791606825344300,10.81734423828125,-15.732904434204102,15.133435249328613,14.077628135681152
1772791606845446000,10.83744580078125,-10.916794776916504,13.944080352783203,5.726391315460205
1772791606865547300,10.85754736328125,-3.855522632598877,12.779278755187988,0.530598521232605
1772791606885649000,10.87764892578125,1.5941909551620483,12.840962409973145,4.230415344238281
1772791606905750500,10.89775048828125,4.420855522155762,13.25657844543457,9.842422485351562
1772791606945953500,10.93795361328125,0.6629486680030823,14.307594299316406,10.913201332092285
1772791606966055200,10.95805517578125,-2.711681604385376,14.059063911437988,11.047348022460938
1772791606986156800,10.97815673828125,-4.762810230255127,12.826589584350586,9.39806079864502
1772791607006258200,10.998258056640625,-3.453681230545044,10.24306583404541,6.180933475494385
1772791607026359800,11.01835986328125,-0.6036605834960938,6.961859703063965,3.356065511703491
1772791607046461400,11.03846142578125,1.8828461170196533,4.4687652587890625,1.0995246171951294
1772791607066562800,11.058562744140625,2.502077341079712,2.9500317573547363,-0.36351385712623596
1772791607086664400,11.07866455078125,2.502077341079712,1.9325523376464844,-0.9941235780715942
1772791607106766000,11.09876611328125,2.6817381381988525,1.2779878377914429,-1.1851630210876465
1772791607126867700,11.11886767578125,2.5398061275482178,0.9438185691833496,-0.6593554615974426
1772791607146969000,11.138968994140624,2.265523910522461,0.9438185691833496,-0.15271176397800446
1772791607167070200,11.1590703125,1.7031852006912231,1.0821573734283447,-0.6641464233398438
1772791607187171300,11.17917138671875,1.655874490737915,1.421716570854187,-1.3911741971969604
1772791607207272400,11.1992724609375,2.028970241546631,1.803795337677002,-2.3900887966156006
1772791607227373600,11.21937353515625,2.870382070541382,2.348167896270752,-2.815885066986084
1772791607247474700,11.239474609375,5.044878005981445,5.61021089553833,-4.125612735748291
1772791607267575800,11.259575927734375,7.223565578460693,13.891380310058594,-8.532694816589355
1772791607287677200,11.27967724609375,7.403226375579834,19.990867614746094,2.6865291595458984
1772791607307778300,11.2997783203125,10.985664367675781,26.863494873046875,31.985628128051758
1772791607327879400,11.31987939453125,7.478683948516846,29.948871612548828,41.95740509033203
1772791607347980500,11.33998046875,6.112662315368652,26.18497657775879,29.671594619750977
1772791607368081700,11.36008154296875,10.489800453186035,17.936744689941406,21.6407527923584
1772791607388182800,11.380182861328125,10.952726364135742,12.373245239257812,15.521503448486328
1772791607408284000,11.400283935546875,7.3229780197143555,10.43410587310791,8.571022033691406
1772791607428385000,11.420385009765624,3.205749273300171,9.072875022888184,4.383126735687256
1772791607448486100,11.440486083984375,0.8521915078163147,7.76913595199585,1.0324512720108032
1772791607468587300,11.460587158203126,0.3275817036628723,7.009768962860107,-2.711082935333252
1772791607488688600,11.480688720703125,0.6821125149726868,5.457499027252197,-3.8147995471954346
1772791607508789800,11.500789794921875,-0.1826552450656891,3.0218961238861084,-2.6775460243225098
1772791607528891000,11.520890869140626,-1.7145637273788452,0.8342254161834717,-1.8169704675674438
1772791607548992000,11.540991943359375,-2.342777967453003,-0.6461803317070007,-0.4497511088848114
1772791607569093000,11.561093017578125,-2.4326083660125732,-1.2719991207122803,-0.13893775641918182
1772791607589194200,11.5811943359375,-2.040348768234253,-1.7115694284439087,-1.7780439853668213
1772791607609295400,11.60129541015625,-2.4895009994506836,-2.8961336612701416,-1.8307445049285889
1772791607629396500,11.621396484375,-2.271512508392334,-3.5123703479766846,-2.2511508464813232
1772791607649497600,11.64149755859375,-1.1516263484954834,-3.7609012126922607,-1.3378747701644897
1772791607669598500,11.661598388671875,0.16708463430404663,-3.746528387069702,-0.2239772379398346
1772791607689699300,11.68169921875,1.192948341369629,-3.3309128284454346,1.262417197227478
1772791607709800000,11.701800048828124,1.788224697113037,-2.772167444229126,3.4231388568878174
1772791607729900800,11.72190087890625,1.3863831758499146,-2.2469589710235596,4.671183109283447
1772791607750001700,11.742001708984375,0.6869034767150879,-1.8217614889144897,4.221432209014893
1772791607770102500,11.7621025390625,-0.2724856734275818,-1.2198973894119263,2.4050605297088623
1772791607790203100,11.782203125,-2.380506753921509,-0.5030505061149597,-0.32039526104927063
1772791607810304000,11.802303955078125,-2.7589924335479736,1.2540329694747925,-3.6758618354797363
1772791607830404900,11.82240478515625,-2.8955347537994385,3.107534646987915,-3.174009084701538
1772791607850505700,11.842505615234375,-0.8821349740028381,5.495227813720703,6.907362461090088
1772791607870606300,11.8626064453125,-8.83212947845459,8.017067909240723,25.832839965820312
1772791607890707200,11.882707275390626,-14.111763954162598,9.736422538757324,39.0361213684082
1772791607910808000,11.90280810546875,-1.0192761421203613,5.443126201629639,38.87861633300781
1772791607930908700,11.92290869140625,20.755624771118164,1.985252857208252,31.646068572998047
1772791607951009500,11.943009521484376,30.676498413085938,1.8181681632995605,24.9578914642334
1772791607971110400,11.9631103515625,24.621326446533203,4.3537821769714355,17.3049373626709
1772791607991211300,11.983211181640625,11.851031303405762,7.716435432434082,15.445446968078613
1772791608011312000,12.00331201171875,5.559905529022217,10.319122314453125,17.142044067382812
1772791608031412700,12.023412841796874,7.063068389892578,11.131190299987793,19.929183959960938
1772791608051513600,12.043513671875,10.53651237487793,10.471834182739258,19.886064529418945
1772791608071614500,12.063614501953126,10.361642837524414,8.662050247192383,16.2676944732666
1772791608091715300,12.08371533203125,9.057304382324219,6.928322792053223,10.138862609863281
1772791608111816000,12.10381591796875,8.6177339553833,5.509600639343262,5.296402931213379
1772791608131916800,12.123916748046875,7.010966777801514,4.143579006195068,3.872291088104248
1772791608152017700,12.144017578125,5.328143119812012,2.8781673908233643,3.6614890098571777
1772791608172118800,12.164118896484375,5.403600692749023,2.1475465297698975,1.6588689088821411
1772791608192220000,12.184219970703126,6.070741653442383,1.745705008506775,-1.1851630210876465
1772791608212321000,12.204321044921874,5.819815158843994,1.817569375038147,-3.4411048889160156
1772791608232422000,12.224421875,3.768686532974243,2.3140323162078857,-4.110641002655029
1772791608252523000,12.24452294921875,1.622936725616455,2.5769360065460205,-3.2261106967926025
1772791608272624000,12.2646240234375,2.199648141860962,2.748811721801758,-2.657184600830078
1772791608292725200,12.284725341796875,4.822697162628174,2.748811721801758,-2.1744956970214844
1772791608312826400,12.304826416015626,6.959464073181152,2.9398510456085205,0.1682823747396469
1772791608332927200,12.32492724609375,7.469700813293457,3.8758842945098877,4.054946422576904
1772791608353028400,12.3450283203125,9.218400001525879,6.77022123336792,7.267282962799072
1772791608373129500,12.36512939453125,13.939888954162598,12.955347061157227,8.031440734863281
1772791608393230600,12.385230712890625,18.595500946044922,18.1517391204834,17.023468017578125
1772791608433432600,12.4254326171875,12.957143783569336,19.302766799926758,25.403451919555664
1772791608453533700,12.44553369140625,16.383275985717773,17.674440383911133,28.271438598632812
1772791608473634800,12.465634765625,17.701988220214844,14.144701957702637,31.932926177978516
1772791608493736000,12.48573583984375,5.649735927581787,12.014522552490234,24.920164108276367
1772791608513837000,12.505837158203125,0.30422577261924744,9.25373363494873,12.524759292602539
1772791608533938200,12.525938232421876,1.33428156375885,7.061870574951172,4.183104515075684
1772791608554039000,12.5460390625,-3.4962010383605957,3.5896246433258057,2.63921856880188
1772791608574140200,12.56614013671875,-7.177452564239502,-1.391772985458374,2.563162088394165
1772791608594241300,12.5862412109375,-5.017928600311279,-4.916719913482666,-2.1409590244293213
1772791608614342400,12.60634228515625,-3.3255231380462646,-7.313994884490967,-5.917430877685547
1772791608634443500,12.626443603515625,-4.724482536315918,-9.238761901855469,-5.850357532501221
1772791608654544600,12.646544677734376,-5.490437030792236,-10.509563446044922,-5.223939895629883
1772791608674646300,12.666646240234375,-3.7980313301086426,-10.88685131072998,-6.127634048461914
1772791608694748000,12.686747802734375,-2.905116558074951,-10.623947143554688,-5.419770240783691
1772791608714849300,12.706849365234374,-2.9572181701660156,-9.822060585021973,-3.426732063293457
1772791608734951000,12.726950927734375,-4.0345845222473145,-8.522513389587402,-0.677920401096344
1772791608755052500,12.747052490234376,-5.51858377456665,-6.631283283233643,1.8990156650543213
1772791608775154200,12.767154296875,-4.8897705078125,-4.874199867248535,6.03900146484375
1772791608815357200,12.807357177734374,1.6181457042694092,4.501104354858398,1.7840327024459839
1772791608835458800,12.827458740234375,3.6273534297943115,12.396002769470215,2.8691844940185547
1772791608855560400,12.847560546875,0.14851966500282288,22.268367767333984,8.180559158325195
1772791608875661800,12.867661865234375,6.033012866973877,24.32189178466797,15.528090476989746
1772791608895763500,12.887763427734376,15.892203330993652,22.377962112426758,15.810158729553223
1772791608915865000,12.907864990234375,15.15499496459961,19.82258415222168,8.5919828414917
1772791608935966700,12.927966796875,16.828237533569336,9.965190887451172,0.7473893165588379
1772791608956068000,12.948068115234374,15.532881736755371,5.322753429412842,-19.856121063232422
1772791608976169700,12.968169677734375,8.353632926940918,22.368379592895508,-10.49638843536377
1772791608996271400,12.988271240234376,-6.147397041320801,31.925142288208008,31.063966751098633
1772791609016372700,13.008372802734375,1.0887449979782104,35.71299362182617,17.774450302124023
1772791609036474400,13.028474365234375,12.999663352966309,28.4151668548584,4.729273319244385
1772791609056576000,13.048575927734374,14.725007057189941,20.549013137817383,4.700527667999268
1772791609076677600,13.068677734375,6.567204475402832,15.319085121154785,1.5834113359451294
1772791609096779000,13.088779052734376,1.2779878377914429,9.902908325195312,-0.40004491806030273
1772791609116880600,13.108880615234375,0.26170602440834045,6.187520980834961,-3.0488452911376953
1772791609136982300,13.128982177734375,-0.792304515838623,1.5163378715515137,-1.6624621152877808
1772791609157083400,13.14908349609375,-2.9991390705108643,-3.498596429824829,-1.7007898092269897
1772791609177184300,13.169184326171875,-6.0150465965271,-5.136504650115967,-6.615114212036133
1772791609217386200,13.20938623046875,-5.381442546844482,-8.05479621887207,-5.8934760093688965
1772791609237487000,13.229487060546875,1.0749709606170654,-9.124378204345703,-5.80244779586792
1772791609257588000,13.249587890625,6.4486284255981445,-7.452932834625244,-5.539544105529785
1772791609277688800,13.269688720703124,2.79492449760437,-5.064640522003174,-2.6332297325134277
1772791609297790000,13.2897900390625,-3.0230939388275146,-2.409252643585205,-0.7449938058853149
1772791609317890800,13.309890869140625,-5.164052963256836,-0.4892764985561371,-0.29584160447120667
1772791609337991700,13.32999169921875,-4.833477020263672,1.1294680833816528,-0.4868810176849365
1772791609358092500,13.350092529296875,-4.086686611175537,1.6552757024765015,-0.959987998008728
1772791609378193700,13.370193603515625,-3.211737871170044,0.5994685292243958,-0.4527454376220703
1772791609398294500,13.39029443359375,-0.31440654397010803,-0.81925368309021,0.3599206507205963
1772791609418395400,13.4103955078125,4.591533660888672,-0.29883596301078796,-0.22337837517261505
1772791609438496300,13.430496337890625,9.752592086791992,2.7098851203918457,1.674439549446106
1772791609458597400,13.450597412109374,8.538084030151367,8.169180870056152,4.294494152069092
1772791609478698200,13.4706982421875,3.5896246433258057,15.786802291870117,5.642549514770508
1772791609498799000,13.490799072265625,-0.5365871787071228,23.122955322265625,7.764943599700928
1772791609518900000,13.51089990234375,-2.6164615154266357,28.491222381591797,7.458921432495117
1772791609539001000,13.5310009765625,0.4084290862083435,29.80454444885254,6.833102703094482
1772791609559102000,13.55110205078125,6.812740802764893,30.506420135498047,10.986862182617188
1772791609579202800,13.571202880859374,10.489800453186035,30.716623306274414,20.16992950439453
1772791609599303700,13.5913037109375,7.928435325622559,29.651832580566406,23.401430130004883
1772791609619404800,13.61140478515625,4.350189208984375,25.34835433959961,17.488191604614258
1772791609639505700,13.631505615234374,2.899127960205078,21.36048126220703,8.739903450012207
1772791609659606000,13.65160595703125,0.7437961101531982,18.418834686279297,3.2764158248901367
1772791609679706000,13.6717060546875,-1.4959763288497925,14.339933395385742,1.7223490476608276
1772791609699806200,13.69180615234375,-2.1864731311798096,10.308941841125488,-0.8300333023071289
1772791609719906300,13.71190625,-2.739229679107666,6.870232582092285,-4.707115173339844
1772791609740006400,13.73200634765625,-3.977692127227783,4.147770881652832,-6.672006607055664
1772791609760106500,13.7521064453125,-7.130141735076904,0.9096829891204834,-4.850244998931885
1772791609780206600,13.77220654296875,-7.375678539276123,-1.9798630475997925,-4.649623870849609
1772791609800307000,13.792306884765624,-4.327432155609131,-3.7423362731933594,-7.140322685241699
1772791609820407000,13.812406982421875,-2.57873272895813,-5.504809856414795,-6.700153350830078
1772791609840507100,13.832507080078125,-2.904517650604248,-7.085825443267822,-3.6219635009765625
1772791609860607200,13.852607177734376,-3.3866078853607178,-7.276865005493164,-1.919975996017456
1772791609880707300,13.872707275390624,-3.1033425331115723,-7.9068756103515625,0.11677958071231842
1772791609900807400,13.892807373046875,-0.441965788602829,-7.472695350646973,-0.256316214799881
1772791609920907500,13.912907470703125,1.8361343145370483,-6.307294845581055,-1.336677074432373
1772791609941007600,13.933007568359375,2.171501398086548,-4.883781909942627,-0.7917056679725647
1772791609961107700,13.953107666015624,1.4151289463043213,-2.8967323303222656,0.4940674602985382
1772791609981207800,13.973207763671875,0.5928809642791748,-0.441965788602829,2.563760995864868
1772791610001308200,13.99330810546875,0.21020324528217316,1.8936257362365723,5.522775650024414
1772791610021408300,14.013408203125,2.530822992324829,4.649623870849609,5.637159824371338
1772791610041508400,14.03350830078125,8.745892524719238,7.285848140716553,2.965003490447998
1772791610061608400,14.0536083984375,13.217052459716797,10.953924179077148,4.021409511566162
1772791610081708500,14.07370849609375,13.63805866241455,16.646780014038086,7.745181083679199
1772791610101808600,14.09380859375,13.53864574432373,20.047161102294922,15.3220796585083
1772791610121908700,14.11390869140625,13.96384334564209,21.351499557495117,20.174121856689453
1772791610142008800,14.1340087890625,15.395740509033203,21.84796142578125,22.664819717407227
1772791610162109700,14.154109619140625,21.544933319091797,18.404460906982422,21.665904998779297
1772791610182210800,14.1742109375,27.770183563232422,14.186622619628906,19.224313735961914
1772791610202311700,14.194311767578125,24.669836044311523,11.774974822998047,18.03855323791504
1772791610222412800,14.214412841796875,14.928622245788574,10.25085163116455,13.57876968383789
1772791610242513700,14.234513671875,6.818130970001221,7.657745838165283,9.161507606506348
1772791610262614800,14.25461474609375,2.034959077835083,4.620279312133789,5.432945251464844
1772791610282715600,14.274715576171875,-1.9211738109588623,2.050529718399048,2.287682056427002
1772791610302816800,14.294816650390626,-4.5633864402771,0.36950257420539856,-0.288655161857605
1772791610322917600,14.314917724609375,-6.174944877624512,-0.9012988209724426,-1.933151125907898
1772791610343018800,14.335018798828125,-6.803758144378662,-2.343376874923706,-2.5499868392944336
1772791610363119600,14.35511962890625,-5.669498920440674,-3.3416926860809326,-3.1805965900421143
1772791610383220700,14.375220703125,-3.67466402053833,-3.8046188354492188,-3.0811843872070312
1772791610403321600,14.395321533203125,-2.5972976684570312,-3.9148108959198,-2.679342746734619
1772791610423422700,14.415422607421876,-1.8786540031433105,-3.7141895294189453,-2.0439419746398926
1772791610443523600,14.435523681640625,-1.5528689622879028,-3.2602462768554688,-1.1642025709152222
1772791610463624700,14.455624755859375,-0.8156604170799255,-2.5487892627716064,-0.4234008193016052
1772791610503826400,14.495826416015625,1.5432870388031006,-0.1988247185945511,1.9481229782104492
1772791610523927600,14.515927490234375,2.403263807296753,1.048021912574768,3.1859865188598633
1772791610544028400,14.5360283203125,3.178201198577881,1.7738518714904785,2.650597095489502
1772791610564129500,14.556129638671875,4.6340532302856445,1.6211401224136353,0.7288243174552917
1772791610584230400,14.57623046875,4.8376688957214355,-0.0604858323931694,0.14552532136440277
1772791610604331500,14.59633154296875,3.7878503799438477,-0.6144402623176575,-3.2249128818511963
1772791610624432400,14.616432373046875,2.228394031524658,8.27877426147461,-6.738481044769287
1772791610644533500,14.636533447265625,-10.329902648925781,25.47711181640625,25.91189193725586
1772791610664635000,14.656634765625,-27.6192684173584,43.31085205078125,80.99112701416016
1772791610684736300,14.676736328125,-15.524497985839844,36.17531967163086,80.02515411376953
1772791610704837600,14.696837646484376,20.543624877929688,14.444735527038574,41.00819778442383
1772791610724939000,14.71693896484375,31.107086181640625,9.114795684814453,21.886289596557617
1772791610745040400,14.737040283203125,11.307856559753418,6.349215984344482,17.770856857299805
1772791610765141800,14.757141845703124,0.6449825763702393,1.8882359266281128,6.140210151672363
1772791610785243100,14.7772431640625,-3.344088077545166,-2.4008684158325195,-4.6340532302856445
1772791610805344300,14.79734423828125,-8.448253631591797,-6.3552045822143555,-9.37650203704834
1772791610825445600,14.817445556640624,-10.726353645324707,-9.507654190063477,-12.258861541748047
1772791610845547000,14.837547119140625,-10.325111389160156,-11.833663940429688,-15.729310989379883
1772791610865648400,14.8576484375,-9.663360595703125,-13.868023872375488,-16.824045181274414
1772791610885749800,14.877749755859375,-6.874424457550049,-15.582588195800781,-14.854362487792969
1772791610905851100,14.89785107421875,-3.3907997608184814,-18.104427337646484,-14.399820327758789
1772791610925952500,14.917952392578124,-0.5270052552223206,-21.261669158935547,-18.01399803161621
1772791610946054000,14.938053955078125,-0.2712879478931427,-23.458322525024414,-20.456787109375
1772791610966155300,14.9581552734375,-2.3182244300842285,-26.892240524291992,-14.433357238769531
1772791610986256600,14.978256591796875,-7.938016891479492,-31.591571807861328,-5.093386173248291
1772791611006358000,14.99835791015625,-10.552083015441895,-35.1260986328125,1.331287145614624
1772791611026459400,15.01845947265625,-9.15312385559082,-40.98124694824219,7.287644386291504
1772791611046560800,15.038560791015625,-6.246210098266602,-46.93221664428711,15.438260078430176
1772791611066662100,15.058662109375,-3.9303815364837646,-42.66227340698242,21.986900329589844
1772791611086763500,15.078763427734375,-1.1935471296310425,-34.280494689941406,25.19444465637207
1772791611106865000,15.098864990234375,-4.208855628967285,-32.37968444824219,25.863981246948242
1772791611126966300,15.11896630859375,-14.663922309875488,-31.33824920654297,18.984766006469727
1772791611147067600,15.139067626953125,-21.852752685546875,-31.868247985839844,11.62346076965332
1772791611187271400,15.179271484375,-3.24946665763855,-43.30725860595703,7.46491003036499
1772791611207373300,15.199373291015625,4.26095724105835,-39.98832321166992,3.9800875186920166
1772791611227475500,15.219475341796874,4.922708511352539,-31.931129455566406,4.262155055999756
1772791611267679200,15.25967919921875,-7.791294097900391,-18.80211067199707,9.171688079833984
1772791611287781000,15.279781005859375,-11.95523452758789,-12.397200584411621,10.562862396240234
1772791611307883000,15.299883056640626,-11.657596588134766,-6.747464179992676,11.003031730651855
1772791611327985000,15.31998486328125,-9.256728172302246,-2.458359956741333,12.073810577392578
1772791611348086800,15.340086669921876,-6.661825656890869,-0.6527678966522217,9.262716293334961
1772791611368188700,15.360188720703125,-4.6059064865112305,-1.2498409748077393,8.063180923461914
1772791611388290800,15.380290771484376,-2.4505746364593506,-1.5935920476913452,5.4479169845581055
1772791611408392700,15.400392822265625,-1.8079874515533447,-1.15462064743042,4.859827041625977
1772791611428494600,15.42049462890625,-3.636935234069824,-0.6527678966522217,4.620878219604492
1772791611448596500,15.440596435546874,-5.461091995239258,0.7036718130111694,4.214844703674316
1772791611468698400,15.460698486328125,-2.866190195083618,3.0057268142700195,5.696447849273682
1772791611488800300,15.48080029296875,1.5810158252716064,0.9138750433921814,9.477710723876953
1772791611508902100,15.500902099609375,5.5467305183410645,-1.6462926864624023,13.550622940063477
1772791611529004000,15.521004150390626,7.285848140716553,0.7749373316764832,13.21585464477539
1772791611549106000,15.54110595703125,7.110978126525879,2.2463600635528564,11.643223762512207
1772791611569208000,15.5612080078125,8.491372108459473,0.6270164847373962,10.42452335357666
1772791611589310000,15.58131005859375,9.866376876831055,-0.5383837819099426,9.572931289672852
1772791611609411800,15.601411865234375,6.553430557250977,-2.744619607925415,11.03117847442627
1772791611629513700,15.621513671875,0.8108695149421692,-8.81955337524414,13.07691764831543
1772791611649615600,15.64161572265625,-2.3559532165527344,-18.596099853515625,14.401617050170898
1772791611669717500,15.661717529296874,-9.993936538696289,-31.716135025024414,18.957218170166016
1772791611689819400,15.6818193359375,-19.017105102539062,-50.64820098876953,28.5367374420166
1772791611709921300,15.70192138671875,-17.135456085205078,-60.606204986572266,25.80708885192871
1772791611730023200,15.722023193359375,-11.123404502868652,-52.63045883178711,19.44948959350586
1772791611750125000,15.742125,-7.692480564117432,-42.5239372253418,10.314332008361816
1772791611770227000,15.76222705078125,-0.9240558743476868,-42.24246597290039,-3.854923963546753
1772791611790328600,15.78232861328125,6.780402183532715,-30.183029174804688,-15.451435089111328
1772791611810430500,15.802430419921874,-0.7533779740333557,-17.354642868041992,-15.695175170898438
1772791611830532400,15.822532470703125,-10.263427734375,-9.450761795043945,-13.730283737182617
1772791611850634200,15.84263427734375,-12.824792861938477,-3.838754415512085,-13.950069427490234
1772791611870736100,15.862736083984375,-7.696672439575195,-1.7756484746932983,-12.114533424377441
1772791611890838000,15.882838134765626,0.7964966297149658,-4.287906646728516,-7.602051258087158
1772791611910940000,15.90293994140625,7.697271347045898,-5.849758625030518,-3.3422913551330566
1772791611931041800,15.923041748046876,8.812965393066406,-4.789160251617432,-1.4971741437911987
1772791611951143700,15.943143798828125,4.748437404632568,-3.3758280277252197,-1.9798630475997925
1772791611971245600,15.96324560546875,0.3952539563179016,-2.3631396293640137,-2.452970027923584
1772791611991347500,15.983347412109374,-2.809896230697632,-1.33607816696167,-2.5541789531707764
1772791612011449300,16.003449462890625,-3.0835797786712646,-0.0035932178143411875,-3.261444091796875
1772791612031551200,16.02355126953125,-2.7763595581054688,0.11558184027671814,-2.745218515396118
1772791612051653000,16.043653076171875,-3.0314781665802,-0.5048471093177795,-0.6707339882850647
1772791612071755000,16.063755126953126,-2.663173198699951,-0.46232736110687256,1.5474791526794434
1772791612091856600,16.083856689453125,-3.1973650455474854,-0.20421454310417175,2.9290714263916016
1772791612111958500,16.10395849609375,-2.866190195083618,-0.5144290328025818,3.12490177154541
1772791612132060400,16.124060302734375,-2.7763595581054688,-1.33607816696167,4.315454483032227
1772791612172261400,16.164261474609376,-11.128195762634277,-17.922969818115234,18.95781707763672
1772791612192361200,16.184361328125,-11.321630477905273,-21.964141845703125,7.179249286651611
1772791612212460800,16.204460693359376,3.1931729316711426,-26.138263702392578,5.224538803100586
1772791612232560600,16.224560546875,5.873114585876465,-33.70378494262695,24.02545166015625
1772791612252660500,16.244660400390625,4.9466633796691895,-26.749710083007812,32.395851135253906
1772791612272760000,16.264760009765624,-8.192536354064941,-24.39974594116211,40.89081954956055
1772791612292860000,16.28485986328125,-20.746042251586914,-26.553878784179688,42.941349029541016
1772791612312959700,16.304959716796876,-20.590335845947266,-26.687427520751953,28.753528594970703
1772791612333059600,16.3250595703125,-12.630759239196777,-24.28057098388672,17.122880935668945
1772791612353159200,16.3451591796875,-4.364562034606934,-18.611671447753906,5.870120048522949
1772791612373259000,16.365259033203124,-4.55799674987793,-11.385110855102539,-1.33428156375885
1772791612393358800,16.38535888671875,-7.484073638916016,-6.934311389923096,-5.8994646072387695
1772791612413458400,16.40545849609375,-7.100797176361084,-4.441217422485352,-12.424748420715332
1772791612433558300,16.425558349609375,-4.180109977722168,-3.003331184387207,-18.758394241333008
1772791612453658000,16.445658203125,2.8200771808624268,-3.7435340881347656,-21.038888931274414
1772791612473757700,16.4657578125,9.389677047729492,-3.7058053016662598,-18.987760543823242
1772791612493857500,16.485857421875,8.845903396606445,-1.8049930334091187,-15.297526359558105
1772791612513957400,16.505957275390625,4.66818904876709,-0.7012763619422913,-14.068645477294922
1772791612534057000,16.526056884765627,2.6212522983551025,-0.8258412480354309,-11.960624694824219
1772791612554156800,16.54615673828125,3.2973761558532715,-1.3845865726470947,-7.108582496643066
1772791612574256600,16.566256591796876,4.180708885192871,-1.4702249765396118,-3.5285398960113525
1772791612594356200,16.586356201171874,3.008721113204956,-1.7133660316467285,-3.5285398960113525
1772791612614456000,16.6064560546875,-0.17666654288768768,-2.3008570671081543,-4.241194725036621
1772791612634556000,16.626555908203127,-3.740539789199829,-2.2864842414855957,-3.7537147998809814
1772791612654655700,16.64665576171875,-6.477374076843262,-1.374405860900879,-2.2092301845550537
1772791612674755600,16.666755615234376,-7.030130863189697,-1.1115020513534546,0.5581464767456055
1772791612694855700,16.686855712890626,-6.9828200340271,-3.069805860519409,4.143579006195068
1772791612714955500,16.70695556640625,-10.589213371276855,-11.848036766052246,7.00677490234375
1772791612735055400,16.727055419921875,-16.350936889648438,-28.545120239257812,6.012650966644287
1772791612755155500,16.747155517578125,-14.975334167480469,-38.77082061767578,5.7784929275512695
1772791612775255300,16.76725537109375,-15.570611000061035,-35.17939758300781,23.55713653564453
1772791612795355100,16.787355224609374,-30.30819320678711,-21.964141845703125,45.073326110839844
1772791612815455200,16.807455322265625,-36.178314208984375,-20.856233596801758,48.14253234863281
1772791612835555000,16.82755517578125,-13.576375007629395,-32.15151596069336,23.08881950378418
1772791612855655000,16.847655029296874,5.362877368927002,-28.684059143066406,8.049407005310059
1772791612875755000,16.867755126953124,-1.5001684427261353,-16.295242309570312,12.370849609375
1772791612895854800,16.887854736328126,-13.249990463256836,-6.193509578704834,6.7684245109558105
1772791612915954700,16.90795458984375,-17.040836334228516,-0.9971179366111755,-1.721750259399414
1772791612936054800,16.9280546875,-12.092375755310059,-0.8539881110191345,-4.035183429718018
1772791612956154600,16.948154541015626,-4.0950703620910645,-1.4750158786773682,-3.1698169708251953
1772791612976254500,16.96825439453125,1.718755841255188,-0.7827225923538208,-2.5002806186676025
1772791612996354600,16.9883544921875,5.513792514801025,0.5545532703399658,-2.166111469268799
1772791613016454400,17.008454345703125,7.5511474609375,2.2978627681732178,-3.9249916076660156
1772791613036554500,17.028554443359376,7.116367816925049,3.5063817501068115,-7.113373756408691
1772791613056654300,17.048654296875,7.210989475250244,3.5399184226989746,-9.747201919555664
1772791613076754200,17.068754150390625,8.208106994628906,2.8853538036346436,-9.322004318237305
1772791613096854300,17.088854248046875,7.470898628234863,2.9949469566345215,-6.534865379333496
1772791613116954000,17.1089541015625,5.362877368927002,3.420144557952881,-2.8350489139556885
1772791613137054000,17.129053955078124,3.0278849601745605,2.5559756755828857,-0.9755586385726929
1772791613157155300,17.1491552734375,1.042631983757019,1.199535846710205,-0.3683048188686371
1772791613177257200,17.16925732421875,-0.46053075790405273,-0.004192087333649397,0.19044055044651031
1772791613197359400,17.189359375,-1.963094711303711,-1.5181344747543335,-1.4540554285049438
1772791613217461500,17.20946142578125,-3.102743625640869,-3.213534355163574,-2.6583824157714844
1772791613237563600,17.229563720703126,-4.931691646575928,-5.510798454284668,0.4389714300632477
1772791613257665500,17.24966552734375,-7.172062873840332,-10.802410125732422,6.185125827789307
1772791613277767700,17.269767578125,-13.391922950744629,-21.48145294189453,11.667777061462402
1772791613297869800,17.289869873046875,-20.925703048706055,-32.67672348022461,11.859415054321289
1772791613317971700,17.3099716796875,-20.982595443725586,-37.849159240722656,10.056818008422852
1772791613338073900,17.330073974609373,-10.995845794677734,-34.868587493896484,16.237751007080078
1772791613358176000,17.350176025390624,-6.637871265411377,-29.811132431030273,25.994535446166992
1772791613378278100,17.370278076171875,-8.448253631591797,-25.50286293029785,27.36175537109375
1772791613398380000,17.390380126953126,-6.0473856925964355,-22.952877044677734,13.121233940124512
1772791613418482200,17.410482177734377,-7.67750883102417,-17.761276245117188,0.43418049812316895
1772791613438584300,17.430584228515624,-11.113822937011719,-10.071789741516113,1.1749821901321411
1772791613458686500,17.4506865234375,-8.358423233032227,-4.550211429595947,3.536325216293335
1772791613478788400,17.470788330078125,-4.9364824295043945,-0.9635812640190125,0.23775124549865723
1772791613498890500,17.490890380859376,-6.1414079666137695,0.27787551283836365,-3.629149913787842
1772791613518992600,17.51099267578125,-5.031103610992432,0.6743271946907043,-2.9075121879577637
1772791613559196700,17.55119677734375,-1.9918403625488281,2.078676462173462,-1.6600666046142578
1772791613579298800,17.571298828125,-1.1312646865844727,3.2434780597686768,-2.9733877182006836
1772791613599401000,17.59140087890625,0.06467792391777039,2.9470374584198,-3.327319622039795
1772791613619502800,17.6115029296875,1.3264962434768677,2.1211962699890137,-3.651906967163086
1772791613639605000,17.63160498046875,1.4115357398986816,2.1307780742645264,-3.250065565109253
1772791613659706600,17.65170654296875,1.3738069534301758,2.574540615081787,-1.9834562540054321
1772791613679807700,17.671807861328126,1.2606205940246582,2.536212921142578,0.5791069269180298
1772791613699909000,17.6919091796875,1.7001909017562866,2.4170379638671875,2.55298113822937
1772791613720010200,17.71201025390625,1.7331286668777466,1.8774563074111938,2.8069019317626953
1772791613740111600,17.732111572265627,0.7408017516136169,0.9408242106437683,2.0421454906463623
1772791613760213000,17.752212890625,-1.8163715600967407,-0.2862596809864044,2.233184814453125
1772791613780314000,17.772314208984376,-5.153273105621338,-3.438110589981079,4.053748607635498
1772791613800415500,17.79241552734375,-8.93453598022461,-10.416139602661133,6.601339817047119
1772791613820516900,17.812516845703126,-14.928023338317871,-24.73930549621582,10.234682083129883
1772791613840618000,17.832617919921876,-8.684208869934082,-33.9858512878418,3.8860650062561035
1772791613860719400,17.85271923828125,1.5959875583648682,-44.24448776245117,8.173972129821777
1772791613880820700,17.87282080078125,7.70685338973999,-37.424560546875,15.272972106933594
1772791613900921900,17.892921875,-1.2163041830062866,-27.853425979614258,20.727476119995117
1772791613921023200,17.913023193359376,-13.647041320800781,-18.91709327697754,14.56091594696045
1772791613941124600,17.93312451171875,-12.753527641296387,-21.84975814819336,4.703522205352783
1772791613961225700,17.953225830078125,-7.16248083114624,-21.405397415161133,-6.109668254852295
1772791613981327000,17.9733271484375,-9.241756439208984,-11.42343807220459,-12.218737602233887
1772791614001428500,17.993428466796875,-15.428678512573242,-3.844144105911255,-11.00003719329834
1772791614021529600,18.013529541015625,-7.176254749298096,-2.2679193019866943,-6.879215717315674
1772791614041631000,18.033630859375,3.448291301727295,-1.0216716527938843,-3.3177378177642822
1772791614061732400,18.053732421875,4.450798988342285,-0.6773215532302856,-4.326234340667725
1772791614081833500,18.07383349609375,1.2462477684020996,-0.9881349205970764,-6.276752471923828
1772791614101934800,18.093934814453124,-2.341580390930176,-1.0546094179153442,-5.377849102020264
1772791614122036000,18.114035888671875,-3.2632405757904053,-0.25751394033432007,-3.9202005863189697
1772791614142137300,18.134137451171874,-2.4403936862945557,0.8653666377067566,-3.3369016647338867
1772791614162238200,18.15423828125,-1.9870494604110718,2.1211962699890137,-2.1271848678588867
1772791614182339000,18.174339111328123,-1.3678182363510132,3.3195343017578125,-0.9653778672218323
1772791614202440000,18.19443994140625,0.8162593245506287,4.179511070251465,-0.1622936725616455
1772791614222540800,18.214540771484376,2.2248005867004395,3.8309690952301025,0.6934910416603088
1772791614242641700,18.2346416015625,1.5390949249267578,2.9470374584198,1.7019875049591064
1772791614262742500,18.254742431640626,-0.30901673436164856,1.9535127878189087,2.227795124053955
1772791614282843400,18.274843505859376,-2.9224839210510254,-0.052101656794548035,3.767488956451416
1772791614302944300,18.2949443359375,-7.275667190551758,-5.554515838623047,7.8020734786987305
1772791614323045000,18.315045166015626,-13.987198829650879,-17.322303771972656,10.871280670166016
1772791614343145700,18.335145751953124,-15.249017715454102,-27.36175537109375,9.01179027557373
1772791614363246600,18.35524658203125,-7.20440149307251,-35.84414291381836,20.4507999420166
1772791614383347500,18.375347412109374,-3.106935739517212,-36.56458282470703,28.252273559570312
1772791614403448300,18.3954482421875,-7.5547404289245605,-27.752817153930664,26.37841033935547
1772791614423549200,18.415549072265627,-14.851966857910156,-24.992626190185547,23.007972717285156
1772791614443650000,18.435650146484374,-19.252460479736328,-26.5496883392334,7.089418888092041
1772791614463751000,18.4557509765625,-13.19788932800293,-26.583223342895508,-14.159074783325195
1772791614483851800,18.475851806640627,-6.273758411407471,-18.60688018798828,-20.115432739257812
1772791614503952600,18.49595263671875,-4.505895137786865,-9.685518264770508,-14.847774505615234
1772791614524053500,18.516053466796876,-6.481565952301025,-4.541827201843262,-7.548152923583984
1772791614544154400,18.536154296875,-7.5876784324646,-2.864992380142212,-2.5715463161468506
1772791614564255000,18.5562548828125,-5.673091888427734,-2.7745630741119385,-0.573118269443512
1772791614584355800,18.57635595703125,-1.320507526397705,-2.4877045154571533,-0.5641351938247681
1772791614604456700,18.596456787109375,2.24336576461792,-2.530822992324829,0.15810158848762512
1772791614624557600,18.6165576171875,2.370924949645996,-2.2349815368652344,0.3299771547317505
1772791614644658400,18.636658447265624,0.9486095309257507,-2.39727520942688,-0.8318299055099487
1772791614664758800,18.6567587890625,0.2772766351699829,-1.9289591312408447,-3.618370294570923
1772791614684859100,18.676859130859373,0.6791181564331055,-0.7635588049888611,-4.536437511444092
1772791614704959500,18.69695947265625,1.5247220993041992,0.3347681164741516,-3.6710708141326904
1772791614725059800,18.717059814453126,3.2596473693847656,0.6593554615974426,-3.1213085651397705
1772791614745160200,18.73716015625,4.068121433258057,0.5593442320823669,-2.8584048748016357
1772791614765260500,18.757260498046875,3.079986572265625,0.21559306979179382,-2.3900887966156006
1772791614785361000,18.77736083984375,1.3264962434768677,0.057491485029459,-2.150540828704834
1772791614805461200,18.797461181640625,-0.3701014220714569,0.114982970058918,-2.1361680030822754
1772791614825561300,18.817561279296875,-2.6577835083007812,-3.294980764389038,0.20122019946575165
1772791614845661700,18.83766162109375,-5.952165126800537,-13.482352256774902,5.048470973968506
1772791614865762000,18.857761962890624,-8.29673957824707,-22.690570831298828,6.348617076873779
1772791614885862400,18.8778623046875,-6.92592716217041,-23.664932250976562,6.0144476890563965
1772791614905962800,18.897962646484373,-7.691282749176025,-31.65026092529297,14.432758331298828
1772791614926063000,18.91806298828125,-7.525994777679443,-27.80072593688965,15.790395736694336
1772791614946163500,18.93816357421875,-10.583823204040527,-25.393869400024414,18.75899314880371
1772791614966263800,18.958263916015625,-13.481154441833496,-23.134933471679688,19.528539657592773
1772791614986364200,18.9783642578125,-15.674814224243164,-18.993749618530273,14.914848327636719
1772791615006464500,18.998464599609374,-15.419096946716309,-15.564621925354004,8.26559829711914
1772791615026564900,19.01856494140625,-11.912116050720215,-12.240296363830566,3.623760223388672
1772791615046665200,19.038665283203127,-8.121870040893555,-8.252423286437988,0.033536698669195175
1772791615066765600,19.058765625,-4.3974995613098145,-5.935996055603027,-1.4624396562576294
1772791615086866000,19.078865966796876,-1.0084965229034424,-4.235805034637451,-2.3996706008911133
1772791615106966000,19.098966064453126,0.24433881044387817,-1.8762586116790771,-3.3842122554779053
1772791615127066400,19.11906640625,-0.42220309376716614,-0.7539768815040588,-3.651906967163086
1772791615147167000,19.1391669921875,-1.9678856134414673,-1.685219168663025,-2.997342586517334
1772791615167267800,19.159267822265626,-3.300969362258911,-2.573941707611084,-1.9834562540054321
1772791615187368700,19.17936865234375,-3.7261669635772705,-2.244563341140747,-1.4480668306350708
1772791615207469600,19.199469482421875,-2.085862874984741,-1.0360444784164429,-1.3384736776351929
1772791615227570400,19.2195703125,-0.13893775641918182,0.3587229251861572,-1.204326868057251
1772791615247671600,19.239671630859377,1.33607816696167,1.958303689956665,-1.1851630210876465
1772791615267772400,19.2597724609375,3.0183029174804688,3.520155668258667,-1.333682656288147
1772791615287873300,19.279873291015626,5.0131378173828125,4.619081497192383,-1.0132874250411987
1772791615307974100,19.29997412109375,6.071939468383789,4.54721736907959,-0.052101656794548035
1772791615328075300,19.3200751953125,6.55402946472168,2.4170379638671875,1.1426432132720947
1772791615348176100,19.340176025390626,7.38585901260376,-0.7252311110496521,2.55298113822937
1772791615368277000,19.360277099609377,5.164651870727539,-7.115768909454346,7.142119407653809
1772791615388377900,19.3803779296875,-2.936856746673584,-18.78833770751953,11.76479434967041
1772791615408479000,19.40047900390625,-7.205000400543213,-21.138301849365234,3.542313814163208
1772791615428579800,19.420579833984377,-12.271437644958496,-28.6319580078125,9.011191368103027
1772791615448680700,19.4406806640625,-7.3511247634887695,-36.89935302734375,18.064903259277344
1772791615468781600,19.460781494140626,-3.376426935195923,-38.14080810546875,20.20646095275879
1772791615488882400,19.48088232421875,-9.071677207946777,-35.13208770751953,14.866938591003418
1772791615508983600,19.500983642578124,-15.802372932434082,-30.155481338500977,10.239473342895508
1772791615529084400,19.52108447265625,-14.426769256591797,-24.218887329101562,-0.6168357133865356
1772791615549185300,19.541185302734377,-7.308605194091797,-18.706890106201172,-21.286821365356445
1772791615569286100,19.5612861328125,-1.3863831758499146,-14.614215850830078,-22.668413162231445
1772791615589387000,19.581386962890626,6.331848621368408,-10.4065580368042,-9.259123802185059
1772791615609488100,19.601488037109377,5.580267429351807,-3.008721113204956,0.23475690186023712
1772791615629589000,19.621589111328124,0.83482426404953,2.5649585723876953,6.845678806304932
1772791615649690000,19.641690185546874,0.5180222392082214,4.245985507965088,11.415653228759766
1772791615669791700,19.661791748046873,0.9911292195320129,3.4345173835754395,9.934049606323242
1772791615689893400,19.681893310546876,0.962383508682251,1.0845528841018677,6.3773627281188965
1772791615709995000,19.7019951171875,1.5959875583648682,-0.9264513254165649,4.221432209014893
1772791615730096600,19.7220966796875,2.470337152481079,-1.3893775939941406,0.7126548886299133
1772791615750198300,19.7421982421875,4.2429914474487305,-0.8641688823699951,1.7259422540664673
1772791615770300000,19.7622998046875,2.300258159637451,0.7976943254470825,7.52000617980957
1772791615790401500,19.782401611328126,0.4898753762245178,3.9022345542907715,11.406070709228516
1772791615810503400,19.80250341796875,0.03593217954039574,5.225137710571289,12.146872520446777
1772791615830605000,19.82260498046875,-2.133173704147339,3.9309802055358887,11.143167495727539
1772791615850706700,19.842706787109375,-5.18681001663208,1.996631383895874,10.196952819824219
1772791615870808300,19.862808349609374,-5.966537952423096,0.5832990407943726,10.14425277709961
1772791615890910000,19.882909912109376,-5.994685173034668,-1.633117437362671,10.32571029663086
1772791615911011600,19.903011474609375,-6.334843158721924,-6.523487091064453,9.250140190124512
1772791615931113200,19.92311328125,-6.642063140869141,-14.475876808166504,7.218774795532227
1772791615951214800,19.94321484375,-3.608189582824707,-20.64603042602539,4.804131984710693
1772791615971316700,19.963316650390624,0.22038403153419495,-31.382566452026367,10.335291862487793
1772791615991418400,19.98341845703125,7.394842147827148,-36.79395294189453,12.719990730285645
1772791616011520000,20.00352001953125,6.903769016265869,-35.26084518432617,15.406519889831543
1772791616031621600,20.02362158203125,-2.2846877574920654,-33.39297103881836,12.285211563110352
1772791616051723300,20.04372314453125,-10.777856826782227,-30.126136779785156,4.669985294342041
1772791616071825000,20.063824951171874,-8.504548072814941,-28.249279022216797,-0.2491297721862793
1772791616091926500,20.083926513671877,0.8252423405647278,-26.553878784179688,-0.5072425603866577
1772791616112028200,20.104028076171875,7.716435432434082,-21.30957794189453,-0.6503724455833435
1772791616132129800,20.1241298828125,8.680615425109863,-14.365684509277344,-0.8659654855728149
1772791616152231400,20.1442314453125,6.350413799285889,-8.533892631530762,-0.18684732913970947
1772791616172332500,20.16433251953125,4.304076194763184,-4.120821952819824,0.4293895363807678
1772791616192434000,20.184433837890627,3.8130030632019043,-1.3133211135864258,0.5311973690986633
1772791616212535000,20.20453515625,3.9968559741973877,-0.573118269443512,0.09162705391645432
1772791616232636400,20.224636474609376,4.110641002655029,-1.251038670539856,-1.5337051153182983
1772791616252737500,20.244737548828127,4.375341415405273,-2.1966538429260254,-4.263352870941162
1772791616272838700,20.264838623046874,4.824493885040283,-2.363738536834717,-4.984991073608398
1772791616292940000,20.28493994140625,4.819702625274658,-1.9008122682571411,-3.359658718109131
1772791616313041200,20.305041259765623,3.5057828426361084,-1.7720552682876587,-1.309128999710083
1772791616333142500,20.325142578125,1.3552420139312744,-1.5666429996490479,-0.6204289197921753
1772791616353243600,20.34524365234375,-0.45034995675086975,-1.1845641136169434,-0.28086987137794495
1772791616373344800,20.3653447265625,-1.2965527772903442,-1.1025190353393555,0.69828200340271
1772791616393446100,20.385446044921874,-2.1756932735443115,-2.0439419746398926,2.2565407752990723
1772791616413547300,20.40554736328125,-4.180109977722168,-4.288505554199219,3.8195905685424805
1772791616433648600,20.425648681640624,-6.940299987792969,-7.220571041107178,4.393307685852051
1772791616453749800,20.445749755859374,-8.244638442993164,-10.803009033203125,3.2362914085388184
1772791616473851100,20.46585107421875,-7.545158386230469,-19.7243709564209,7.610435485839844
1772791616493952300,20.4859521484375,-4.855635166168213,-27.60010528564453,12.916419982910156
1772791616514053400,20.506053466796875,-0.7246322631835938,-21.462888717651367,11.338997840881348
1772791616534154800,20.52615478515625,0.2724856734275818,-12.421753883361816,11.984579086303711
1772791616554256000,20.546255859375,1.1941460371017456,-11.97739315032959,20.904144287109375
1772791616574357200,20.566357177734375,7.854175090789795,-9.35614013671875,20.135793685913086
1772791616594458400,20.586458251953125,5.174233436584473,-8.654265403747559,16.459333419799805
1772791616614559700,20.606559814453124,-1.7361230850219727,-11.658195495605469,16.985139846801758
1772791616634660900,20.626660888671875,-6.01324987411499,-15.641277313232422,18.381105422973633
1772791616654761500,20.646761474609374,-8.333869934082031,-19.614776611328125,17.965490341186523
1772791616674861600,20.666861572265624,-6.637272357940674,-22.972639083862305,13.906950950622559
1772791616694961400,20.68696142578125,-3.9902684688568115,-24.677621841430664,7.821836471557617
1772791616715061200,20.707061279296877,-4.254968643188477,-23.942209243774414,3.3518733978271484
1772791616735161300,20.727161376953124,-5.9377923011779785,-21.138900756835938,1.2246884107589722
1772791616755261200,20.74726123046875,-7.639181137084961,-17.055208206176758,0.7515813708305359
1772791616775361300,20.767361328125,-9.652581214904785,-13.205674171447754,1.4732192754745483
1772791616795461000,20.787461181640627,-10.352060317993164,-10.464049339294434,2.6925179958343506
1772791616815561200,20.807561279296873,-8.239847183227539,-9.05550765991211,3.4189467430114746
1772791616835661000,20.8276611328125,-5.223939895629883,-8.32967758178711,3.213534355163574
1772791616855761200,20.84776123046875,-2.936257839202881,-7.52719259262085,2.300258159637451
1772791616875861000,20.867861083984376,-1.6367107629776,-6.409701824188232,1.3732080459594727
1772791616895961000,20.887961181640627,-1.3528465032577515,-5.138900279998779,0.7611632943153381
1772791616916061000,20.90806103515625,-2.0666990280151367,-3.7632968425750732,1.2055245637893677
1772791616936161000,20.9281611328125,-2.761387825012207,-2.8943369388580322,2.6589810848236084
1772791616956260900,20.9482607421875,-0.7054684162139893,-2.3499643802642822,3.7585058212280273
1772791616976361000,20.96836083984375,0.8162593245506287,-3.3524723052978516,4.183703422546387
1772791616996460800,20.988460693359375,1.8181681632995605,-4.087883949279785,5.206572532653809
1772791617016561000,21.008560791015626,1.8463151454925537,-3.9064266681671143,4.810121059417725
1772791617036660700,21.02866064453125,2.210427761077881,-2.430811882019043,2.9548227787017822
1772791617056760800,21.0487607421875,4.952053070068359,-1.9295579195022583,4.322041988372803
1772791617076860700,21.068860595703125,8.998016357421875,-1.1983381509780884,4.790956974029541
1772791617096960800,21.088960693359375,11.417449951171875,-0.4389714300632477,5.144289970397949
1772791617117060600,21.109060546875,13.142792701721191,-1.3516488075256348,4.723883628845215
1772791617137160700,21.12916064453125,14.182430267333984,-0.6970842480659485,3.1320881843566895
1772791617157261000,21.149260986328127,12.031889915466309,-0.1383388787508011,2.1086199283599854
1772791617177361700,21.169361572265625,10.944941520690918,-0.038327656686306,1.8942246437072754
1772791617197462500,21.189462646484376,12.032488822937012,-0.4204064905643463,1.3157166242599487
1772791617237663700,21.229663818359374,13.709922790527344,0.27188682556152344,0.3168020248413086
1772791617257764600,21.2497646484375,10.004715919494629,1.42770516872406,-0.6294119954109192
1772791617277865200,21.269865234375,8.256016731262207,0.788112461566925,-0.2952427268028259
1772791617297966000,21.289966064453125,8.591383934020996,0.12875697016716003,0.44136691093444824
1772791617318066700,21.310066650390624,9.026163101196289,-0.3347681164741516,1.0438297986984253
1772791617338167300,21.330167236328126,11.31384563446045,-1.8630834817886353,1.48819100856781
1772791617358268200,21.35026806640625,12.353483200073242,-2.497885227203369,1.273196816444397
1772791617378368800,21.37036865234375,9.423213958740234,-0.4347793459892273,-0.9264513254165649
1772791617398469600,21.3904697265625,9.626230239868164,0.41082456707954407,-2.7524049282073975
1772791617418570200,21.4105703125,9.947823524475098,2.421229839324951,-4.201070308685303
1772791617438670800,21.4306708984375,8.444661140441895,3.701613187789917,-4.296290874481201
1772791617458771700,21.450771728515626,7.135531902313232,3.443500518798828,-3.938166618347168
1772791617478872300,21.470872314453125,8.506343841552734,3.12849497795105,-4.071714878082275
1772791617498973200,21.49097314453125,9.338173866271973,3.348280191421509,-2.7044951915740967
1772791617519073800,21.51107373046875,9.399857521057129,3.405172824859619,-0.1664857566356659
1772791617539174400,21.53117431640625,9.17288589477539,3.520155668258667,0.6653441786766052
1772791617559275300,21.551275146484375,8.747090339660645,3.596212148666382,0.3449489176273346
1772791617579375900,21.5713759765625,8.307519912719727,3.8639068603515625,0.37788674235343933
1772791617599476500,21.5914765625,7.77811861038208,4.064527988433838,1.2911629676818848
1772791617619577300,21.611577392578123,8.40693187713623,4.198675155639648,1.6924055814743042
1772791617639678000,21.631677978515626,8.92195987701416,4.284313201904297,1.5301119089126587
1772791617659778800,21.65177880859375,7.9056782722473145,4.537635326385498,1.1713889837265015
1772791617679879700,21.671879638671875,7.234345436096191,4.776584148406982,0.7414005994796753
1772791617699980300,21.691980224609374,8.175168991088867,4.595126628875732,1.1043156385421753
1772791617720081200,21.7120810546875,8.444661140441895,4.604708671569824,1.0851517915725708
1772791617740182000,21.73218212890625,8.090129852294922,4.757420539855957,1.133061408996582
1772791617760283000,21.752282958984374,8.411124229431152,4.643036365509033,1.080360770225525
1772791617780383700,21.7723837890625,8.87045669555664,4.6945390701293945,0.9096829891204834
1772791617800484600,21.792484619140627,8.156604766845703,4.9478607177734375,0.9528015851974487
1772791617820585500,21.81258544921875,7.457124710083008,5.267657279968262,0.9102818369865417
1772791617840686000,21.83268603515625,7.414605140686035,5.558708190917969,0.9150727987289429
1772791617860787000,21.852786865234375,7.688887119293213,5.7784929275512695,1.1492308378219604
1772791617880887800,21.8728876953125,7.665531158447266,5.940786838531494,1.4121346473693848
1772791617900988700,21.89298876953125,8.024253845214844,6.017442226409912,1.2737957239151
1772791617921089500,21.913089599609375,8.445260047912598,6.050379753112793,1.2354680299758911
1772791617941190400,21.9331904296875,8.20870590209961,6.155780792236328,1.0061010122299194
1772791617961291300,21.953291259765624,7.4667067527771,6.274956226348877,0.8533892035484314
1772791617981392000,21.973391845703127,7.102593898773193,6.304300785064697,1.0623947381973267
1772791618001492700,21.99349267578125,7.754763126373291,6.055769920349121,1.3732080459594727
1772791618021593600,22.013593505859376,8.449451446533203,5.922221660614014,1.2965527772903442
1772791618041694500,22.033694580078127,7.650559425354004,6.1515889167785645,0.41202232241630554
1772791618061795300,22.05379541015625,6.416888236999512,6.428865432739258,-0.3718980550765991
1772791618081896200,22.073896240234376,6.166560649871826,6.428865432739258,-0.2856608033180237
1772791618101996800,22.093996826171875,5.764719009399414,6.624695777893066,-0.19044055044651031
1772791618122097700,22.11409765625,5.429352283477783,6.748661994934082,-0.25272297859191895
1772791618142198500,22.134198486328124,6.12883186340332,6.567204475402832,-0.04731070250272751
1772791618162299100,22.154299072265626,7.007972240447998,6.538458824157715,-0.07605644315481186
1772791618182399700,22.174399658203125,6.781001091003418,6.628888130187988,0.21140098571777344
1772791618202500000,22.1945,5.897069454193115,6.743870735168457,0.5797058343887329
1772791618222600700,22.2146005859375,5.613803863525391,6.963655948638916,0.7851181030273438
1772791618242701300,22.234701416015625,5.566493034362793,7.25949764251709,0.8617734313011169
1772791618262801700,22.2548017578125,5.491035461425781,7.608039855957031,1.110304355621338
1772791618282902300,22.27490234375,5.362877368927002,8.03323745727539,1.2246884107589722
1772791618303003000,22.2950029296875,4.999363899230957,8.042819023132324,1.1671968698501587
1772791618323103500,22.315103515625,5.0466742515563965,7.808660984039307,1.6217390298843384
1772791618343203800,22.335203857421874,5.419770240783691,7.579294204711914,2.171501398086548
1772791618363304400,22.355304443359376,5.80244779586792,7.46491003036499,1.994235873222351
1772791618383405000,22.375405029296875,6.450424671173096,7.2355427742004395,0.9953213334083557
1772791618403505400,22.39550537109375,7.352921485900879,6.944492340087891,0.42699405550956726
1772791618423606000,22.41560595703125,7.6697235107421875,6.824718475341797,0.6180334687232971
1772791618443706600,22.43570654296875,7.093011856079102,6.767226696014404,1.0055021047592163
1772791618463807000,22.455806884765625,6.6252946853637695,6.915746688842773,1.382789969444275
1772791618483907600,22.475907470703124,6.6252946853637695,7.325972080230713,1.3109256029129028
1772791618504008200,22.49600830078125,6.285136699676514,7.732006072998047,0.9575925469398499
1772791618524108800,22.51610888671875,5.202380657196045,8.185949325561523,0.5365871787071228
1772791618544209200,22.536209228515624,5.283227920532227,8.357824325561523,0.5844967365264893
1772791618564309800,22.556309814453126,6.757645130157471,8.04761028289795,1.1630048751831055
1772791618584410400,22.576410400390625,7.55653715133667,7.851779937744141,1.2965527772903442
1772791618604510700,22.5965107421875,7.329565525054932,7.832615852355957,1.0144851207733154
1772791618624611300,22.616611328125,6.6300859451293945,7.856570720672607,0.6515701413154602
1772791618664812500,22.6568125,5.43414306640625,8.119474411010742,0.9096829891204834
1772791618684913200,22.6769130859375,4.59273099899292,8.291350364685059,0.6707339882850647
1772791618705014000,22.697013916015624,4.413070201873779,8.238649368286133,0.24972863495349884
1772791618745215200,22.73721533203125,4.947262287139893,7.856570720672607,-0.3335703909397125
1772791618765316000,22.757316162109376,5.34431266784668,7.770333290100098,-0.28086987137794495
1772791618785416700,22.777416748046875,6.095893859863281,7.608039855957031,0.09701687842607498
1772791618805517600,22.797517578125,5.82640266418457,7.28345251083374,0.35033872723579407
1772791618825618200,22.8176181640625,4.876595497131348,7.44095516204834,-0.5629374384880066
1772791618845718800,22.83771875,3.8130030632019043,7.937417984008789,-1.6570723056793213
1772791618865819600,22.857819580078125,4.4466071128845215,7.507429599761963,-0.7396039962768555
1772791618885920300,22.877920166015624,6.540255069732666,7.025339603424072,0.8905191421508789
1772791618906020900,22.898020751953126,6.455215930938721,6.843882083892822,0.5557510256767273
1772791618926121700,22.918121826171873,4.205262660980225,7.44095516204834,-1.5426881313323975
1772791618946222300,22.938222412109376,4.672979831695557,7.407418727874756,-1.4851967096328735
1772791618966323000,22.958322998046874,5.481453895568848,6.887001037597656,-0.19942358136177063
1772791618986423800,22.978423828125,5.174233436584473,7.216379165649414,-0.02754800394177437
1772791619006524400,22.9985244140625,5.6844706535339355,6.772616863250732,0.5653329491615295
1772791619026625000,23.018625,6.64385986328125,6.485758304595947,0.3790844678878784
1772791619046726000,23.038725830078125,6.445633888244629,6.667215824127197,-0.5198188424110413
1772791619066826500,23.058826416015624,5.471871852874756,7.087622165679932,-0.6443837285041809
1772791619086927000,23.078927001953126,4.890369415283203,7.293034553527832,-0.3718980550765991
1772791619107028000,23.099028076171876,5.334730625152588,7.316989421844482,-0.13294905424118042
1772791619127128600,23.119128662109375,5.798255920410156,7.312198162078857,0.17786428332328796
1772791619147229400,23.1392294921875,6.204289436340332,7.307407379150391,0.24972863495349884
1772791619167331000,23.1593310546875,6.265973091125488,7.288243293762207,-0.1664857566356659
1772791619187433000,23.179432861328124,5.807837963104248,7.316390514373779,-0.7533779740333557
1772791619207534800,23.199534912109375,5.680278301239014,7.335554122924805,-0.9114795923233032
1772791619227636700,23.21963671875,5.798255920410156,7.436164379119873,-1.0594004392623901
1772791619247738400,23.23973828125,6.289927959442139,7.579294204711914,-1.3510499000549316
1772791619267840300,23.25984033203125,7.887113094329834,7.192424297332764,-1.155219554901123
1772791619287942100,23.279942138671874,9.102219581604004,6.533068656921387,-0.9827450513839722
1772791619308043800,23.300043701171877,8.038626670837402,6.781599521636963,-1.006699800491333
1772791619328145700,23.320145751953124,6.535464286804199,7.755960464477539,-0.9827450513839722
1772791619348247600,23.34024755859375,7.55653715133667,8.23805046081543,-0.9587903022766113
1772791619368349400,23.360349365234374,10.047235488891602,7.693678379058838,-0.7006774544715881
1772791619388451000,23.380451171875,11.970805168151855,6.280345916748047,0.06827113777399063
1772791619408553000,23.400552978515623,13.686566352844238,5.296402931213379,0.8761462569236755
1772791619428654800,23.42065478515625,14.617809295654297,5.014934539794922,1.6552757024765015
1772791619448756700,23.4407568359375,13.629673957824707,4.4801435470581055,1.9756709337234497
1772791619468858400,23.4608583984375,10.628738403320312,4.4849348068237305,2.090054988861084
1772791619488960300,23.480960205078127,8.364412307739258,4.9478607177734375,1.8702698945999146
1772791619509062100,23.501062255859374,6.374368190765381,5.597634315490723,0.8899202942848206
1772791619529163800,23.521163818359376,6.752853870391846,5.225137710571289,1.5594565868377686
1772791619549265700,23.541265625,9.356739044189453,4.317850112915039,2.420032262802124
