time,seconds_elapsed,z,y,x
1772788608743921000,0.0569208984375,1.5451824463427066,1.2013067573353648,0.9153976657368242
1772788608763955000,0.076954833984375,1.1684364611297846,2.0012394302882255,1.0385879190105944
1772788608783986000,0.09698583984375,0.7611696654468775,2.0319335514985024,1.089916028252989
1772788608804017700,0.117017578125,0.14668167656362055,2.3187404687196014,0.5280032991290092
1772788608824049000,0.137048828125,-0.15979308707118034,1.373061061965674,0.8712791225470602
1772788608844081000,0.157080810546875,0.07532733592391014,1.1312634992942214,1.2436046609692275
1772788608864111900,0.17711181640625,1.7996575581490992,0.895381005885452,0.5231285326994956
1772788608884143900,0.197143798828125,3.349936450847983,0.4955586809895932,-0.06586392652988433
1772788608904174800,0.2171748046875,2.5398557472378016,0.7850674045152962,1.3477917422831058
1772788608924206800,0.237206787109375,1.4959627806216478,1.214237404448539,0.9570077332369983
1772788608944237800,0.25723779296875,0.6318184783905744,1.3641570400200784,0.6303213717006146
1772788608964269800,0.277269775390625,-0.03175707426667213,0.7357425248540937,0.10770166530609131
1772788608984300800,0.29730078125,0.8121329599648713,0.3556456217780709,0.1622016095176339
1772788609004332800,0.317332763671875,1.2152660168439149,0.1921364367932081,0.4558118500780314
1772788609024364000,0.337364013671875,1.4917892943292856,-0.40075931348502636,0.5447245706968009
1772788609044396000,0.35739599609375,1.7231939116716384,-0.18488412757739422,0.9602803982321172
1772788609064427000,0.377427001953125,1.18735626565516,-0.2978701630271971,0.85466233426705
1772788609084458800,0.397458740234375,0.30492519610524177,-0.032303894494473934,0.9379616719834506
1772788609104489700,0.41748974609375,0.612410013565421,0.1503294584814459,0.5747910615280271
1772788609124522000,0.43752197265625,1.0722843638420105,0.19325842656046152,0.3539038196120411
1772788609144553000,0.457552978515625,0.5427917029380798,0.29891740705780684,0.16951098268292844
1772788609164585000,0.4775849609375,0.3398632384955883,0.48197285790331656,-0.10360825851261615
1772788609184616000,0.497615966796875,0.318304317638278,0.8320917521491646,-0.7745552897859365
1772788609204647700,0.517647705078125,0.16514555401504039,0.8511996265925467,-0.3197545164465904
1772788609224679000,0.537678955078125,0.04344108231961727,0.6039066083099692,0.05007825531177222
1772788609244711000,0.5577109375,-0.4549281260460615,1.0271851390518247,-0.41543453924320634
1772788609264742000,0.577741943359375,-0.9795844528347253,1.5368164767965673,-0.17448055125642567
1772788609284774000,0.59777392578125,-1.2875778043389319,1.6909239194467662,-0.5406387626878917
1772788609304804900,0.617804931640625,-1.0581383495897054,1.7075512291207908,-1.0068488918572664
1772788609324836900,0.6378369140625,-1.0704174009263514,1.8117915019266306,-0.8787235933341085
1772788609344867800,0.657867919921875,-0.7556020944476127,1.746677078589797,-0.732043670336157
1772788609364899800,0.67789990234375,-0.4273036215394735,1.4589707283109425,-0.9199021375492215
1772788609384930800,0.697930908203125,-0.8541887254059314,1.6503478711694477,-1.0465390972107649
1772788609404962800,0.717962890625,-0.8653624458491802,1.7850268291197715,-1.5629342300020157
1772788609424994000,0.737994140625,-0.809423701006174,1.7480653180778025,-1.5132210816755889
1772788609445026000,0.758026123046875,-0.5713946970880032,1.591904888420552,-1.3073719074808061
1772788609465057000,0.77805712890625,-0.08712006504833698,1.4267147646114229,-1.1033915228325872
1772788609485088800,0.7980888671875,0.8240998766124248,1.2226808231450617,-1.1170895741216837
1772788609505119700,0.81811962890625,-0.21856384046971797,1.4309247835218906,-0.6131668232820928
1772788609525152000,0.838152099609375,-1.231750703176856,2.0217371516548095,-0.29331796134924515
1772788609545183000,0.858182861328125,-0.7872422643363476,2.0259157525137064,-1.1791365727119147
1772788609565215000,0.878215087890625,0.12310557066500186,1.6890310914374886,-1.733762798089534
1772788609585246000,0.898245849609375,0.6743354316025972,1.3254014851681888,-1.371237061408907
1772788609605277700,0.918277587890625,0.9886100553333759,0.8552977095611393,-0.8477859456915408
1772788609625309000,0.938308837890625,0.5703711992591619,0.5899538516074418,-0.31315040547382084
1772788609645341000,0.9583408203125,0.29925241116583345,0.44583099268116055,0.08675788067243993
1772788609665372000,0.978371826171875,0.36979017472565173,0.1357232793714851,0.10104640866797417
1772788609685404000,0.99840380859375,0.6160533385038376,-0.0037930356074124573,-0.3394907884540036
1772788609705439000,1.01843896484375,0.08850830453634262,0.1863555153042078,-0.3829734083604067
1772788609725470000,1.038469970703125,-0.3253098124861717,0.15824498084634542,0.07109079433269798
1772788609745501700,1.058501708984375,-0.4608996016710996,0.05240494469366967,0.36116380067765713
1772788609765532700,1.07853271484375,-0.0955412719130516,-0.08097527868300676,0.17908581656217573
1772788609785565000,1.09856494140625,0.4893155488163233,-0.38627135392725465,0.6807990015935153
1772788609805596000,1.118595947265625,0.5689063874036073,-0.3281042655102908,0.8124632148325442
1772788609825628000,1.1386279296875,-0.04836567924022674,0.10828790422882884,0.5684721607048064
1772788609845659000,1.158658935546875,-0.07210077509284019,0.22862397364787757,0.25833500210493804
1772788609865690600,1.178690673828125,0.19839491266608236,0.12362590474467725,0.1292369860921055
1772788609885721900,1.198721923828125,0.7814882308542728,-0.17849807980209587,-0.019208631404116747
1772788609905753900,1.21875390625,0.7972849349230527,-0.6060842080773785,0.35973983228914436
1772788609925784800,1.238784912109375,0.1302577805072069,-0.5481874610343948,0.4657327209159732
1772788609945816800,1.25881689453125,-0.35228199056386944,-0.5905542286533862,0.6818380623176693
1772788609965847800,1.278847900390625,-0.1715811400204897,-0.5412142975535243,0.9170533970545977
1772788609985879800,1.2988798828125,0.1809440116494894,-0.7482197291113436,0.410495767666772
1772788610005910800,1.318910888671875,0.14307283841669557,-0.7852092972040176,0.6973305958081036
1772788610025942800,1.33894287109375,0.10294482616782188,-0.790082237002626,1.2778902308002114
1772788610045973800,1.358973876953125,0.14073065920472144,-0.5184487043201923,1.0185623452004045
1772788610066005800,1.379005859375,-0.02716097864806652,-0.2509584454549476,0.5244582469332963
1772788610086037000,1.399037109375,-0.2363572713136673,0.021138832281716168,0.28136516455858945
1772788610106068700,1.41906884765625,-0.15241174464821813,0.04913114718738943,-0.17558679546527564
1772788610126099700,1.439099609375,-0.12685878571867942,0.24861546252537517,-0.48394072391018267
1772788610146131700,1.459131591796875,-0.19574469041824338,0.3129637603279203,-0.4615452791634947
1772788610166162700,1.47916259765625,-0.3437012092232704,0.17315755902435628,0.15766995743736623
1772788610186195000,1.49919482421875,-0.5323907204329967,0.09440861462131142,0.9687390144977718
1772788610206226000,1.519225830078125,-0.07779810995161533,0.018481522705964742,0.5324739417370409
1772788610226258000,1.5392578125,0.3580500525712967,-0.05170877912305295,-0.171905293940939
1772788610246289000,1.559288818359375,0.32303777590095994,-0.09975947412997484,-0.27066675174320115
1772788610266320600,1.579320556640625,0.35108781234323977,-0.08677242065444588,-0.43461160646528
1772788610286352000,1.599351806640625,0.16960077985823152,-0.06822678320370613,-0.2590139973450452
1772788610306384000,1.6193837890625,-0.22621055583059788,0.037267654381692404,0.3843312527101487
1772788610326414800,1.639414794921875,-0.030370003822445868,0.02565546945594251,0.09300044659012928
1772788610346446800,1.65944677734375,0.2268973690509796,0.16064568531252443,-0.11499532944560051
1772788610366477800,1.679477783203125,0.4307277507692575,0.0693518417108804,-0.014918478195834904
1772788610386509800,1.699509765625,0.16916706461608408,0.12027348904423416,0.0029494243901222942
1772788610406540800,1.719540771484375,-0.06602759265899658,0.12426270481087266,0.3953136883649975
1772788610426572800,1.73957275390625,0.04304010030329227,-0.17986271921880542,0.6215429488960653
1772788610446603800,1.759603759765625,0.14957038374245166,-0.2112831088770181,0.5700345511833206
1772788610466635800,1.7796357421875,0.3936801688790321,-0.07848609221577645,0.44777785243261603
1772788610486667000,1.7996669921875,0.5807897174209355,0.06497143466956913,-0.3687456706413999
1772788610506698800,1.81969873046875,0.46266310421228407,0.1502276786074042,-0.6310987858138978
1772788610526729700,1.839729736328125,0.47558279154002664,0.12371902638822793,0.2138466392220929
1772788610546761700,1.85976171875,0.48484804801344866,0.14006298907622694,0.5643608163958415
1772788610566792700,1.879792724609375,0.644865006968379,0.16478146994300186,-0.01967741795964539
1772788610586825000,1.899824951171875,-0.13700082502663136,0.3138512837521732,-0.5819471803603693
1772788610606856000,1.91985595703125,-0.6776327195823192,0.6369643899116665,-0.27909225119054315
1772788610626887700,1.9398876953125,-0.8824380838125944,0.8015214034490287,-0.24704569245800376
1772788610646918700,1.959918701171875,-0.24484336010813712,0.9066503687229007,-0.2514332598924637
1772788610666950700,1.97995068359375,0.11974749240875243,0.6127171067532151,-0.7356837804041803
1772788610686982000,1.99998193359375,0.23975334349274635,0.272052634877339,-0.812253079213202
1772788610707011300,2.02001123046875,0.12070961543917655,0.15007994069978595,-1.082791217874363
1772788610727042300,2.040042236328125,-0.49288697756230826,0.37403738384135066,-1.2115019881352782
1772788610747074000,2.060073974609375,-0.07596563382744789,0.7486384659800678,1.7038269479006527
1772788610767105000,2.08010498046875,-1.1709767932623625,-0.13778466888070107,0.3550162378333509
1772788610787137000,2.100136962890625,-0.023429975426197052,0.40679245616942644,-1.1028400994949041
1772788610807168300,2.120168212890625,0.2478852120220661,1.2486603369235991,-0.7874480160415173
1772788610827200300,2.1402001953125,-0.31221827572286126,0.7616307070873677,-0.6392156759697943
1772788610847231200,2.160231201171875,-0.34733459728956223,0.3617261107355356,0.2590598823133856
1772788610867263000,2.180262939453125,-1.3383774327278137,0.022905659291148184,-0.7222999096307903
1772788610887294000,2.2002939453125,0.1573760890573263,0.4348959763646126,-0.7185192220482974
1772788610907326200,2.220326171875,0.8066700183838605,0.7061622101046144,-0.7367721601627767
1772788610927357200,2.240357177734375,0.6917910087943077,0.28505466672629115,-0.5717702524021268
1772788610947389200,2.26038916015625,0.3220487648636102,0.09018705140352248,-0.004643003500252962
1772788610967420200,2.280420166015625,-0.36176001300513744,0.3526616375312209,0.32950244187042116
1772788610987452000,2.300451904296875,0.6131669694125652,0.5093612886317074,-0.5943776593990624
1772788611007483100,2.320483154296875,0.6383662925988436,-0.24231354936957358,-0.3080846830494702
1772788611027515100,2.34051513671875,0.36438276272416115,-0.5194260249197483,-0.473137151953578
1772788611047546000,2.360546142578125,0.5147779068529605,-0.48163025501072404,-0.04615625956244766
1772788611067578000,2.380578125,0.5579138687461614,-0.5324607169292866,0.1355471190869808
1772788611087609000,2.400609130859375,-0.32803777614533897,-0.10203604075983166,0.03520246548019349
1772788611107641300,2.420641357421875,-0.38305063831508157,-0.11275544156432152,0.155618870126456
1772788611127672300,2.44067236328125,-0.44822775162458417,-0.2424440438814461,-0.15310338017418978
1772788611147704000,2.4607041015625,0.026305823123455047,0.1003060020968318,-0.2452354281656444
1772788611167735000,2.480735107421875,0.25959844616949557,-0.18356383875906465,-0.3555526097323745
1772788611187767000,2.50076708984375,0.16437983033955098,-0.21770605459660292,-0.4298504564780742
1772788611207798300,2.52079833984375,0.2058054811835289,0.09211611976996063,-0.10143398321345448
1772788611227830300,2.540830322265625,0.22814298519790172,0.09332081938460468,-0.16425846898220478
1772788611247861200,2.560861328125,-0.14055997881293297,0.06471782523468136,-0.17684373672381043
1772788611267893000,2.58089306640625,-0.3257657395601272,0.3058780398506671,0.30827808672972024
1772788611287924000,2.600924072265625,-0.024501988571882245,0.39893684729821977,0.2139011093556881
1772788611307956200,2.620956298828125,0.13875322165191173,0.478670528422296,-0.172465010182932
1772788611327987200,2.6409873046875,-0.37409400939941406,0.28652905012778934,0.612002747938782
1772788611348019200,2.661019287109375,-0.41162148376107216,0.22737587328292427,0.8831625986948609
1772788611368050200,2.68105029296875,-0.027158056038618088,0.08488938338682055,0.5840428009327501
1772788611388082000,2.70108203125,0.42336862017810345,-0.043614977581799025,0.10482391791269183
1772788611408113200,2.721113037109375,0.4230757747113704,0.006574483019486069,-0.3550737401742488
1772788611428145200,2.741145263671875,-0.1317401280194521,0.26451712480597195,-0.34702421616613865
1772788611448176000,2.761176025390625,-0.47747956507205963,0.4480986453521996,-0.13470840324051678
1772788611468208000,2.7812080078125,-0.6474719745963812,0.5971016775354743,-0.07798866408765316
1772788611488239000,2.801239013671875,-0.21001053165793418,0.3639107612982392,0.21415380547512322
1772788611508271000,2.82127099609375,-0.29651334159076215,0.31236959382705387,0.12438143581971525
1772788611528302000,2.841302001953125,-0.46739539343118663,0.2722112595051527,0.01289791388735175
1772788611548334000,2.861333984375,-0.3419178329378366,0.15942819928154348,0.09281206614486873
1772788611568365000,2.881364990234375,-0.1462748493283987,-0.04724091299399733,0.2039887506177649
1772788611588397300,2.901397216796875,-0.05847556984424591,-0.14128960826173423,0.5105309899982065
1772788611608428300,2.92142822265625,0.30095921508371826,-0.28217662707194685,0.5567362763341516
1772788611628460300,2.941460205078125,0.3252227187246084,-0.28958704945892094,0.3965551032608375
1772788611648491300,2.9614912109375,0.22285656922757624,-0.2287180816721171,0.43736671385969966
1772788611668523000,2.98152294921875,-0.03649287061691284,-0.28569954050108787,0.47419941089022905
1772788611688554000,3.001553955078125,-0.06613339112102985,-0.3898758812252432,0.696714875062555
1772788611708585500,3.02158544921875,0.18928396997153757,-0.1546169996075332,0.25662038020677863
1772788611728616400,3.041616455078125,-0.28695699321627616,0.14720818465575575,0.25303835700154304
1772788611748648400,3.0616484375,-0.159127901160717,0.23393895812556145,0.16588731229305267
1772788611768679400,3.081679443359375,0.12369769133925437,0.3092050653815269,0.014763671226613222
1772788611788711400,3.10171142578125,0.04606032490730285,0.36392245173603294,-0.03349270242024213
1772788611808742400,3.121742431640625,0.16264730745851994,0.3153172646515071,-0.043281653974205254
1772788611828774400,3.1417744140625,0.16496902840435504,0.2764719856895506,0.005458849927783012
1772788611848805400,3.161805419921875,0.17102175257205962,0.2824728335395455,-0.011695552360266447
1772788611868837400,3.18183740234375,0.1532943727016449,0.2871450631342828,-0.10569043508153408
1772788611888868400,3.201868408203125,0.04646949023008346,0.2916321454204619,-0.09394012032672762
1772788611908900600,3.221900634765625,0.268600083270669,0.2446240182690322,-0.40228973792269823
1772788611928931600,3.241931640625,0.32910803572535513,0.2531187287613749,-0.17879359214995055
1772788611948963300,3.26196337890625,0.17467150725126265,0.3296912424407899,-0.010684603485744446
1772788611968994300,3.281994384765625,0.09765314950048923,0.2395532908760011,-0.05080877980971708
1772788611989026600,3.302026611328125,-0.03627718203961849,0.14123437094315885,0.05154120400380343
1772788612009057500,3.3220576171875,-0.03498012796640396,0.04061594189628959,0.15734010442849247
1772788612029089500,3.342089599609375,0.2276508177667856,-0.0718767570786178,0.0416010074108839
1772788612049120500,3.36212060546875,0.2226099009901285,-0.130328507655859,0.10600688061956316
1772788612069152300,3.38215234375,0.01091477724611759,-0.09635127312168479,-0.00007971417270600796
1772788612089183200,3.402183349609375,-0.07027998940646649,-0.13686053977310655,-0.13263104897718875
1772788612109215500,3.422215576171875,0.11046762288808822,-0.2891559645652771,0.035880255143903195
1772788612129246500,3.44224658203125,-0.06876023249328136,-0.3429318322859704,0.2010664334302768
1772788612149278500,3.462278564453125,-0.03996609968543052,-0.3304978826485574,0.007752294627204537
1772788612169310200,3.482310302734375,-0.1935480571568012,-0.334584859701246,0.13363781486693768
1772788612189341400,3.502341552734375,-0.20919278553426265,-0.2699173033490777,0.07768726998828351
1772788612209373400,3.52237353515625,-0.32903321692347526,-0.24690409203022717,0.11880115146934986
1772788612229404400,3.542404296875,-0.3618132044970989,-0.15559943477362392,0.14137878438252954
1772788612249436400,3.5624365234375,-0.2356330486923456,-0.1334264736711979,-0.014474150228127836
1772788612269467400,3.58246728515625,-0.11698971813321113,-0.12595613779053091,-0.1268849065406248
1772788612289499600,3.602499755859375,-0.1847428194105625,-0.10606778049394487,-0.1629475690467283
1772788612309530600,3.622530517578125,-0.2640560101002455,-0.012028583706915378,-0.1743147297028452
1772788612329562400,3.642562255859375,-0.1779465833991766,0.021528671849519013,-0.285464599234052
1772788612349593300,3.66259326171875,-0.1284369948208332,0.08031549960002303,-0.2821488988148048
1772788612369625300,3.682625244140625,-0.07391045486330985,0.06992255427092313,-0.20638514423500745
1772788612389656600,3.702656494140625,-0.005372925209999084,0.03848360604271293,-0.08819158500367776
1772788612409688600,3.7226884765625,0.08816811279654502,0.022188158671557903,-0.08367715805284678
1772788612429719600,3.742719482421875,0.1327419985383749,0.012946283073723315,-0.12327614145893603
1772788612449751300,3.762751220703125,0.13213818742632866,0.03721475515067577,-0.13159290156848727
1772788612469782300,3.7827822265625,0.10186287615001201,0.010255874945968389,-0.01757087413445115
1772788612489814500,3.802814453125,0.010133271479606628,0.07560396090820432,0.053957800158858295
1772788612509845500,3.822845458984375,-0.002740238618850708,0.09182415108606219,-0.014660430047847329
1772788612529877500,3.84287744140625,0.008064648512005805,0.028627982460707423,0.0716491588678211
1772788612549908500,3.862908447265625,0.04237140726149082,-0.020868308244645594,0.07205591303780674
1772788612569940200,3.882940185546875,0.09362228654921054,-0.053340545043349265,0.10395564717818051
1772788612589971500,3.902971435546875,0.09571838204562663,-0.03932531756386161,0.17549648683331906
1772788612610003500,3.92300341796875,-0.017467267629504204,-0.00656301177740097,0.1994092408077791
1772788612630032600,3.94303271484375,-0.10835574530065059,0.04972513102516531,0.16718538927957416
1772788612650064400,3.963064453125,-0.015259528452157974,0.007665127800405025,0.07685147675126791
1772788612670095400,3.983095458984375,-0.028742694881558416,-0.0006700082160532474,0.13663473166059703
1772788612690127400,4.00312744140625,-0.03706804015636444,0.011475918260216713,0.11734160031080246
1772788612710158800,4.023158935546875,0.03980067999064922,-0.05458104662373662,0.164167393165268
1772788612730190800,4.04319091796875,0.00066401686668396,-0.029143676897883414,0.18766210439074785
1772788612750221800,4.063221923828125,-0.0069207391738891596,0.016620587672293186,0.1141372513115406
1772788612770253600,4.083253662109375,-0.04801262801885604,0.05337152470350265,0.05037500976864248
1772788612790284800,4.103284912109375,-0.009067103552818298,0.09591931144520639,-0.02997212707865983
1772788612810316800,4.12331689453125,0.07905950818955898,0.05561024354100227,0.008366554068028926
1772788612830347800,4.14334765625,0.07686872014701367,0.045228257997334,0.09599303426854312
1772788612850379800,4.1633798828125,0.10949907011687755,0.03269932355284691,0.05155420961584896
1772788612870410800,4.18341064453125,0.08942951103448868,0.04598053766936064,0.04433017664644867
1772788612890442800,4.20344287109375,0.01326455524265766,0.0725140320688486,0.06739519121777265
1772788612910473700,4.2234736328125,-0.040400399449467654,0.05232435373812914,0.14450378453526644
1772788612930505700,4.243505615234375,-0.029206220740079877,0.054757572234421965,0.10938611126169562
1772788612950536700,4.26353662109375,0.02213467491865158,-0.013911913235485553,0.11243373532928526
1772788612970568700,4.283568603515625,-0.05280629203617573,-0.03980521003529429,0.20192213694415986
1772788612990602800,4.303602783203125,-0.1682610556870699,0.005903817216306924,0.13639500462058932
1772788613010634800,4.323634765625,-0.18466157086789606,0.04761500700339675,0.030206666486896572
1772788613030666000,4.343666015625,-0.1461491771221161,0.001286678809672594,0.09637293696422129
1772788613050697700,4.36369775390625,-0.13207564358413218,-0.017904343872517346,0.16429043502304702
1772788613070728700,4.383728759765625,-0.14095394656658172,0.023348580753058193,0.025602899018488823
1772788613090760700,4.4037607421875,-0.015277648630738258,0.002035451350361109,-0.03458988653980195
1772788613110791700,4.423791748046875,0.055875031957030294,-0.0010955401517450808,-0.014302556520886718
1772788613130824000,4.443823974609375,0.1413426536232233,0.00791501090824604,-0.024905199077911673
1772788613150855700,4.463855712890625,0.1736889259546995,0.05931479714736342,-0.12442589601594954
1772788613170886700,4.48388671875,0.07831248921453952,0.11744345325008033,-0.08573058345131576
1772788613190918700,4.503918701171875,0.02844108158648014,0.11502207132205367,-0.04372928814385086
1772788613210949600,4.52394970703125,0.0344990664511919,0.12256065013334154,-0.019331746327131985
1772788613230982000,4.54398193359375,0.06518880374729633,0.12236644273549317,-0.10685951539352535
1772788613251012900,4.564012939453125,-0.034137247401475904,0.10460764481350779,-0.05707092721071094
1772788613271044600,4.584044677734375,-0.0720434919476509,0.05510872375965118,0.01934055068809539
1772788613291075600,4.60407568359375,-0.036839492097496984,-0.008036737591773271,0.10952789435256272
1772788613311107800,4.62410791015625,-0.05948971532285213,-0.03321969416514039,0.16073416731357573
1772788613331138800,4.644138916015625,-0.15583061318099498,-0.0014392390228807925,0.19467885128501802
1772788613351170800,4.6641708984375,-0.07338672325015068,-0.03194952809885144,0.15882731077894569
1772788613371201800,4.684201904296875,-0.01601005455851555,-0.0776176388181746,0.2326132990123704
1772788613391233800,4.70423388671875,-0.030207506737112998,-0.06939809200540184,0.25197332158591595
1772788613411264800,4.7242646484375,-0.09896657018661499,0.001712795267254114,0.18867734584789722
1772788613431296800,4.744296875,-0.013323591953516005,-0.045204877121746534,0.2292054998628795
1772788613451327700,4.76432763671875,0.055682724255323404,-0.095481796810776,0.19826167820785193
1772788613471359700,4.78435986328125,0.006230418822169304,-0.01877981153279543,0.07128211565371602
1772788613491390700,4.804390625,0.022222937723994255,0.021731939336657524,-0.00937974969856441
1772788613511423000,4.824423095703125,0.089497900095582,0.024376754757016894,0.010205569530837236
1772788613531454000,4.844453857421875,0.1003945571631193,0.025074381632357836,0.057810237803310155
1772788613551485700,4.864485595703125,0.03558101646900177,0.05198430812880397,-0.0019892010558396575
1772788613571516700,4.8845166015625,-0.013937924459576607,0.03110357879400253,0.016619309030659495
1772788613591548700,4.904548583984375,-0.002085574102401733,-0.011340016920864582,0.04407875916864723
1772788613611579600,4.92457958984375,0.04252162938714027,-0.03613850422129035,0.039737442028708755
1772788613631612000,4.94461181640625,-0.04334346716403961,-0.017580957137048242,0.09661204294972121
1772788613651643000,4.964642822265625,-0.14740063848793505,0.00884717719182372,0.10614512004647403
1772788613671674600,4.984674560546875,-0.1698731670588255,0.009724836809188127,0.11952131897006184
1772788613691706600,5.00470654296875,-0.03841770119965076,-0.04266308368444442,0.04217935528811067
1772788613711737900,5.02473779296875,-0.031900282129645345,-0.04602510746344924,0.016778920039162037
1772788613731769900,5.044769775390625,-0.05505962392091751,-0.06265387844219804,0.09965141064561903
1772788613751800800,5.06480078125,-0.02244973221719265,-0.024155951613187787,0.07083064555916935
1772788613771832800,5.084832763671875,-0.0028559739530086515,-0.014454203418642281,0.012544862665981054
1772788613791863600,5.104863525390625,-0.06739771196842194,0.015793927589803934,-0.007379186998493969
1772788613811895800,5.124895751953125,0.010150807136297225,-0.017264292403310535,0.004207315496727824
1772788613831926800,5.1449267578125,0.11418693567216395,-0.03048223202526569,-0.03193549957349896
1772788613851958800,5.164958740234375,0.1264759238809347,-0.03558306229561567,-0.022753026012703775
1772788613871989800,5.18498974609375,0.010350713622570036,0.0026755028195679185,-0.005422536505386233
1772788613892021800,5.205021728515625,0.035163667839765544,-0.006891951470822095,-0.07714549126178026
1772788613912053000,5.225052978515625,0.1328641636133194,-0.0010923252813518046,-0.1099179896486923
1772788613932084700,5.245084716796875,0.05877250696420669,0.0006593406915664673,-0.04662515571583062
1772788613952115700,5.26511572265625,-0.11640753433108329,0.10275134942233562,-0.013286328683048486
1772788613972147700,5.285147705078125,-0.09901508550345897,0.08919599453955888,0.016535320541635156
1772788613992178700,5.3051787109375,-0.10027648374140262,0.07925108523890376,0.08661003316696733
1772788614012211000,5.3252109375,-0.16268413233757018,0.0975719009578228,0.16521540438085794
1772788614032242000,5.345241943359375,-0.047211248508095736,0.039498336043208834,0.1253222238011658
1772788614052273700,5.365273681640625,0.08746668652892112,-0.05354819644466042,0.14396452655941247
1772788614072304600,5.3853046875,0.07606792515814303,-0.10496654125377536,0.25282307028304785
1772788614092336600,5.405336669921875,-0.02716214769184589,-0.05506517687886953,0.26895152705684305
1772788614112367900,5.425367919921875,0.06509878737628459,-0.045859833899140355,0.132910121646896
1772788614132399900,5.44539990234375,0.1587450393229723,-0.11278335248455404,0.0855006471529603
1772788614152430800,5.465430908203125,0.14971768325865267,-0.09945537661686539,0.091167331145145
1772788614172462600,5.485462646484375,0.11140870313048362,-0.023282237518578767,-0.051607547238282855
1772788614192493600,5.50549365234375,0.033734511819481845,0.03241816852390766,-0.03180202765325084
1772788614212525800,5.52552587890625,-0.03206044112741947,0.12465016975849866,0.00010168854249641299
1772788614232556800,5.545556884765625,-0.022998013749718663,0.21810499078631398,-0.05646282351603731
1772788614252588800,5.5655888671875,0.020323241582512853,0.2509405079394579,-0.017566928611695766
1772788614272619800,5.585619873046875,0.09427636654376984,0.17093831207230686,0.0892605294094421
1772788614292651800,5.60565185546875,0.2146627413779497,-0.011924684941023587,0.13761778788119552
1772788614312683800,5.625683837890625,0.3008370500087738,-0.1634098162636161,0.152713905932568
1772788614332714800,5.64571484375,0.1484410874515772,-0.15107479695603251,0.04946658968683332
1772788614352746800,5.665746826171875,-0.08908639668524265,-0.08225304353386163,-0.001398925278801471
1772788614372777700,5.68577783203125,-0.16394260796606538,-0.08671455298736691,0.04628092712173238
1772788614392810000,5.70581005859375,-0.10351590405404568,-0.10737784017920493,0.07553949910355731
1772788614412841000,5.725841064453125,-0.09395020332932472,-0.1017662839077413,0.0649026985486038
1772788614432872700,5.745872802734375,-0.16196633945703506,-0.053670946041494604,0.06651274582743644
1772788614452903700,5.765903564453125,-0.24688509506881234,-0.043821167678385974,0.1263185778947547
1772788614472935700,5.785935791015625,-0.2653489725202322,0.011853665531426668,0.12572965382458642
1772788614492966700,5.805966552734375,-0.19499357978999612,0.002198386827111244,0.10758598477086051
1772788614512999000,5.8259990234375,-0.10307985072433948,-0.03110518622919917,0.05738094300795346
1772788614533030000,5.84602978515625,-0.06721709470450878,-0.048614977826178074,0.05634317919174209
1772788614553061600,5.8660615234375,-0.04762742809355259,-0.02278977782651782,0.057747803558968004
1772788614573092600,5.886092529296875,-0.06655833853483199,0.01976443865597248,0.12235931887496262
1772788614593124900,5.906124755859375,-0.01583995868861675,0.03486366197988391,0.15053952103555202
1772788614613155800,5.92615576171875,0.011210545322299002,0.04015636156052351,0.19495131155084816
1772788614633187800,5.946187744140625,0.05075812733471393,0.023039807064831254,0.23881569731645286
1772788614653218800,5.96621875,0.08752923037111758,-0.022281536043435333,0.2217767746342346
1772788614673250600,5.98625048828125,0.08920330106317996,-0.024241437939554453,0.14782878250582143
1772788614693281800,6.00628173828125,0.021869886502623555,0.03533595566675067,0.08884807615103199
1772788614713314000,6.02631396484375,0.08926993655860424,0.03993278193771839,0.03319788419213146
1772788614733345000,6.046344970703125,0.1396428639680147,0.025090163723379372,0.043549949521571395
1772788614753377300,6.066377197265625,0.025671032351255417,0.05643558844923973,0.0791981129426509
1772788614773408300,6.086408203125,0.037000235617160794,0.03291603504344821,0.08910868158228695
1772788614793440000,6.10643994140625,0.037275545427203176,0.030833237420022485,0.06710581634975969
1772788614813471000,6.126470947265625,-0.04390811530947685,0.021418051081895827,0.13356931620799004
1772788614833503200,6.146503173828125,-0.13123100945353508,0.0479636743105948,0.22896756292115897
1772788614853535200,6.16653515625,-0.14908113892078398,0.0821145118460059,0.17794238214809446
1772788614873566200,6.186566162109375,-0.05028115747272968,0.034138124184310434,0.18261932445056736
1772788614893598000,6.206597900390625,0.0005880290210247039,-0.001677285562455654,0.23678357043433934
1772788614913629000,6.22662890625,0.02411094342768192,-0.016141864244639873,0.1957784830899909
1772788614933661200,6.2466611328125,-0.07956102797091007,0.03518821775913238,0.20332685264293104
1772788614953692200,6.266692138671875,-0.09365151264369487,0.054068567056953905,0.2162753642063588
1772788614973724200,6.28672412109375,-0.020486323189735412,0.013428952024132013,0.24062899381611494
1772788614993755100,6.306755126953125,0.028431144714355466,-0.018155396024137734,0.26591782191675156
1772788615013787100,6.326787109375,0.0762964732170105,-0.019808570058643817,0.21129995041396468
1772788615033818400,6.346818359375,0.10254209058582782,-0.0619866467051208,0.2466733885468915
1772788615053850000,6.36685009765625,0.030735330003499983,-0.0516787493109703,0.27439375464338805
1772788615073881000,6.386881103515625,0.05168050287663936,-0.05997720657885074,0.1521136750170961
1772788615093913000,6.4069130859375,0.059357028853893275,-0.05323708466887474,0.14081618206370622
1772788615113944000,6.426944091796875,-0.08790566246807574,-0.0262447405859828,0.2420687077630311
1772788615133976300,6.446976318359375,-0.1656079108297825,0.0008922726646065711,0.26028211758472025
1772788615154007300,6.46700732421875,-0.12711772891581058,-0.02634177121967077,0.23900990471430122
1772788615174039000,6.4870390625,-0.1367062259942293,-0.012438333551585674,0.2781927450675517
1772788615194070000,6.507070068359375,-0.10931143859028816,-0.009846855753660202,0.3013921266082674
1772788615214102000,6.52710205078125,0.12235972073376178,-0.03434124554097652,0.2011345302304253
1772788615234133200,6.54713330078125,0.19514672452509402,-0.08732669353634119,0.21746925016604363
1772788615254165200,6.567165283203125,0.17310849571824072,-0.0739998867124319,0.2636767284590751
1772788615274197000,6.587197021484375,0.16540917338728903,-0.03603898936957121,0.17254289772473275
1772788615294228000,6.60722802734375,0.11342939530313015,0.03537292667627334,0.047919871701486406
1772788615314260200,6.62726025390625,0.02130114670395851,0.03487418337389826,0.029343985242955384
1772788615334291200,6.647291259765625,-0.02514963882565498,0.061986208313703536,0.028547391505166886
1772788615354323200,6.6673232421875,-0.05516308429539203,0.10882380120381713,-0.05213566276561468
1772788615374354200,6.687354248046875,-0.1531891587615013,0.1409944247074425,-0.11010397720746695
1772788615394386200,6.70738623046875,-0.14921908608675002,0.13637567886561155,-0.2047247367421165
1772788615414417200,6.727417236328125,-0.0526069700717926,0.08372603869587182,-0.271987497219257
1772788615434449200,6.74744921875,-0.07314648475348949,0.1032946625187993,-0.3059178238717839
1772788615454480100,6.767480224609375,-0.07484218275547028,0.07012918275892734,-0.23405182564919813
1772788615474512100,6.78751220703125,-0.03887771992683411,0.03992459863126278,-0.24639396881731226
1772788615494543000,6.807543212890625,-0.047859483283758164,0.030433862838894127,-0.30768633138164875
1772788615514575400,6.827575439453125,-0.17555647339224814,0.03482683710083365,-0.1355247976573184
1772788615534606300,6.8476064453125,-0.11827040559351444,0.0324414032690227,-0.15821259468039497
1772788615554638000,6.86763818359375,0.04384674051105976,-0.01955225721001625,-0.2610567369527183
1772788615574669000,6.8876689453125,0.023657354441285132,-0.06125161042883992,-0.2458836629413068
1772788615594701000,6.907701171875,-0.0488946715503931,-0.03404869233518839,-0.2329176522538066
1772788615614732000,6.92773193359375,0.09752572372853756,-0.13424699627384543,-0.1953491882946342
1772788615634764300,6.947764404296875,0.03667348788082599,-0.11270078876763581,-0.23396325231660156
1772788615654795300,6.967795166015625,-0.027950667721033096,-0.13339125622734427,-0.4122751618968323
1772788615674827000,6.987826904296875,0.07536240723729133,-0.24190701439529655,-0.5184072763312608
1772788615694859000,7.00785888671875,-0.028010873475670814,-0.3165774938456714,-0.4601096934024244
1772788615714890000,7.027889892578125,-0.2880085480958223,-0.2604828277885914,-0.24857498438451436
1772788615734922000,7.047921875,-0.25567747333347796,-0.2464728610061109,-0.3479017661856487
1772788615754953000,7.067952880859375,-0.01847206075787544,-0.2743041401311755,-0.5567105208383872
1772788615774985000,7.08798486328125,-0.14616379016935824,-0.3045677609696984,-0.40719380351193246
1772788615795016000,7.108015869140625,-0.28687282206416126,-0.23023995747715234,-0.4117435392381623
1772788615815048000,7.1280478515625,-0.30356676723361015,-0.1816211802586913,-0.2630815390449017
1772788615835079000,7.148078857421875,-0.3841770119965076,-0.06649257982224226,-0.11454353055749088
1772788615855111000,7.16811083984375,-0.42376375697553154,-0.03223360573723912,-0.2125639424677938
1772788615875142000,7.188141845703125,-0.18860066388249397,-0.11732523369789123,-0.2772039532259106
1772788615895174100,7.208174072265625,-0.04359714966416359,-0.123980015411973,-0.07146068709101527
1772788615915205000,7.228205078125,-0.1537608211696148,-0.05042626503184437,0.16805311202481388
1772788615935236900,7.24823681640625,-0.013910451930761337,0.01488105052858591,0.06885404825657605
1772788615955267800,7.268267822265625,0.10284370388090609,0.16023104009702802,0.05107475553583354
1772788615975299800,7.2882998046875,0.17850071015059946,0.2565235687687993,0.03028659985531121
1772788615995331000,7.3083310546875,0.39651860717535015,0.2714325302176177,0.06466032289378344
1772788616015363000,7.328363037109375,0.7578203550189733,0.23701047452539203,-0.1204115092754364
1772788616035394800,7.348394775390625,0.8237526706099509,0.19274755442887542,0.0323489026799798
1772788616055425800,7.36842578125,0.7057026297688483,0.170127726341784,0.14171426341459153
1772788616075458000,7.3884580078125,0.5957821193695068,0.1621536787226796,0.1603781204175204
1772788616095489000,7.408489013671875,0.582325840947032,0.13674685026556252,0.16479337957650422
1772788616115521000,7.42852099609375,0.41130408837497234,0.12878157047480343,0.3375303385686129
1772788616135552000,7.448552001953125,0.524338931402564,0.07348156192675233,0.12072671270444989
1772788616155583700,7.468583740234375,0.43135260466933245,0.029758301664888857,0.18948168450072406
1772788616175614700,7.48861474609375,0.0488467407554388,0.09297302886024117,0.3779073571424931
1772788616195647000,7.50864697265625,0.15175415752232074,0.08621390998885035,0.27262217839360237
1772788616215678000,7.528677978515625,0.22527532080709933,-0.027329905474185942,0.22517017993219196
1772788616235710000,7.5487099609375,-0.11677987477481365,0.014286299505829811,0.4873256171081215
1772788616255741000,7.568740966796875,-0.3108651075482368,0.10553045874685048,0.6465044447384775
1772788616275773000,7.58877294921875,-0.3939338513791561,0.21179317729100583,0.5607103675968945
1772788616295804000,7.608803955078125,-0.3202425922244787,0.24924101054519412,0.39371282903961835
1772788616315836000,7.6288359375,-0.3169961576491594,0.2572904614880681,0.4876974460951984
1772788616335867000,7.648866943359375,-0.25089783784151076,0.28251681881174445,0.6195810011733323
1772788616355899000,7.66889892578125,0.06840893483757972,0.15989450161904095,0.5549873137749731
1772788616375929900,7.688929931640625,0.1071440314233303,0.09111381085962057,0.40580286061018706
1772788616395962000,7.708962158203125,0.07674246341884136,0.14286518701538442,0.3426858947008848
1772788616415993900,7.728993896484375,0.09321253670454024,0.13914748166650534,0.3084424104459584
1772788616436024800,7.74902490234375,0.14854162521660327,0.12085180038884281,0.24505948707684874
1772788616456056800,7.769056884765625,0.4449024065941572,0.050193333058804274,0.10359759098812937
1772788616476088000,7.789088134765625,0.5716501331537962,-0.04742006895318627,0.06526406094059348
1772788616496120000,7.8091201171875,0.43963235723674293,0.03927490255087614,0.053506037803366775
1772788616516151000,7.829151123046875,0.19358137490451335,0.1127276767745614,-0.024429653988033533
1772788616536182800,7.849182861328125,0.05160743764042854,0.12993030211851,-0.18599040831886232
1772788616556213800,7.8692138671875,0.005537760382890701,0.11153042981401085,-0.2650152105212211
1772788616576246000,7.88924609375,-0.019157704934477805,0.01084901853352785,-0.21698811558559536
1772788616596277000,7.909277099609375,-0.28068390429615975,-0.020136194577813148,-0.023578443986177443
1772788616616306000,7.929305908203125,-0.40532969014048575,-0.08155877765938639,0.025499548241868612
1772788616636337200,7.949337158203125,-0.5175029479026794,-0.12594883126690984,0.10568696448281406
1772788616656369000,7.969368896484375,-0.5388116933912038,-0.191101540787518,0.1971604024350643
1772788616676401000,7.98940087890625,-0.5369137508153915,-0.19567805492281912,0.1604977282091975
1772788616696431900,8.009431884765625,-0.652574850693345,-0.1830604192815721,0.32159049970209597
1772788616716463900,8.0294638671875,-0.607701105222106,-0.14164149043932556,0.23248079520650206
1772788616736494800,8.049494873046875,-0.41847734100520606,-0.1511085530951619,0.13245485216006636
1772788616756526800,8.06952685546875,-0.44934886460900303,-0.11995280572250484,0.23256175148822367
1772788616776557800,8.089557861328124,-0.4191390197843313,-0.06878668210878967,0.32274456510804594
1772788616796589800,8.10958984375,-0.34049569118022915,0.026820640777796504,0.2965807077385485
1772788616816620800,8.129620849609376,-0.20347849954068659,0.05166004461050033,0.22812150401845574
1772788616836653000,8.149653076171875,-0.11575170077085495,0.08618906780853867,0.18953472986221312
1772788616856684000,8.16968408203125,0.037869419667124746,0.07289572486281394,0.2058082576625049
1772788616876715800,8.1897158203125,0.05715396585166454,0.09207257288917899,0.2584193193875253
1772788616896746800,8.209746826171875,-0.010181202274560928,0.12679098117947576,0.3084473788820207
1772788616916778800,8.22977880859375,0.08745558061301707,0.09259849645942449,0.18973741282746195
1772788616936809700,8.249809814453124,0.18502981965839863,0.030282910060882566,0.08793598454110324
1772788616956842000,8.269842041015625,0.23784604856669903,-0.038552287364751095,0.05609225490428507
1772788616976874000,8.2898740234375,0.16393559370338917,-0.036634471044689414,-0.002538213240727782
1772788616996905000,8.309905029296875,-0.018597732964158058,0.03635360827669501,-0.08167312475405633
1772788617016936700,8.329936767578126,-0.15214695623219013,0.07477204012870788,-0.11114851782433688
1772788617036970800,8.349970703125,-0.2753074719548225,0.06603899083584547,-0.0012952274423092603
1772788617057002800,8.370002685546876,-0.15253917042016982,0.014196137004345655,-0.1179609743181616
1772788617077034000,8.390033935546874,0.04836100306510925,-0.10323109576329588,-0.201736770439893
1772788617097066000,8.41006591796875,0.021733692902326584,-0.17600407102927565,0.03503931080773472
1772788617117097000,8.430096923828126,-0.025702012011408804,-0.13498860842138527,0.02772555372826755
1772788617137128700,8.450128662109375,-0.11721359001696109,-0.08760551047772168,-0.049510538426414126
1772788617157159700,8.47015966796875,-0.06366729326844214,-0.10799655659943819,-0.05698978826589882
1772788617177192000,8.49019189453125,0.14109598538577556,-0.2087489872895181,-0.11379574439749121
1772788617197223000,8.510222900390625,-0.14267185640037058,-0.034277240394055844,-0.05072787832692265
1772788617217255000,8.5302548828125,-0.2758914093226194,0.16724296468570826,-0.14321421964876352
1772788617237286000,8.550285888671874,-0.006268997266888618,0.13209887832924722,-0.1990608292289078
1772788617257318000,8.57031787109375,0.07742343142032623,0.11649740457162261,-0.09458360586203635
1772788617277349000,8.59034912109375,0.18311200333833694,0.12058730423375963,-0.07641790763959289
1772788617297380900,8.610380859375,0.27632921621799467,0.107409404361248,0.011638415345549583
1772788617317412900,8.630412841796876,0.20377251405119895,0.18577040889263152,-0.028594299386814234
1772788617337443800,8.65044384765625,0.07294307113587856,0.2564600020132959,0.023536942932009697
1772788617357476000,8.67047607421875,0.16634557745456693,0.18711393245607613,0.06749737295061349
1772788617377507000,8.690507080078126,0.22501637760996818,0.17143822441846132,0.17719759166277943
1772788617397538800,8.710538818359375,0.1848310822159052,0.16941446350589393,0.22501367419622836
1772788617417569800,8.73056982421875,0.18581892420947552,0.12039675009772181,0.1896898473586887
1772788617437601800,8.750601806640624,0.1426022982954979,0.12418547485619782,0.14836407669261098
1772788617457632800,8.7706328125,-0.06953589304089546,0.1549720966555178,0.29534415168091654
1772788617477665000,8.7906650390625,-0.06607143180072307,0.10579627007618546,0.2815658747624606
1772788617497696000,8.810696044921874,-0.13070084809958935,0.08035612387135624,0.3581675414711237
1772788617517727700,8.830727783203125,-0.17671616482138633,0.08718217049911618,0.255153814785555
1772788617537758700,8.8507587890625,-0.3499930028438568,0.18154329271689057,0.21632015319615602
1772788617557791000,8.870791015625,-0.3168821758806705,0.13118380931094287,0.2556278620380908
1772788617577823000,8.890822998046875,-0.2950257333815098,0.12060542441233991,0.16229447543285785
1772788617597854000,8.91085400390625,-0.3193061881572008,0.07784998626932502,0.14506057816781104
1772788617617886000,8.930885986328125,-0.4055570691555738,0.03318710706979036,0.4292437958218157
1772788617637917000,8.9509169921875,-0.19986790782809255,-0.014260434412211179,0.34288214792534705
1772788617657949000,8.970948974609374,-0.0959510217577219,-0.04351663177385926,0.2882962059307843
1772788617677980000,8.99097998046875,-0.027356208959221837,-0.06210705821439624,0.27133118873499334
1772788617698012000,9.011011962890626,0.1081195984572172,-0.07631912344023585,0.14062997530922292
1772788617718043000,9.03104296875,0.17460662532150745,-0.08061492093801498,0.08198737833499908
1772788617738075100,9.0510751953125,0.13173778993189333,-0.05920534542351961,0.14879077767208218
1772788617758106000,9.071106201171874,0.07756371667385101,-0.04104965713843703,0.03111234662234783
1772788617778137900,9.091137939453125,-0.008054711639881133,0.007966741095483303,-0.07148308158591389
1772788617798168800,9.1111689453125,-0.016247954967617988,0.04016790586784482,-0.19061748359762132
1772788617818200800,9.131200927734374,-0.0074859718412160865,0.054510027214139695,-0.19648966356664896
1772788617838233000,9.151233154296875,-0.05321779544651508,0.0721582043685019,-0.1352338153541088
1772788617858264000,9.17126416015625,-0.050038580888509744,0.08519391929134726,-0.09188143423125147
1772788617878295800,9.1912958984375,-0.03041735009551048,0.09812339736074209,-0.08112294352538883
1772788617898326800,9.211326904296875,0.0224082311630249,0.11347089635729789,-0.095174046035856
1772788617918359000,9.231359130859374,0.04871054715514183,0.1322492465853691,-0.10035590565316378
1772788617938390000,9.25139013671875,0.16852818219065666,0.08394581892639398,-0.052444911377877
1772788617958422000,9.271422119140626,0.18435060522258281,0.03213496766835451,0.04988784730620682
1772788617978453000,9.291452880859374,0.1326981593966484,0.011600713683664799,0.10039484942406415
1772788617998484700,9.311484619140625,0.07417933493256569,0.007355331198871135,0.027872707113996146
1772788618018515700,9.331515625,0.06777648215293884,0.03700608083605766,-0.03067088646516204
1772788618038548000,9.3515478515625,-0.008788286611437797,0.06078413904756307,0.07056954693756998
1772788618058579000,9.371578857421875,-0.116751233202219,0.11392477760463952,0.1548796691317111
1772788618078611000,9.39161083984375,-0.1801116524785757,0.1445756441950798,0.1562939198438078
1772788618098643000,9.411642822265625,-0.20607319220900536,0.12265227393954992,0.13106471297591923
1772788618118674000,9.431673828125,-0.1652139430761337,0.04930529817789793,0.165345387436077
1772788618138706000,9.451705810546875,-0.06406652171909809,0.013518237742781639,0.18879954745545982
1772788618158737000,9.47173681640625,-0.06375029537677765,0.04931172791868448,0.21965857690386473
1772788618178769000,9.491768798828126,-0.08827566482424735,0.07907032184451818,0.2711054902203381
1772788618198800000,9.5117998046875,0.015740589967370034,0.06247048469930887,0.23063209859989584
1772788618218832100,9.53183203125,0.06597206307947635,0.06863894420117139,0.1706147061411291
1772788618238863000,9.551863037109374,0.07247311553657054,0.06436287431716918,0.11823906060718
1772788618258894800,9.571894775390625,0.020376433074474332,0.08011047854721545,0.14584171860814094
1772788618278925800,9.59192578125,0.053013212785124775,0.036114977215230465,0.10464249693118036
1772788618298957800,9.611957763671874,0.028791210198402403,0.032710137207806106,0.11497414052709937
1772788618318989000,9.631989013671875,-0.0742921476572752,0.01461480080783367,0.2287261188481003
1772788618339021000,9.65202099609375,-0.10343290194571017,-0.01252951896637678,0.14556918527707458
1772788618359052800,9.672052734375,-0.12225801392495632,0.003951367974281311,0.05707023309096693
1772788618379083800,9.692083740234375,-0.14507424136698246,0.010529869581758975,0.11523987879119812
1772788618399116000,9.712115966796874,-0.07974632140994072,0.00391132822483778,0.054447044980525966
1772788618419147000,9.73214697265625,-0.08960194499194621,0.05234948817938566,-0.032970176383480425
1772788618439179000,9.752178955078126,-0.06693126350045203,0.030624270844459532,-0.02587831842638552
1772788618459210000,9.7722099609375,-0.14514087686240673,0.07214198388606309,0.10353263599313794
1772788618479241700,9.79224169921875,0.008218962290883064,0.01987374424934387,0.01696625930480659
1772788618499272700,9.812272705078126,0.059093409481644626,0.012106325118243694,0.007091419565677643
1772788618519305000,9.832304931640625,0.04006956005990505,-0.005794657753407955,0.09418094334527849
1772788618539336000,9.8523359375,0.08377835340499877,-0.004543196387588978,0.06080174776948988
1772788618559368000,9.872367919921874,0.09297463629543781,0.022348902191221712,0.02668335119895637
1772788618579400000,9.89239990234375,0.031153263154625892,0.0004988894328474998,0.13683270191811026
1772788618599431000,9.912430908203126,0.04398118054568767,0.05127718277275562,0.10450696091800928
1772788618619463000,9.932462890625,0.0803355194747448,0.09176438372284174,0.008493395318090916
1772788618639494000,9.952493896484375,0.03318272315561771,0.08862316308766603,0.05287132009640336
1772788618659526000,9.97252587890625,0.11673252850174903,0.046126083619892594,-0.0003279898453503847
1772788618679556900,9.992556884765625,0.15765782860815525,0.018067571610212326,0.013335866913199424
1772788618699589000,10.012589111328126,0.14484686235189437,0.0025298107385635375,0.018311536433920264
1772788618719619800,10.032619873046874,0.04347673815488815,-0.01517214242964983,0.08642572610862552
1772788618739651600,10.052651611328125,-0.16805822659134864,0.04093348341286182,0.19465134222358463
1772788618759682600,10.0726826171875,-0.13209317924082278,0.027373744615912434,0.05880436340719461
1772788618779714600,10.092714599609375,-0.09745382753610611,-0.029364041650295256,0.014894786792993544
1772788618799745500,10.11274560546875,-0.11238602373003959,-0.05923749412745237,0.12447525158300995
1772788618819777800,10.13277783203125,-0.10617781673967838,-0.03198679136931896,0.10290478641837834
1772788618839809500,10.1528095703125,-0.0585194089859724,-0.03836743231713772,0.1571397230181843
1772788618859840500,10.172840576171875,-0.0738081635326147,-0.016600129406154154,0.14810221088603137
1772788618879872500,10.19287255859375,-0.12396364879906177,0.012935469418764113,0.13851086426340042
1772788618899903500,10.212903564453125,-0.18874094913601874,0.05033522574752569,0.13864545042850077
1772788618919935700,10.232935791015626,-0.09417232164740562,0.013148819908499717,0.15874270123541354
1772788618939966700,10.252966796875,-0.05324117632210254,0.00845920078754425,0.10615816219113766
1772788618959998700,10.272998779296875,-0.024727614021301268,-0.008980009791254996,0.0937307153597474
1772788618980029700,10.29302978515625,0.05564356128871441,-0.0339414325684309,0.12181005096174775
1772788619000061700,10.313061767578125,0.1808651011943817,-0.08194149336665868,0.13813969286344946
1772788619020092700,10.3330927734375,0.07418985632658004,-0.01803600742816925,0.1836600656751543
1772788619040124700,10.353124755859374,-0.03243511965870857,0.038491643218696116,0.16454941475279627
1772788619060156700,10.37315673828125,-0.06381517730653286,0.08260609475523233,0.09707622639536857
1772788619080187600,10.393187744140626,-0.05578209297657013,0.07021160034537315,0.07050510339923202
1772788619100219600,10.4132197265625,-0.004093406793475151,0.03132452806830406,0.009324000923335551
1772788619120250600,10.433250732421875,0.04560732044279575,-0.0025058453410863875,0.029136443439498543
1772788619140282600,10.45328271484375,0.05936345859467983,-0.06273118146210908,0.08774170407801866
1772788619160313600,10.473313720703125,0.06112170043885708,-0.0739303286075592,0.029573592747747898
1772788619180345600,10.493345703125,-0.05003682732284069,-0.023658815746009348,0.004392243609577417
1772788619200376800,10.513376953125,-0.08605857329666614,-0.014770868152379988,0.006196078161150216
1772788619220408600,10.53340869140625,0.0021294132441282273,-0.0775467655390501,0.04770670387484133
1772788619240439600,10.553439453125,0.035037411111593246,-0.07526888373494148,0.046780455875396726
1772788619260471600,10.573471435546875,-0.05188683910369873,-0.012087912678718567,0.07170147357694805
1772788619280503800,10.59350390625,-0.14212883556485176,0.0662727995917201,-0.023032427475973963
1772788619300534800,10.61353466796875,-0.08924187950789927,0.0748363375365734,-0.12310593599118291
1772788619320566500,10.63356640625,0.007114215919375419,0.0569485064074397,-0.05633906927220523
1772788619340597500,10.653597412109375,-0.010087678772211074,0.027572774319350717,0.15156265353821216
1772788619360629500,10.67362939453125,0.02185235084593296,0.08827741838991641,0.12313567354232072
1772788619380660500,10.693660400390625,0.10016308649480342,0.04833177697062492,0.0449048712618649
1772788619400692700,10.713692626953126,0.09479249937236309,0.007445347569882869,0.0441116750575602
1772788619420723700,10.7337236328125,0.04810264438986778,0.007795768442749976,0.1233050387598574
1772788619440755700,10.753755615234375,0.008419453299045563,0.06156213768273592,0.14827544856108724
1772788619460786700,10.77378662109375,-0.08836451215147971,0.11017740776985883,0.22342713565714656
1772788619480818700,10.793818603515625,0.0035579847425222396,0.03420505194067955,0.15989757035896182
1772788619500850700,10.8138505859375,-0.03647182782888412,0.0735360685929656,0.05277173217944801
1772788619520881700,10.833881591796874,-0.03755728497803211,0.041216099746525285,0.06067439506277442
1772788619540913700,10.85391357421875,-0.031167876201868054,0.020914777734875677,0.15120857940353452
1772788619560944600,10.873944580078126,0.029174072036147115,0.0262859493792057,0.15375263786315918
1772788619580976600,10.8939765625,0.017362638211250305,0.04125555497407913,0.11732947148159145
1772788619601007600,10.914007568359375,-0.020287001225352284,0.04039660005718469,0.1374225575700402
1772788619621039600,10.93403955078125,0.03815525087118148,-0.0006523264288902282,0.0527365878008306
1772788619641070600,10.954070556640625,-0.02095394070148468,0.03142214322388172,-0.007064093167334795
1772788619661102600,10.9741025390625,-0.08317746490240097,0.05661708249598741,-0.02942738921009004
1772788619681133800,10.9941337890625,-0.07841594958901404,0.045884091557562345,0.005364230446889997
1772788619701165600,11.01416552734375,-0.020789105528593064,0.011550152540206908,0.07147394843138755
1772788619721198000,11.034197998046874,0.08646364696621894,-0.01319441261589527,0.04532324280440807
1772788619741229000,11.05422900390625,0.08880874878764151,-0.009560440027713776,0.05456826020739972
1772788619761261000,11.074260986328126,0.11484393827617168,-0.011772563119232653,0.01515351079441607
1772788619781292000,11.0942919921875,0.09247428555786609,0.03723872054815292,-0.06644369917921722
1772788619801324000,11.114323974609375,0.0025350714355707165,0.05159603946357965,-0.012803367471694945
1772788619821355000,11.13435498046875,-0.03243511965870857,0.03650485331565141,0.10016272116862236
1772788619841387000,11.154386962890625,-0.005598550659418106,0.02064268279522657,-0.021460136657953263
1772788619861418000,11.17441796875,-0.07576163568794726,0.04274170187860727,-0.04690481290742755
1772788619881450000,11.194449951171874,-0.01573942092359066,0.020805179880559445,-0.024356954078003763
1772788619901482000,11.21448193359375,0.09636895490884781,0.011016484054923057,-0.03073438015542924
1772788619921513000,11.234512939453126,0.008255787169933318,0.03832271639257669,-0.025707711099833247
1772788619941545000,11.254544921875,-0.07356032625138759,0.07512041517496108,0.05510645873732865
1772788619961576000,11.274575927734375,-0.19920973618030546,0.1143485559746623,0.08439853112995624
1772788619981608000,11.29460791015625,-0.188337629032135,0.055907180660963056,0.13861892774775622
1772788620001639200,11.31463916015625,-0.13613047193288802,0.0009138999745249747,0.2242773227456957
1772788620021671200,11.334671142578125,-0.11377777034938334,0.03250000158846378,0.1635523665394634
1772788620041702100,11.3547021484375,-0.04695931957364082,0.022936638951301574,0.10438662247397006
1772788620061734000,11.37473388671875,0.05863748240768909,-0.029795418804883955,0.16523388988561927
1772788620081766100,11.39476611328125,0.02276245142817497,-0.01913958475589752,0.16305515760704875
1772788620101797000,11.414797119140625,-0.0482803390443325,0.02122837372869253,0.13006123502179978
1772788620121829000,11.4348291015625,-0.03259410961270332,0.011885375843942165,0.18446378327347338
1772788620141860000,11.454860107421876,0.08732932388484478,-0.045730946822464466,0.10281813104823231
1772788620161891800,11.474891845703125,0.07444587691426277,-0.05557371092289686,0.053314899145439264
1772788620181922800,11.4949228515625,-0.05493628980219364,-0.026454291683435438,0.1779236409150064
1772788620201955000,11.514955078125,0.03365209423303604,-0.046401977951824665,0.09091814215704798
1772788620221986000,11.534986083984375,0.09910627091825008,0.0014227262794971466,0.020980463382229208
1772788620242018000,11.55501806640625,0.06737023943960667,0.03957330097556114,-0.010461407455429434
1772788620262049000,11.575049072265625,0.022872926065325736,0.03940232832282781,-0.051404389348998665
1772788620282081000,11.5950810546875,-0.007843699237704277,0.05156885919570923,-0.05891008880399167
1772788620302113000,11.615113037109374,-0.03788286367058754,0.05196253468841314,-0.06133936177752912
1772788620322144000,11.63514404296875,-0.06137479841709136,0.03593056055903435,-0.011657046980783342
1772788620342176000,11.655176025390626,-0.15372867246568203,0.05044277777522802,0.10659976847879588
1772788620362207000,11.67520703125,-0.12602058132886887,0.035003508841991424,0.18200513807497917
1772788620382239000,11.695239013671875,-0.04309270727336406,0.049967269217967986,0.07746222906075417
1772788620402270000,11.71527001953125,-0.03253156577050686,0.018651508978009223,0.024897052304074168
1772788620422302000,11.735302001953125,-0.035841713231801985,0.029358780953288078,0.07711597290635108
1772788620442333000,11.7553330078125,0.0739782594025135,-0.0013975918382406233,0.0714135965462774
1772788620462365000,11.775364990234374,0.06889116539657116,-0.011226035152375698,0.14330058275796473
1772788620482397200,11.795397216796875,-0.009069441640377044,-0.018903730173408986,0.22616459779702125
1772788620502428200,11.81542822265625,-0.05335282000303268,-0.013787410072982311,0.16365180832594634
1772788620522460000,11.8354599609375,-0.10109481438696384,0.004925473703444004,0.16872808867692946
1772788620542491000,11.855490966796875,-0.05540156922638416,-0.02375058568269014,0.1527496713656932
1772788620562523100,11.875523193359374,-0.04344868110418319,-0.013410685715079307,0.10351327370554209
1772788620582554000,11.89555419921875,-0.06453998444974422,0.04390285461246967,0.13048106786906719
1772788620602586000,11.915586181640625,-0.01917407154738903,-0.010265957948565482,0.15178119165971873
1772788620622615000,11.935614990234376,-0.03426233508586883,0.01135404544621706,0.12853994373865424
1772788620642646000,11.95564599609375,0.022054595419764518,-0.006433247917890549,0.012205182382836938
1772788620662678000,11.975677978515625,0.06455225940942765,-0.031438802097737785,0.015712386786192654
1772788620682709000,11.995708984375,0.06461480325162411,-0.022930793732404708,0.09690649585165083
1772788620702741000,12.015740966796875,0.004334229812026024,0.022648177398741243,0.08685724939368665
1772788620722772000,12.03577197265625,-0.052878188228607174,0.03877396729141473,0.06039930444844067
1772788620742803700,12.0558037109375,-0.07282850484549999,-0.002659282337129116,0.10327975721061229
1772788620762834700,12.075834716796875,0.010332593443989754,-0.02627425894141197,-0.011958952536806464
1772788620782866700,12.09586669921875,0.05669336260259151,-0.016680208905041218,-0.08846205424182116
1772788620802899000,12.11589892578125,-0.045759296134114266,0.0013344634741544723,0.007079948323592543
1772788620822930000,12.135929931640625,0.031633155626058576,-0.042564884006977076,0.03754727504067123
1772788620842961700,12.155961669921876,0.07852993135750293,-0.06825520558059216,-0.00048668753840029236
1772788620862992600,12.17599267578125,-0.020256606087088583,0.025494214479625223,-0.026836715129762885
1772788620883025000,12.19602490234375,-0.011134557476639747,0.02086860050559044,-0.016811726330220697
1772788620903056000,12.216055908203124,0.023702947148680684,0.03387655063867569,-0.007379954183474182
1772788620923088000,12.236087890625,0.004814122283458709,0.035814240702986715,0.11241203495413064
1772788620943118800,12.256118896484375,-0.05481412472724914,0.054143385858833784,0.15311930839568375
1772788620963150800,12.27615087890625,-0.03407236547172069,0.012252747851610183,0.0865929724343121
1772788620983182800,12.296182861328125,-0.13178572072684763,0.02242342873215675,0.07783822276629507
1772788621003213800,12.3162138671875,-0.16714754148721694,0.010627484737336636,0.09854403392560779
1772788621023245800,12.336245849609375,-0.08417991994321346,-0.03455956446677446,0.14429492755755782
1772788621043280000,12.35627978515625,-0.042293665850162504,-0.014686112478375434,0.1616088312562555
1772788621063312000,12.376311767578125,-0.004231938481330871,-0.030419688183069227,0.21046543581858276
1772788621083342800,12.3963427734375,0.017249825486540794,-0.026026129399240015,0.16677169391214847
1772788621103374600,12.41637451171875,0.0878770208954811,-0.0006593406915664673,0.09599654139988124
1772788621123405600,12.436405517578125,0.1179582709044218,-0.018961013318598268,0.09582235387675464
1772788621143437800,12.456437744140626,0.0627110154569149,0.018306348802149295,0.12368534331433474
1772788621163469800,12.4764697265625,0.08214227663576602,0.014334814822673797,0.06429908836595714
1772788621183500800,12.496500732421875,-0.008534019589424133,0.001432078629732132,0.09260397635214031
1772788621203532800,12.51653271484375,-0.07091361113488674,0.0392591204598546,0.05164309347569942
1772788621223564000,12.53656396484375,-0.030462358281016347,0.052800154556334015,-0.03164126586727798
1772788621243595800,12.556595703125,0.028815175595879552,0.03904167831689119,-0.020882848226651547
1772788621263626800,12.576626708984374,0.009739888247847557,0.03949234469383955,0.055770987060666084
1772788621283658800,12.59665869140625,0.0610550649434328,0.02050765823870897,0.1064351525016129
1772788621303689700,12.616689697265626,0.07680676082670689,0.03406827381849289,0.04032280416861176
1772788621323722000,12.636721923828125,0.04525310017764568,0.028863983173668385,0.019927008806541562
1772788621343753700,12.656753662109375,0.052236383193731306,0.022049919244647026,0.049323345291242
1772788621363784700,12.67678466796875,0.0634516046911478,0.0017617489755153656,0.0910452026028186
1772788621383816700,12.696816650390625,0.05011690682172775,0.03304886764287948,0.13875862847939133
1772788621403847700,12.71684765625,0.03744739486277103,0.029292729979753494,0.10016220971196889
1772788621423880000,12.7368798828125,-0.022618074521422386,0.054765609410405154,0.10668795821890234
1772788621443911000,12.756910888671875,0.011399930414557457,0.014843056605756282,0.08810469217151402
1772788621463942700,12.776942626953126,-0.02026069774031639,0.03461626309007406,0.04895560795739293
1772788621483974700,12.796974609375,-0.036516251492500304,0.024239245982468127,0.08909231496937572
1772788621504006000,12.817005859375,-0.05056172797977924,0.004168225595355034,0.12225216870605946
1772788621524038000,12.837037841796874,-0.14009411486685275,0.05765227076262235,0.18354674149379133
1772788621544068900,12.85706884765625,-0.05532382781505584,-0.007822364188730717,0.1827938042346388
1772788621564100900,12.877100830078126,-0.017953005319833754,-0.04101473195552826,0.1828990912400186
1772788621584131800,12.8971318359375,-0.04277472736537456,-0.05457125588208437,0.11539996472373604
1772788621604163800,12.917163818359375,-0.1250736558675766,-0.02218289797455072,0.17607983967922627
1772788621624194800,12.93719482421875,-0.16474281843304633,-0.010765724164247512,0.23271898787654935
1772788621644226800,12.957226806640625,-0.09139701171517371,-0.037706045798957345,0.1356271985858679
1772788621664258800,12.9772587890625,-0.053585459715127945,-0.059494976019859314,0.037913478004559874
1772788621684289800,12.997289794921874,-0.05982581540942192,-0.038947570292651654,0.07829137336127459
1772788621704321800,13.01732177734375,-0.07127835279405116,0.058766369484364984,0.02948343024626374
1772788621724353300,13.037353271484376,-0.05549100107550621,0.11560030960142612,-0.06139277246519923
1772788621744385300,13.05738525390625,-0.03305062120854854,0.11206482895165681,-0.11606661193892359
1772788621764416300,13.077416259765625,-0.03937397901117801,0.1520773981273174,-0.05413498335666954
1772788621784448500,13.097448486328124,0.010065466940402983,0.195590668900311,-0.03667056527137756
1772788621804480300,13.117480224609375,0.004933949270844459,0.22205665102154015,-0.035831337968260046
1772788621824511200,13.13751123046875,-0.015461773025989532,0.20271686751842496,0.0051841246396303175
1772788621844543200,13.157543212890625,-0.030911855614185333,0.1975473559260368,0.07365450734086335
1772788621864574200,13.17757421875,-0.030035072779655454,0.13772972382307053,0.11883147354237734
1772788621884606500,13.1976064453125,-0.051803836995363235,0.05089812032729387,0.2655550164863467
1772788621904637400,13.217637451171875,-0.030559388914704323,0.0018415362134575842,0.24513116407357155
1772788621924669200,13.237669189453126,-0.03988134401142597,-0.03148234897851944,0.21161687087602912
1772788621944700200,13.2577001953125,-0.11929214985668658,-0.028882103352248667,0.3550990207459777
1772788621964732200,13.277732177734375,-0.02066635593175888,-0.07686550527662038,0.3721575614441186
1772788621984764400,13.297764404296874,0.13011515716612337,-0.1421986859306693,0.2770802537810057
1772788622004795400,13.31779541015625,0.14667816943228243,-0.13843962565809487,0.21721666364446282
1772788622024827100,13.3378271484375,-0.0012017770051956176,-0.07221183425188064,0.17417656334117054
1772788622044858000,13.357858154296874,-0.08228022380173206,-0.016489362508058547,0.07030614676102996
1772788622064890400,13.377890380859375,-0.06734978117346763,-0.03777648068666458,-0.03964643927700817
1772788622084921300,13.39792138671875,-0.13941080877780915,-0.04025339219421148,-0.05351305206604302
1772788622104953300,13.417953369140625,-0.17997370531260967,0.00495265397131443,-0.14914901652522383
1772788622124985300,13.4379853515625,-0.19447510887384414,0.055791153065860265,-0.18764343622289598
1772788622145016300,13.458016357421876,-0.14876140544712543,0.02725947058647871,-0.11857888702079653
1772788622165048300,13.47804833984375,-0.08689327055513858,-0.00734685563147068,-0.11368877689167857
1772788622185079300,13.498079345703125,-0.1296446170449257,0.013800561815500259,-0.09693141109719872
1772788622205111300,13.518111328125,-0.21124036571383475,0.03760609255582094,0.05732347719967365
1772788622225142300,13.538142333984375,-0.1845598640590906,0.006024959377944469,0.31003223692066967
1772788622245174300,13.55817431640625,0.018481413108110425,-0.10073124177157879,0.29333507688082755
1772788622265206300,13.578206298828125,-0.0431260250210762,-0.12007277884036302,0.4114497073907405
1772788622285237200,13.5982373046875,-0.3008113310456276,-0.04857552259862423,0.45604923903048034
1772788622305269200,13.618269287109374,-0.3693734106183052,0.09226181185096502,0.30053156425617633
1772788622325300200,13.63830029296875,-0.36950025186836716,0.16674246781766414,0.31655623186193405
1772788622345332500,13.65833251953125,-0.0567547374010086,0.05754910264909267,0.30277503233402964
1772788622365363500,13.678363525390624,0.1939887866616249,-0.010961831258237362,0.2864342114511877
1772788622385395200,13.698395263671875,0.2086106017321348,0.037330490484833716,0.2534377315826714
1772788622405426200,13.71842626953125,0.008473229312896728,0.16397387988716364,0.15734620537571609
1772788622425458200,13.738458251953125,-0.28690146363675595,0.2939005287438631,0.09691117202676833
1772788622445490400,13.758490478515625,-0.39570787531435486,0.27436785301715133,0.10417480635419488
1772788622465521400,13.778521484375,-0.4529717312812805,0.2732511239469051,0.11199359034635126
1772788622485553200,13.79855322265625,-0.3993541228622198,0.3080465429961681,0.07834588002748787
1772788622505584000,13.818584228515626,-0.25313363406956196,0.2940484127819538,0.0591006429400295
1772788622525616000,13.8386162109375,0.07991875536739826,0.18785802882164715,0.037948914644122124
1772788622545647400,13.8586474609375,0.3857487913578748,0.1037692942932248,0.12181180452741681
1772788622565679400,13.878679443359376,0.5280360323548317,0.0401522699072957,0.25715141834355887
1772788622585711400,13.89871142578125,0.3250345026761293,0.1990788032770157,0.24220190568864344
1772788622605742300,13.918742431640625,0.2774824779063463,0.17041589563339948,0.08850523579642176
1772788622625774300,13.9387744140625,0.2599181796431541,0.11806845328062772,-0.022456308088451622
1772788622645805300,13.958805419921875,0.28784546648859977,0.052175885178148744,0.10700878767110407
1772788622665837300,13.97883740234375,0.4699859944462776,0.002942483192682266,0.14905739271901547
1772788622685868300,13.998868408203125,0.2687725172281265,0.19094167405068874,-0.00019895663820207118
1772788622705900300,14.018900390625,0.04574234499931335,0.27912819928675886,-0.009136369396746159
1772788622725932500,14.0389326171875,0.03006488339602947,0.17248364181816578,-0.07077522557750345
1772788622745963500,14.058963623046875,0.3434481112450361,0.09056874419748782,-0.14667013225629924
1772788622765995500,14.07899560546875,0.1485848798364401,0.24982699373960493,-0.17431297613717614
1772788622786026500,14.099026611328124,-0.23102526263594625,0.34196722503751514,0.3661755644250661
1772788622806058800,14.119058837890625,-0.015385200658440588,0.2612973590418696,0.4013633437927812
1772788622826089700,14.13908984375,0.2792202614843845,0.16175035861879586,0.12848726370334623
1772788622846121500,14.15912158203125,0.5417828181564808,0.04250058659911155,-0.09476013147272169
1772788622866153500,14.179153564453125,0.14287760810554026,0.06044891574382782,0.286865442475304
1772788622886184400,14.199184326171874,-0.22897709793448448,0.20748744292110202,0.632759631698206
1772788622906216700,14.219216796875,-0.003939677536487579,0.12289485052376985,0.2428936873450875
1772788622926247700,14.23924755859375,0.1727303100556135,0.06350479618310928,-0.0277805718511343
1772788622946279400,14.259279541015625,0.25798282766640185,-0.06399959396272897,-0.08023984054792672
1772788622966310400,14.279310302734375,-0.0376841262280941,-0.016463935805857182,0.0842145893977955
1772788622986342700,14.2993427734375,-0.2823626511633396,0.11639672067612408,0.051335269635543225
1772788623006374700,14.319374755859375,0.02776654332578182,-0.023972119478881358,-0.16813074383828788
1772788623026405600,14.339405517578125,0.15332242975234983,-0.1643631714656949,-0.0020282178919762374
1772788623046437400,14.359437255859374,-0.07468903802037238,-0.13913228409737347,-0.019443791866861283
1772788623066468400,14.37946826171875,-0.15393267060518265,-0.07447802561819553,-0.1494375876756385
1772788623086500600,14.39950048828125,-0.1183113221257925,-0.09479103806763887,-0.15871654388085008
1772788623106531600,14.419531494140625,-0.09491583349108695,-0.18467443034946918,-0.07678739853911101
1772788623126563600,14.4395634765625,-0.2378723520517349,-0.1601622126445174,0.09867072904519736
1772788623146595600,14.459595703125,-0.3068395052939653,-0.07729410595223307,0.07089706185888499
1772788623166626600,14.47962646484375,-0.3134223908156156,-0.046989130190014834,0.04243804275691509
1772788623186658600,14.499658447265626,-0.28005495874285696,-0.09512348489239811,0.060995662906393404
1772788623206689500,14.519689453125,-0.16446341696977615,-0.09966244349628686,0.04044336180835962
1772788623226721500,14.539721435546875,-0.024040216279029844,-0.07794774755537509,0.043105859015882014
1772788623246752500,14.55975244140625,-0.0534042579293251,-0.04541983504667878,0.15053864425271749
1772788623266784800,14.57978466796875,-0.08218143960237502,0.02709974998012185,0.1286117303332314
1772788623286815700,14.599815673828125,-0.014993570992350578,0.005295037668198347,-0.015605200084671377
1772788623306847500,14.619847412109374,0.02776654332578182,0.02154708428904414,0.018183197346515953
1772788623326879500,14.63987939453125,0.14231646709144113,0.008649024271219968,-0.018034363460354506
1772788623346910500,14.659910400390626,0.1258569151997566,0.07629734999984503,-0.004281549776718021
1772788623366942700,14.679942626953125,0.13210077802538872,0.07878726711943745,0.07088672312796115
1772788623386973700,14.6999736328125,0.15873334888517857,0.04719283606857061,0.1480923105465248
1772788623407005400,14.72000537109375,0.23491057963669298,0.008277122218906878,0.03401073494497686
1772788623427036400,14.740036376953125,0.21754794142544268,-0.020622224529087543,-0.16015574637111277
1772788623447068400,14.760068359375,0.08832008848786353,-0.03802022631466388,-0.15873722134269774
1772788623467100700,14.7801005859375,0.04247837476730346,-0.05524316379427909,-0.14592841051090508
1772788623487131600,14.800131591796875,-0.027060440883040427,-0.08683847162798046,0.03664849957004189
1772788623507163600,14.82016357421875,-0.08428805649280548,-0.126032417897135,0.13177954671438782
1772788623527194600,14.840194580078125,-0.11975158406198023,-0.135971043587476,0.09767287711426616
1772788623547226600,14.8602265625,-0.152622757050395,-0.17464929541945456,0.007002462640590965
1772788623567258600,14.880258544921874,-0.11759411376714705,-0.2270924532316625,-0.03846311124395579
1772788623587289600,14.90028955078125,-0.23673370341062544,-0.21142098297774792,0.08506605512797832
1772788623607321600,14.920321533203126,-0.23948738603293895,-0.1719824142977595,0.20263550937790423
1772788623627352600,14.9403525390625,-0.14989888504445553,-0.16006182100996375,-0.0005135024800896644
1772788623647384600,14.960384521484375,-0.10874386783540248,-0.166868578415364,-0.12323109674081206
1772788623667415600,14.98041552734375,-0.24468963085114953,-0.12263240019530057,-0.008894925323687493
1772788623687447600,15.000447509765625,-0.17630115427970885,-0.06597820055931806,0.0853312454028055
1772788623707479600,15.0204794921875,-0.0013555062621831893,-0.08882774574905633,0.07646118052573875
1772788623727510500,15.040510498046874,0.017107202145457266,-0.10182195961773395,0.1669353235086426
1772788623747542500,15.06054248046875,0.11197042866647243,-0.13786957068517802,0.12583731545014307
1772788623767573500,15.080573486328126,0.1524403862208128,-0.08982815496325493,0.14081450156327335
1772788623787605500,15.10060546875,0.04943769238591194,-0.005573708479106426,0.14187774688061325
1772788623807636500,15.120636474609375,-0.057954176318645474,0.058918199045211075,0.3333569984067231
1772788623827668500,15.14066845703125,0.1370943485289812,0.010649696569144725,0.08139218892082571
1772788623847700500,15.160700439453125,0.1750350798666477,0.03203165342435241,-0.21331830449905245
1772788623867731500,15.1807314453125,0.06169336284697056,0.02114157222807407,-0.2399407923562452
1772788623887763500,15.200763427734374,-0.09842530291676521,0.019026187509298322,0.15234364784806967
1772788623907794400,15.22079443359375,-0.004018587991595268,0.023448826257139444,0.034578232634626324
1772788623927826400,15.240826416015626,0.04489829539060593,-0.021867986806482075,-0.08572272893842309
1772788623947857700,15.260857666015625,-0.010724223110079764,0.017906681960076092,0.07087391844531521
1772788623967889700,15.2808896484375,-0.13995032248198985,-0.013303718209266662,0.11228347667101769
1772788623987921400,15.30092138671875,-0.2047410668224096,0.03165215258747339,0.00111477457517758
1772788624007952400,15.320952392578125,-0.1974573395550251,0.020994272711873055,-0.02521030123801902
1772788624027984600,15.340984619140626,-0.15346856022477148,-0.033737142167985436,0.09389688397319987
1772788624048015600,15.361015625,-0.12203706465065478,-0.013319354169815778,0.13471127105103806
1772788624068047600,15.381047607421875,-0.14113514835238455,0.06699892190918326,0.057371133999992156
1772788624088078600,15.40107861328125,-0.10091945782005786,0.0715371498607099,0.06170600313283503
1772788624108110300,15.4211103515625,-0.01789572217464447,0.06693959293738007,0.035481921742390836
1772788624128142600,15.441142578125,0.18967618415951729,0.027222937968373297,-0.04458420620644465
1772788624148173600,15.461173583984374,0.15035539664030073,0.04175926671251654,0.06063755191741511
1772788624168205600,15.48120556640625,0.04133797256052494,0.05694616831988096,0.06509549944065511
1772788624188236500,15.501236572265626,-0.020108137527108192,0.13178425942212343,0.10028318747682496
1772788624208268300,15.521268310546875,-0.06342296311855315,0.12982187330797315,0.08864849845832214
1772788624228299500,15.541299560546875,-0.027148119166493415,0.08372735387012362,0.10392227463154122
1772788624248331500,15.56133154296875,-0.019323124629259107,0.06613426790386438,0.10540533452983945
1772788624268363500,15.581363525390625,0.05419628508985042,0.028128362375497817,0.06043994698608294
1772788624288394500,15.60139453125,0.11051438463926315,-0.009308949484676123,0.14089662688877433
1772788624308426500,15.621426513671874,0.025325579914450645,0.013911474844068288,0.16187199397077784
1772788624328457500,15.64145751953125,-0.07689853076338768,0.0668162588186562,0.08637770398212596
1772788624348489500,15.661489501953126,-0.057440966099500654,0.018445611142367122,0.06559473593337461
1772788624368521500,15.681521484375,0.008899345770478248,-0.07601546431854367,0.13558726843427865
1772788624388552400,15.701552490234375,0.03942015624046325,-0.10938859547972679,0.14456846553562208
1772788624408584700,15.721584716796874,-0.02378478021323681,-0.0810809310145676,0.16912092391941697
1772788624428615700,15.74161572265625,-0.060454176440835,-0.03222542243078351,0.07291039270898327
1772788624448647400,15.7616474609375,-0.11326339108645915,0.03162146518826484,0.020615867853537202
1772788624468678400,15.781678466796874,-0.06222820037603378,0.025921207720041275,0.029068876362312583
1772788624488710400,15.80171044921875,0.12525894930660725,-0.06099164431840181,0.059860557929240166
1772788624508742700,15.82174267578125,0.05225567241609096,0.017598492793738842,0.11522974098967388
1772788624528773600,15.841773681640625,-0.003970657196640968,0.06533128095790744,-0.011437303282879292
1772788624548805400,15.861805419921875,0.04427577957808971,0.07693082559779287,-0.0386164386421442
1772788624568836400,15.88183642578125,0.0647059886664152,0.04334244425073266,0.021473397998325525
1772788624588868600,15.90186865234375,0.11149871950149536,0.04596314814314246,0.04075973428115248
1772788624608899600,15.921899658203126,0.07086918747127055,0.06413038073554635,0.06250493495818227
1772788624628928500,15.941928466796876,-0.007854220631718634,0.08264028928577899,0.12621617696620524
1772788624648960500,15.96196044921875,0.009635258829593658,0.05863938210383057,0.07339472389351576
1772788624668991500,15.981991455078125,0.07754384292960166,0.02899520833790302,-0.042528387921489774
1772788624689023500,16.0020234375,0.09057458941638469,-0.010671616140007972,-0.02725753435771912
1772788624709054500,16.022054443359377,0.043400165787339205,-0.04437076438516378,0.04845268167024478
1772788624729086200,16.042086181640624,-0.1062117190092802,0.01717047664001584,0.1111456134811975
1772788624749118200,16.0621181640625,-0.19294658413231372,0.04095817946270108,0.05271106976708397
1772788624769149200,16.082149169921873,-0.20082184755206106,0.039070758280903096,0.05004104684023186
1772788624789181200,16.10218115234375,-0.15475743099153041,0.0037833179309964176,0.08749726433027535
1772788624809212200,16.122212158203126,-0.12758651547133923,-0.023250381075590847,0.20205557233178986
1772788624829244200,16.142244140625,0.009493220010399818,-0.09534209607914089,0.21414112865664064
1772788624849276200,16.162276123046876,0.034255320823192596,-0.10951850546970963,0.17099974166965112
1772788624869307100,16.18230712890625,-0.012346855875849723,-0.06739931940361857,0.1425767254628241
1772788624889339100,16.202339111328126,0.003243511965870857,-0.0754607530452311,0.1603858835988678
1772788624909370000,16.2223701171875,0.059630585098266596,-0.08077537219673395,0.24898029551608486
1772788624929402000,16.242402099609375,0.15863047303259373,-0.08596227331534027,0.10423187030367552
1772788624949433000,16.26243310546875,0.04714227492511272,-0.02502966570779681,0.031005269518680868
1772788624969465300,16.28246533203125,0.01154138471186161,0.03627645138725638,-0.027437037376780063
1772788624989497000,16.3024970703125,0.07748363717496394,0.026006255654990672,-0.01591353538148105
1772788625009529000,16.322529052734374,0.1334744044661522,0.0046349663242697715,0.10298071946511045
1772788625029561000,16.34256103515625,0.2167676047027111,-0.02210194169282913,0.05410878946948796
1772788625049592300,16.36259228515625,0.28194179540276526,-0.037829526048153636,-0.1030401397684589
1772788625069624000,16.3826240234375,0.2857663221269846,-0.05296995816528797,-0.04819607656067237
1772788625089656000,16.402656005859374,0.22279227181971073,-0.03892345876470208,0.05613244078420102
1772788625109687000,16.42268701171875,-0.02081190188229084,0.07265928575843572,0.07477636924395337
1772788625129719300,16.44271923828125,-0.08479542149305343,0.07964373781830072,0.0667308272912167
1772788625149750300,16.462750244140626,-0.21354513552486895,0.0703368341602385,0.12336739993896334
1772788625169782300,16.4827822265625,-0.3139431998193264,0.08444368544593453,0.03653190571935847
1772788625189813200,16.502813232421875,-0.3130103028833866,0.07875263419747353,-0.008113784883357584
1772788625209845000,16.522844970703126,-0.27188158915936944,0.021389701770246027,0.07704824143238365
1772788625229877200,16.542877197265625,-0.1661070925235748,-0.019926351219415665,0.09278515987163409
1772788625249908200,16.562908203125,-0.04633095854222774,-0.06145765439495444,0.07156359947621822
1772788625269940200,16.582940185546875,-0.0578179827183485,-0.024891572411358354,0.09263444455564021
1772788625289971200,16.60297119140625,-0.1542740313887596,0.061901744900643825,0.03402355789393186
1772788625310003000,16.6230029296875,-0.14999299306869507,0.08474354517534374,0.03401818759907037
1772788625330035200,16.64303515625,-0.08676759834885597,0.02185673476010561,0.07123109785253182
1772788625350066200,16.663066162109374,0.00621054507791996,-0.043804654935002324,0.1717419566053897
1772788625370098200,16.68309814453125,0.1088257008999586,-0.06552227348536252,0.09298307533022016
1772788625390129200,16.703129150390627,0.037999183526635165,-0.0023947861820459364,0.10059376952964812
1772788625410161200,16.7231611328125,0.05327040241658687,-0.06385638609975576,0.04239301630510017
1772788625430193200,16.743193115234376,0.17701894716024397,-0.11617372557520866,0.09560951484367251
1772788625450224000,16.76322412109375,0.20644261004328726,-0.14660948811024427,0.14830321335084737
1772788625470256000,16.783256103515626,0.018917466437816617,-0.026346155133843422,0.1278128533068113
1772788625490287000,16.803287109375,-0.016169629034399984,-0.005028641816973686,0.056497474704310297
1772788625510319400,16.8233193359375,0.020906594428420064,-0.03920008374899626,0.061058626873698084
1772788625530350300,16.843350341796874,0.09059212507307529,-0.0663747986614704,0.07429063155362382
1772788625550382000,16.863382080078125,0.08947861087322234,0.000360065484046936,0.0650410841059871
1772788625570414000,16.8834140625,-0.013744447714090346,0.09478606963157653,0.05947776915673166
1772788625590445000,16.903445068359375,-0.1193611234396696,0.11728519394844769,-0.019787947395723312
1772788625610477300,16.923477294921874,-0.07913900316655635,0.0832148743033409,-0.048460755378846074
1772788625630508300,16.94350830078125,-0.020493921974301336,0.05302665678858757,-0.05014733849260956
1772788625650540000,16.9635400390625,0.032605215528607366,0.03242635183036327,0.010213314445875584
1772788625670572000,16.983572021484374,-0.011198270362615585,0.02582856100052595,0.08826826696908101
1772788625690603300,17.003603271484376,-0.05624386526942253,0.02127893487215042,0.11354087458727881
1772788625710635300,17.02363525390625,-0.04434416863918304,0.03310147461295128,0.03688844580575824
1772788625730666200,17.043666259765626,-0.049474517264962194,0.026065876887738704,0.07322572400216013
1772788625750698200,17.0636982421875,-0.12167290751338004,0.016794775195419786,0.22283598309727384
1772788625770729200,17.083729248046875,-0.027234043884277342,-0.02645020003020763,0.21521557122142984
1772788625790761200,17.10376123046875,0.02997778963446617,-0.01835895577222109,0.13970811122395096
1772788625810793200,17.123793212890625,0.015428455278277397,-0.004010989207029343,0.11007226689495146
1772788625830824400,17.143824462890624,-0.09176116885244846,0.03812134860157966,0.10893559101521968
1772788625850856200,17.163856201171875,-0.08366027998328208,0.02109013430178165,0.14225480003207921
1772788625870887200,17.18388720703125,-0.059420741739869117,0.014506664258241653,0.09347093191239983
1772788625890919200,17.203919189453124,-0.022251579296588896,-0.016357552821934223,0.06719298317655921
1772788625910951400,17.223951416015623,-0.004887772041559219,-0.023930033902823923,0.054089244518801566
1772788625930982400,17.243982421875,0.023961890345811844,-0.0016366612911224365,0.04008402697667479
1772788625951014400,17.264014404296876,0.002273205628991127,-0.01123071132749319,0.15479699581693857
1772788625971045400,17.28404541015625,0.0041261400192975995,0.010210136108100414,0.14968736118562517
1772788625991077000,17.3040771484375,0.08725333603918552,-0.006507482197880745,0.02981671732123941
1772788626011109400,17.324109375,0.07660685434043407,0.0008235913425683975,0.003403926691971719
1772788626031140400,17.344140380859375,0.03577215512692928,0.05065349791646003,-0.023988632222265004
1772788626051172400,17.36417236328125,0.005529577076435089,0.04425298322439193,0.03805337966559454
1772788626071203300,17.384203369140625,-0.11486381202042102,0.08663520414084196,0.1139886731537059
1772788626091235000,17.404235107421876,-0.0662011956602335,0.07424684721082449,0.007205017741676419
1772788626111267300,17.424267333984375,0.023047113588452336,0.05148322673887014,-0.02047989344894886
1772788626131298300,17.44429833984375,-0.03909223946034908,0.07826543520241976,-0.046103415130358184
1772788626151330300,17.464330322265624,-0.06899637933671474,0.087062197381258,0.0735519785481505
1772788626171361300,17.484361328125,0.0315361249923706,0.04391162244081497,0.15070125093590467
1772788626191393300,17.504393310546874,0.05026654442548752,0.052801908122003076,0.1365382490161806
1772788626211424300,17.52442431640625,0.025776246291399,0.018056173433363437,0.030511147592496124
1772788626231456300,17.544456298828123,0.02687807005345821,-0.005103752879798412,0.07183582228003069
1772788626251488300,17.56448828125,0.03620528584718704,-0.05998889701664448,0.1865050615764223
1772788626271519200,17.584519287109377,-0.0742395406872034,0.006306991189718246,0.2435961547923274
1772788626291551200,17.60455126953125,-0.08670446998476981,0.002189034476876259,0.17170935124373063
1772788626311582200,17.624582275390626,-0.11143676018118857,-0.015652619422972202,0.12882067864248528
1772788626331614200,17.6446142578125,-0.1725561225324869,0.029629999110102653,0.08718196956971659
1772788626351646200,17.664646240234376,-0.13575579340159893,0.04890782329291105,0.10903337056757882
1772788626371677200,17.68467724609375,-0.05832710128426551,0.007217384032905102,0.20106089873863384
1772788626391709400,17.70470947265625,0.006831891846656799,-0.02954991961121559,0.18683060373635962
1772788626411740400,17.724740478515624,0.06799684690535068,-0.033251696738600726,0.1022265948958695
1772788626431772200,17.744772216796875,0.14422025488615034,-0.04366057028919458,0.06248369124075397
1772788626451804200,17.76480419921875,0.20213702180385587,-0.05610358001589775,0.08062569806035608
1772788626471835400,17.78483544921875,0.14345511573255063,-0.007983984491229057,0.03474365232940763
1772788626491867400,17.804867431640623,-0.07214286066889762,0.08430091597437858,-0.04085599772986025
1772788626511898400,17.8248984375,-0.16098726529181004,0.08404372634291649,-0.0273647210592404
1772788626531930000,17.84493017578125,-0.06646130790114402,0.05188713136464357,-0.09741892061950638
1772788626551961000,17.864961181640624,-0.04755436285734176,0.032494448630511756,-0.03849438316505402
1772788626571993300,17.884993408203126,-0.003249357184767723,0.022824703009426593,-0.024712544316332786
1772788626592025300,17.905025390625,0.03861526959836483,0.004457856191694736,0.04381106640947982
1772788626612056300,17.925056396484376,0.032708091381192204,-0.021783085002005098,0.05233365128943696
1772788626632088000,17.945088134765626,-0.047750762212276456,0.041513036866486074,0.09386205012183636
1772788626652119000,17.965119140625,-0.0012789338946342468,-0.003102057668566704,0.08549991650059818
1772788626672151300,17.9851513671875,-0.014528291568160056,-0.019177286417782307,0.14429722911249845
1772788626692183300,18.005183349609375,-0.08486907125115394,0.03289075447171926,0.12633103551752864
1772788626712214300,18.02521435546875,-0.04090717992782592,0.021636370007693768,0.1413687196462415
1772788626732246000,18.04524609375,0.021757073777914047,-0.0043374446824193,0.1138679328508675
1772788626752277000,18.065277099609375,-0.008994038316607474,0.009439736257493496,0.10852527491496876
1772788626772308700,18.085308837890626,0.009044307199120522,0.0031824294283986088,0.09135532799791544
1772788626792341000,18.105341064453125,0.05715045872032642,0.0025754034459590913,0.12472584707690403
1772788626812372000,18.1253720703125,0.02812777785360813,-0.009516016364097594,0.22755199703481047
1772788626832404000,18.145404052734374,0.025089433071017263,0.011862287229299544,0.1700961256271228
1772788626852435000,18.16543505859375,0.037592356291413304,-0.017976678456366062,0.057763092459645116
1772788626872467000,18.185467041015624,-0.0021679916888475417,-0.05046031343191862,0.11771143827019259
1772788626892499000,18.2054990234375,-0.04148994825184345,-0.0019885434687137602,0.0809843387722969
1772788626912530000,18.225530029296873,-0.06646189242303371,0.03086129447072744,0.06366005981005728
1772788626932562000,18.24556201171875,-0.07358370712697505,0.007333703888952731,0.1257741140208207
1772788626952593000,18.265593017578126,-0.061334466406702995,0.00516746576577425,0.07464234933443367
1772788626972625000,18.285625,-0.04720072711408138,0.007668342670798301,-0.03203433857178315
1772788626992657000,18.305656982421876,-0.05527005180120468,-0.0041077275797724725,-0.011915314324479549
1772788627012688000,18.32568798828125,-0.05154664736390113,0.0021048633247613907,0.10285133919809013
1772788627032720000,18.345719970703126,0.02227671373784542,-0.006752396869659423,0.055207179165445264
1772788627052750800,18.365750732421876,-0.029765023666620254,0.03083177611529827,0.03948717532837763
1772788627072783000,18.385783203125,-0.04080255050957202,0.04116495408117771,-0.016326719292253256
1772788627092814800,18.40581494140625,0.0670160191744566,-0.04835223523676395,-0.004833849897235632
1772788627112845800,18.425845703125,0.048666708013415334,-0.036389994764328,0.030231928792316464
1772788627132877800,18.4458779296875,-0.059091071394085884,-0.0030880291432142256,0.05823847315274178
1772788627152909000,18.465908935546874,-0.05257423684597015,0.01839987230449915,0.0192845827171579
1772788627172941000,18.485941162109373,-0.008021978414058686,-0.017806582586467265,0.06683644309015944
1772788627192972000,18.505971923828124,-0.036620296388864514,0.00888356367945671,0.02033010971471667
1772788627213003800,18.526003662109375,-0.04101064030230045,0.005978782148659229,0.02945906298998743
1772788627233036000,18.5460361328125,0.00402852486371994,-0.011825754611194133,0.13438034032993018
1772788627253067000,18.56606689453125,0.016095979276299476,0.0021548399463295937,0.1571556329733692
1772788627273099000,18.58609912109375,0.020131518402695656,0.025519056659936902,0.11210722505496815
1772788627293130000,18.6061298828125,0.034385084682703015,0.04535071533322334,0.0263828156161122
1772788627313161700,18.62616162109375,0.03633446518480778,0.04360474844872951,-0.003696388566214591
1772788627333194000,18.646194091796875,-0.019679682981967924,0.05486000969558954,-0.002432542642857879
1772788627353225000,18.666224853515626,-0.029913492226600644,0.019755963088572023,0.07633896065186709
1772788627373257000,18.686257080078125,-0.18311258786022663,0.04037117335498333,0.16088143029715865
1772788627393288000,18.706287841796875,-0.0839297445744276,-0.006013268940150737,0.018421262152399868
1772788627413320000,18.72631982421875,-0.05793839422762394,-0.043853754773736,0.07975306167798116
1772788627433352000,18.74635205078125,0.06671966657638549,-0.09771920047402381,0.20383597120884805
1772788627453383000,18.7663828125,0.05878361288011074,-0.06147504392117262,0.22606491854852065
1772788627473415000,18.786414794921875,-0.05534370155930519,0.016657704812288284,0.15102882065614684
1772788627493446000,18.80644580078125,0.017624504017829893,-0.017437164752185343,0.12163516931887715
1772788627513478100,18.82647802734375,0.08751520184576511,-0.05876344687491655,0.10396680789301171
1772788627533510000,18.846510009765623,0.11094576179385185,-0.02234597958177328,0.08392302257269621
1772788627553540900,18.866540771484374,-0.01736030012369156,0.038111996251344676,0.15318397112973034
1772788627573572900,18.88657275390625,-0.08367840016186237,0.07006956152617931,0.04758167098937556
1772788627593603800,18.906603759765623,-0.07242635378539562,0.044297991409897805,-0.03744282828550786
1772788627613636000,18.926635986328126,-0.08517886785268783,0.04478986658006906,-0.052872032482456414
1772788627633667800,18.946667724609377,-0.12309271118342875,0.08907353720366955,0.029016433789022265
1772788627653698800,18.96669873046875,-0.1792915682673454,0.09350830478072165,0.12325736369322984
1772788627673730800,18.986730712890626,-0.025045009407401085,0.049126434479653834,0.0790003253482282
1772788627693761800,19.00676171875,0.014083470410108566,-0.0035217443853616712,-0.0055093014733865854
1772788627713794000,19.0267939453125,0.08980126695632934,-0.011719956149160861,-0.007985774589516222
1772788627733826000,19.046825927734375,0.08189385483264923,-0.01398527073264122,0.07078329928610473
1772788627753857000,19.06685693359375,-0.000872106659412384,0.05626636936217546,0.1602836105344817
1772788627773888800,19.086888671875,0.019321955585479736,0.01190086567401886,0.13723938302285968
1772788627793920000,19.106919921875,0.038220132800936696,-0.010005553446710109,0.12796612590607254
1772788627813952000,19.126951904296874,0.07742869211733341,-0.03626403029710054,0.16178378596436233
1772788627833984000,19.14698388671875,0.022746669337153434,0.016813187634944916,0.19198095397055148
1772788627854015000,19.167014892578123,-0.021646599140763282,0.057600832836329934,0.18109207835067062
1772788627874047000,19.187046875,-0.04285714495182037,0.0530316252246499,0.1464389173163101
1772788627894078000,19.207077880859377,-0.04072247101068496,0.07689911528527736,0.10969528680872172
1772788627914110000,19.22710986328125,-0.00941606312096119,0.09779664962440729,0.07237305269557982
1772788627934142000,19.247141845703126,-0.0484457587391138,0.11323884116709232,0.16325046098344026
1772788627954173000,19.2671728515625,0.0488163456171751,0.046614743919670576,0.0594071516059339
1772788627974205000,19.287204833984376,0.13464812442064283,-0.030572832918167113,0.03175232502631843
1772788627994236000,19.30723583984375,0.04621989938318729,-0.04006137675344944,0.04864066025670617
1772788628014268000,19.327267822265625,-0.14466215343475342,0.01783259381055832,0.11590637987591326
1772788628034300000,19.3472998046875,-0.21724340552091598,0.07682882652804256,0.10242967971991747
1772788628054331000,19.367330810546875,-0.0878472102791071,0.026726240492612123,0.03586399812884629
1772788628074363000,19.38736279296875,0.059949149528145784,-0.06055193772688508,0.011563340815342962
1772788628094393900,19.407393798828124,0.023967735564708707,-0.027594693890213965,-0.033366153431124985
1772788628114425900,19.42742578125,-0.13046587029993534,0.06479118273183702,0.06432433240506798
1772788628134457900,19.447457763671874,-0.1267109016805887,0.07479761296138167,0.11582494867015629
1772788628154489000,19.467489013671877,0.058197337424755094,0.004435644359886646,0.06226918997354805
1772788628174521000,19.48752099609375,0.03247837427854538,0.012740677499026059,0.1001075569152832
1772788628194552000,19.507552001953126,0.07575520594716072,0.011575725372880697,0.06390278252474964
1772788628214583800,19.527583740234373,0.08000351104140281,0.046501492803543806,0.05267868360113352
1772788628234616000,19.547615966796876,0.0688023180693388,0.05774696330875158,0.13220306935608386
1772788628254647000,19.56764697265625,0.0010749357551336288,0.04054667605236172,0.20517967743538318
1772788628274679000,19.587678955078125,-0.009745148944854736,0.06429170877709985,0.12678469756916164
1772788628294710000,19.6077099609375,0.06649521017074585,0.0281660640373826,0.013878558955155312
1772788628314741800,19.62774169921875,0.0195499191224575,0.024702187319099903,0.10838442340586334
1772788628334774000,19.64777392578125,-0.03145546097159385,0.044800972495973104,0.13724771245978773
1772788628354805000,19.667804931640624,-0.071185413813591,0.0528358103916049,0.1757229160003364
1772788628374837000,19.6878369140625,0.022213585373759268,-0.024016104751080274,0.15208251269385217
1772788628394868000,19.707867919921874,0.06043780982792377,-0.07346095753014087,0.1649290617201477
1772788628414899700,19.727899658203125,-0.013017887005209922,-0.0036916941247880455,0.15037150752488523
1772788628434932000,19.747931884765624,-0.0716600455880165,0.05250730908960104,0.13845902447830885
1772788628454963000,19.767962890625,-0.060685062587261196,0.014805062682926654,0.1421082677008584
1772788628474995000,19.787994873046873,0.004029109385609626,-0.027479104686528442,0.0988978523319587
1772788628495026000,19.80802587890625,-0.002957096239924431,-0.009321955096721648,0.09534465336240827
1772788628515058000,19.828057861328126,-0.11768822179138659,0.05775163948386907,0.09264840001575649
1772788628535090000,19.84808984375,-0.07875146515369415,0.05877265309467911,0.054894131160899994
1772788628555121000,19.868120849609376,0.0025496844828128812,0.013006927219778298,0.08824914214350282
1772788628575153000,19.88815283203125,-0.016368366476893423,0.009624152913689612,0.10672182395588606
1772788628595183900,19.908183837890626,-0.018387305083870886,0.013247165716439484,0.1465069775838405
1772788628615216000,19.928216064453125,-0.013416530933976172,0.004427899444848299,0.1476067189866677
1772788628635247000,19.9482470703125,0.020709610551595686,-0.034884412506967784,0.11114175928998737
1772788628655278000,19.968278076171874,-0.029131401938199995,-0.024659224960207938,0.1417613174267113
1772788628675309800,19.988309814453125,-0.025674539482593534,-0.021431348954886197,0.08494516869466752
1772788628695340800,20.0083408203125,-0.013348141872882842,-0.03770896840840578,0.12554653407633304
1772788628715373000,20.028373046875,-0.10726619649827479,0.0004747779048979282,0.1787924231061712
1772788628735404800,20.04840478515625,-0.16423369986712932,0.05684007759690284,0.10243220047056674
1772788628755435800,20.068435791015624,-0.06904197204411029,0.01636471321508288,0.06900058058779686
1772788628775467800,20.0884677734375,0.09341244319081306,-0.041134558942914005,0.082264953167364
1772788628795499800,20.108499755859373,0.13865209936499595,-0.007619681223481893,0.1058836560986936
1772788628815530800,20.12853076171875,0.16231003832817076,0.023732173243165015,0.05478022245764732
1772788628835562800,20.148562744140627,0.030500936725735662,0.09829013222977519,0.06440320632755756
1772788628855594000,20.168593994140625,0.11628303116858005,0.0663194152124226,-0.1392486770186573
1772788628875625700,20.188625732421876,0.20232289976477622,-0.008117255482077599,-0.24137919112890957
1772788628895656700,20.20865673828125,0.04797404957413673,-0.010824030222743749,-0.11278601936567574
1772788628915688700,20.228688720703126,0.12884031492471695,-0.06989011330604553,-0.08074837459195405
1772788628935721000,20.248720947265625,0.14430734864771366,-0.14167714627459643,0.0003768339557573199
1772788628955752000,20.268751953125,0.01810147387981415,-0.08483648415580392,-0.036823563876003024
1772788628975784000,20.288783935546874,-0.02342179211974144,-0.07678542577773333,-0.17799542750958353
1772788628995815700,20.308815673828125,0.06132219144701957,-0.1013638405866921,-0.26148265248090025
1772788629015846700,20.3288466796875,0.11048106689155102,-0.12123261639997363,-0.19424294408578424
1772788629035879000,20.34887890625,0.047158641538023946,-0.160798026330024,-0.23614414001964032
1772788629055910000,20.368909912109373,-0.02502162853181362,-0.15424407464191317,-0.2821587626216933
1772788629075942000,20.38894189453125,-0.12880875074267387,-0.16152940934449433,-0.21865802155919373
1772788629095973600,20.4089736328125,-0.1863946782708168,-0.1719444203749299,-0.10971932527143508
1772788629116004600,20.429004638671874,-0.1524228505641222,-0.17089257323443888,-0.11247209457829593
1772788629136036900,20.449036865234376,-0.3015454905390739,-0.0644203035928309,-0.057500112408213316
1772788629156067800,20.46906787109375,-0.262193723359704,-0.028207418961077927,-0.07394123359406367
1772788629176099800,20.489099853515626,-0.05205518140792846,-0.0807560829743743,-0.10078945649852976
1772788629196131600,20.509131591796876,-0.030869185516238212,-0.09156023945286869,0.015354951650649309
1772788629216162800,20.529162841796875,-0.047508185628056525,-0.01941211808696389,-0.007296605015266687
1772788629236194800,20.54919482421875,0.005499766460061073,-0.0032167700894176958,-0.09104027069937437
1772788629256226800,20.569226806640625,0.09647475337088107,-0.04117722904086113,-0.11228804324828087
1772788629276257800,20.5892578125,0.04042494936883449,-0.01775382948592305,0.045036553083825856
1772788629296290000,20.6092900390625,-0.6162076522827148,0.3370376596808433,0.2880105939224362
1772788629316321000,20.629321044921873,-0.4925421096473932,0.44361602004542944,-0.10229590640556999
1772788629336352800,20.649352783203124,0.046621465921401976,0.5017191033154725,-0.2859154482740909
1772788629356384800,20.669384765625,0.40834114691615103,0.11339081685841083,-0.3008352051115595
1772788629376415700,20.689415771484374,0.3386544472277164,0.061603054215013976,0.035147616320685485
1772788629396448000,20.709447998046876,0.21095219642221927,0.15953209804743526,0.09933630768130533
1772788629416479000,20.72947900390625,0.15215572406053543,0.24795184751749036,0.052313887143041936
1772788629436510700,20.7495107421875,0.40257133134305473,0.14036299493610857,-0.18441404411392284
1772788629456542700,20.769542724609376,0.4242266983121633,0.05653291134387255,-0.2786283965384587
1772788629476573700,20.78957373046875,0.24710136816799638,0.07162380523085594,-0.17574063432011752
1772788629496606000,20.80960595703125,0.355330272218585,0.007551730553805828,-0.015774419171735644
1772788629516637000,20.829636962890625,0.6629840165048837,-0.2093517754882574,0.0017751929789781569
1772788629536668700,20.849668701171876,0.5480933164775371,-0.2137526407957077,0.13147303804848343
1772788629556700700,20.86970068359375,0.10086275919675826,-0.07942629567533731,0.1002406087104231
1772788629576732000,20.88973193359375,-0.16208324383497238,0.0660635407552123,0.02365253213569522
1772788629596764000,20.909763916015624,-0.0009001637101173401,-0.0629547610849142,0.05564703188743442
1772788629616795000,20.929794921875,-0.08055354613959789,-0.1170867487668991,0.32778909861389544
1772788629636827000,20.949826904296874,-0.37705110563933847,0.020310674361884593,0.30336368240956213
1772788629656859000,20.96985888671875,-0.46155777331888675,0.0863350521504879,0.28071192481424656
1772788629676889900,20.989889892578127,-0.5107587343394756,0.1558840969339013,0.2890813284264877
1772788629696921900,21.009921875,-0.43073125790059563,0.0831783416852355,0.3423611197259277
1772788629716953900,21.029953857421877,-0.29338673400282855,0.07765694791525601,0.45300946947578336
1772788629736985300,21.0499853515625,-0.13551497038304805,0.037404140242934224,0.4509785847026854
1772788629757017300,21.070017333984374,-0.14223755663633345,0.09708674778938294,0.3998722284521907
1772788629777048300,21.09004833984375,0.07302782680988311,0.03555529750585556,0.31639022764526303
1772788629797080300,21.110080322265624,0.13506956470310688,0.02369447158128023,0.372023925127089
1772788629817112300,21.1301123046875,0.31069910333156586,0.005543605601787567,0.33868096990846097
1772788629837143300,21.150143310546873,0.3141536276996136,0.03341857773810625,0.36394795150347053
1772788629857175300,21.17017529296875,0.3012280951529741,0.010450666865706443,0.29483072226606305
1772788629877206300,21.190206298828127,0.37376141644418237,-0.03737140701711177,0.21539090952202677
1772788629897238500,21.210238525390626,0.366951151907444,-0.13307137662321328,0.22560148402154445
1772788629917270500,21.2302705078125,0.14813772059082983,-0.024775252555310726,0.22300306502617895
1772788629937301500,21.250301513671875,0.01449322025477886,0.02385404605716467,0.21320969302542506
1772788629957333200,21.270333251953126,0.005684475377202034,0.001403144796192646,0.20968816783577202
1772788629977364200,21.2903642578125,0.04981470900475979,-0.06481237165033817,0.16591679411586374
1772788629997396500,21.310396484375,-0.09482932425141334,0.018213409821689126,0.10983674110602587
1772788630017428500,21.330428466796874,-0.12388590738773345,-0.008713467809557915,0.12267857742458581
1772788630037459500,21.35045947265625,-0.11081599793434142,-0.03525996782109141,0.1398499308474362
1772788630057491200,21.3704912109375,-0.12202420516908168,-0.019891864427924157,0.1256177361490205
1772788630077523500,21.3905234375,-0.024370471146702766,-0.06818871621564031,0.13880937228593976
1772788630097554400,21.410554443359374,-0.020392799687385558,-0.144924019241333,0.20843897149227558
1772788630117586400,21.43058642578125,-0.09959200860857963,-0.1763777266472578,0.14053440598025918
1772788630137617400,21.450617431640627,-0.285181800237298,-0.08994768968969583,0.01380516492538154
1772788630157649200,21.470649169921874,-0.24489538255631924,-0.09883987506702542,-0.04456252409759909
1772788630177681400,21.490681396484376,-0.11296411587893962,-0.19289821494594214,0.07935045396015047
1772788630197712400,21.51071240234375,-0.1659942797988653,-0.14925108866021036,0.18671788234319536
1772788630217744400,21.530744384765626,-0.33325463401079175,-0.012182751355320215,0.16572481520771978
1772788630237775400,21.550775390625,-0.45579672557413575,0.09763692901805042,0.06016158670242876
1772788630257807600,21.5708076171875,-0.36142332839667796,0.06922887291833758,0.02236494001056999
1772788630277839400,21.59083935546875,-0.2022410667002201,0.012403992890566587,0.0007633855879306793
1772788630297870300,21.610870361328125,-0.13808394408822058,0.03212327723056078,0.06267145063150674
1772788630317902300,21.63090234375,-0.13322013744413852,0.04772928103283047,0.13416487094834445
1772788630337933300,21.650933349609375,-0.05659457840323448,0.028640841942280528,0.15999032667633145
1772788630357965600,21.670965576171874,0.09185235426723956,-0.014926497105509041,0.15207334300670772
1772788630377997300,21.690997314453124,0.09386837026476859,0.01472659061923623,0.17811448731198906
1772788630398028300,21.7110283203125,-0.0027080899149179456,0.10458777106925844,0.12039543492347002
1772788630418060300,21.731060302734374,-0.07568564784228801,0.15793547650575637,0.14346234919093548
1772788630438092500,21.751092529296876,-0.13400339677631853,0.12645239687487483,0.22691870409995316
1772788630458123500,21.77112353515625,-0.12689970225095748,0.1373582601621747,0.15768215933181345
1772788630478155300,21.7911552734375,-0.11589432411193847,0.13337109022215007,0.12086389268543571
1772788630498186200,21.811186279296876,-0.12080898416042327,0.11490911246687173,0.16214202481750398
1772788630518218200,21.83121826171875,-0.07193301731050014,0.11935820083022117,0.20539686385001987
1772788630538250500,21.85125048828125,-0.012110709032416343,0.04888824180960655,0.17322072392106055
1772788630558281500,21.871281494140625,0.03059387570619583,-0.012022884618490933,0.1273784256786108
1772788630578313500,21.8913134765625,0.057468438628315924,-0.05744286579564213,0.11124441594686359
1772788630598344400,21.911344482421875,0.029044892698526382,-0.031780016750842334,0.1443778931332752
1772788630618376400,21.93137646484375,0.049472179177403444,-0.00004398527219891548,0.1428123973822221
1772788630638408400,21.951408447265624,0.08541150756478309,0.004805062194168567,0.09000880875978619
1772788630658439400,21.971439453125,0.03844868085980415,0.027763620716333388,0.06178440213128924
1772788630678471400,21.991471435546874,0.013313655081391334,0.07181684358492493,0.0199731860358268
1772788630698502400,22.01150244140625,0.0029179332733154295,0.08199863038137555,-0.0334482604903169
1772788630718534400,22.031534423828123,-0.17625322348475456,0.04255319356918335,0.04151645266627892
1772788630738566700,22.051566650390626,-0.3322469182729721,0.0334425431355834,0.012438717144075781
1772788630758597600,22.07159765625,-0.38337095631062984,0.058494859066605565,-0.017568353383801878
1772788630778629600,22.091629638671876,-0.3724930039435625,0.003574205224961042,0.06644563540797681
1772788630798661400,22.111661376953126,-0.3629495150506496,-0.05133563496172428,0.10239771367907524
1772788630818692400,22.1316923828125,-0.3066062810599804,-0.03532952592596412,0.1290851199986413
1772788630838724600,22.151724609375,-0.2751549117416143,-0.03419175406768918,0.22530030911788343
1772788630858755600,22.171755615234375,-0.3504232109546661,0.0472555260412395,0.253198114140518
1772788630878787600,22.19178759765625,-0.35451135705113407,0.06304594649970531,0.27268965413924307
1772788630898819300,22.2118193359375,-0.3662982409566641,0.05541778970882296,0.2657209476377815
1772788630918850600,22.2318505859375,-0.380675725877285,0.05091346402689814,0.22994586990140378
1772788630938882600,22.251882568359374,-0.3351823872029781,0.04629764079451561,0.26707689229138193
1772788630958914600,22.27191455078125,-0.2604576933473349,0.06115501818656921,0.3461868520265445
1772788630978945500,22.291945556640623,-0.17198679821193216,0.10128186139166355,0.2834150828257203
1772788630998977500,22.3119775390625,-0.12357085008919239,0.14777794736772776,0.28541962758116424
1772788631019008500,22.332008544921877,0.05818915411829948,0.08367226268202066,0.34237010674998164
1772788631039040500,22.35204052734375,0.12789981920421123,0.09673048169761896,0.4162712457956746
1772788631059072500,22.372072509765626,0.14057634542584418,0.11827537402957677,0.4014344728002324
1772788631079103500,22.392103515625,0.08054185570180415,0.1054556399449706,0.40924595026876776
1772788631099135700,22.4121357421875,0.05921732812225818,0.0958835094794631,0.3799364518173039
1772788631119166700,22.432166748046875,0.05067570974826813,0.1062313004925847,0.3639198213875294
1772788631139198500,22.452198486328125,0.04415186093747615,0.16688626020252703,0.1942318381698802
1772788631159230500,22.47223046875,0.09286825331151485,0.14244330834150312,0.11239581447169184
1772788631179261400,22.492261474609375,0.15745850664377212,0.12874912950992584,0.11628807266987859
1772788631199293700,22.512293701171874,0.20062544819712638,0.12225918296873568,0.12534472789391873
1772788631219325400,22.532325439453125,0.20586393337249756,0.12557312982231378,0.149914301809296
1772788631239356400,22.5523564453125,0.2577174547284841,0.18250936127007006,0.027013167675212023
1772788631259388400,22.572388427734374,0.4491033654153347,0.12575228578150272,0.01878879855684936
1772788631279419600,22.592419677734377,0.39548634151816364,0.1331423960328102,0.15382139225043356
1772788631299451600,22.61245166015625,0.20823767676651478,0.1973763832733035,0.09518975506164133
1772788631319483400,22.6324833984375,-0.00713467418551445,0.3459367131903767,-0.0838710731897503
1772788631339514400,22.652514404296873,-0.013643909949064253,0.23437808019518852,-0.056683937187120316
1772788631359546600,22.672546630859376,0.15651041213870048,0.11734043126702308,-0.14274017239622772
1772788631379578600,22.69257861328125,0.2407353402674198,0.0035026012934744354,-0.10141747047007084
1772788631399609600,22.712609619140625,-0.06704933692216873,0.03483706623390317,0.22896423845291136
1772788631419641600,22.7326416015625,0.028258710756897926,0.11210472257062792,0.08668287920746952
1772788631439672600,22.752672607421875,-0.0652905105561018,0.18655045335441828,-0.17834471587128936
1772788631459704600,22.77270458984375,0.1138280392318964,-0.07943389445990323,-0.19173994828891008
1772788631479736600,22.792736572265625,-0.2525917822778225,-0.07495864874199032,0.008633132582344114
1772788631499767600,22.812767578125,-0.46718613459467884,0.01675064379274845,0.2089110459834337
1772788631519799600,22.832799560546874,-0.13302841426432133,-0.054522448304295534,-0.07398790401369333
1772788631539830500,22.85283056640625,0.20130992332994938,-0.16650953584462402,-0.2655732462627813
1772788631559862500,22.872862548828124,0.46596448384523387,-0.351468774484843,-0.093982534696348
1772788631579894500,22.89289453125,-0.5538847593605518,-0.007448854701220989,0.4204773191833868
1772788631599925500,22.912925537109373,-0.4907213239610195,0.08157412135899067,0.022088607287220657
1772788631619957500,22.93295751953125,0.05774608652591705,-0.19047829432263969,-0.10912767952121794
1772788631639989500,22.952989501953127,0.35609541137218476,-0.4102006571777165,0.20896924244407564
1772788631660020500,22.9730205078125,-0.14725216992795467,-0.1643266388475895,0.3293886427650228
1772788631680052500,22.993052490234376,-0.7348457221448421,0.24509835778251288,0.1562951984854415
1772788631700083500,23.01308349609375,-0.3885936593949795,0.174627960370481,-0.07118329492174089
1772788631720115700,23.03311572265625,0.03917465704679489,-0.022051088288426397,-0.10960746239479631
1772788631740148200,23.053148193359377,0.3758849844694137,-0.15503522501960396,-0.2329467687504366
1772788631760179200,23.07317919921875,0.14533260004222393,-0.05512888976484537,0.2100255830965936
1772788631780211200,23.093211181640626,0.020463526836037634,0.10960720666646957,0.09859218391627073
1772788631800242400,23.113242431640625,0.13486030586659908,0.09412234502583741,-0.1141682675043121
1772788631820274400,23.1332744140625,0.23075930517613885,0.008170739234983921,-0.060960226266831154
1772788631840306200,23.15330615234375,0.30461423045992847,-0.053959553724527355,-0.17481646867990494
1772788631860337200,23.173337158203125,0.17886720537543296,0.0071444649271667,-0.1801143924249336
1772788631880369400,23.193369384765624,0.016978022807836533,0.06237053145617246,-0.20210848982911556
1772788631900401400,23.2134013671875,0.0014566285490989685,0.03134294050782919,-0.18630188542082904
1772788631920432400,23.233432373046874,0.08497019353806971,-0.08073518631681799,-0.18119572138823567
1772788631940464400,23.25346435546875,0.038380876320600506,-0.10234028440341353,-0.17847290882822126
1772788631960495400,23.273495361328123,0.02715045725405216,-0.1309320265069604,-0.2494837332598865
1772788631980527400,23.29352734375,-0.06881751563847065,-0.13739362373650074,-0.19576109356377272
1772788632000559400,23.313559326171877,-0.269226690736413,-0.09443082645311951,0.01880154844056815
1772788632020590300,23.33359033203125,-0.22972236334383486,-0.11378624591678381,-0.10941131876818835
1772788632040622300,23.353622314453126,-0.17676292657256126,-0.11838950192853807,-0.12878094942029564
1772788632060654300,23.373654296875,-0.0606412234455347,-0.15715660108774898,0.005055274095572531
1772788632080685300,23.393685302734376,-0.09524433479309082,-0.1087574579693377,0.18934176457338034
1772788632100717300,23.41371728515625,-0.008307809618115424,-0.09111527216434478,0.06866491889264434
1772788632120748300,23.433748291015625,0.08492576987445354,-0.09877674670293926,0.03033756285756826
1772788632140780300,23.4537802734375,-0.04052431809008121,-0.015428893669694662,0.14259499177187682
1772788632160812300,23.473812255859375,-0.2845405797243118,0.1385746502146125,0.34468780910782515
1772788632180843300,23.49384326171875,-0.00032382512688636776,0.06953676982372999,0.3139682611953467
1772788632200875300,23.513875244140625,0.25109715980589387,-0.02781622768640518,0.2930764990098774
1772788632220907300,23.5339072265625,0.2964928833246231,-0.0771491445235908,0.39577100367844104
1772788632240938500,23.5539384765625,0.3943213893920183,-0.04023366458043456,0.2151609001584351
1772788632260970200,23.57397021484375,0.39059856947660443,-0.029424247404932973,0.1230889117911458
1772788632281001200,23.594001220703124,0.3545627949774265,-0.03803177062198519,0.16991934428811073
1772788632301033200,23.614033203125,0.2870154454052448,-0.03139540134742856,0.3992074809331447
1772788632321065500,23.6340654296875,0.20553250946104526,0.033752193606644866,0.2574514972686767
1772788632341096400,23.654096435546876,0.15320435633063315,0.02361366143003106,0.11611103560253977
1772788632361128400,23.67412841796875,0.10769348199963569,-0.0037090836510062218,0.08354585982337594
1772788632381160200,23.69416015625,0.017083236747980117,0.02750891530290246,0.11459310532025992
1772788632401191200,23.714191162109376,-0.0657388388454914,0.08312266597524284,0.13790391134619712
1772788632421223400,23.734223388671875,-0.1039589716464281,0.08147767524719238,0.10176248451545834
1772788632441254400,23.75425439453125,-0.1257879416167736,0.044431262400746345,0.16635953291468322
1772788632461286400,23.774286376953125,-0.1625754112660885,0.022038521067798137,0.13571575365215538
1772788632481318100,23.794318115234375,-0.0980593922138214,0.0004417524181306362,0.02846351261399686
1772788632501349000,23.81434912109375,-0.0192886378377676,-0.04907105103060603,0.0035625878524035213
1772788632521381400,23.83438134765625,-0.07608078463971614,-0.03528071834817528,0.27106851921081543
1772788632541413400,23.854413330078124,-0.07755904049873352,-0.06526800646334886,0.1334266198016703
1772788632561444400,23.8744443359375,0.056605099797248835,-0.09523512857332825,0.06575710515454411
1772788632581476000,23.89447607421875,0.019784312400221823,-0.09527955223694443,0.08323423659093677
1772788632601507300,23.91450732421875,0.006610358050465583,-0.04506780673861503,0.18963081064783036
1772788632621539300,23.934539306640627,0.003163432466983795,-0.008215747420489788,0.1680113917749375
1772788632641571300,23.9545712890625,-0.06499123534858227,0.0653343496978283,0.12685695908777414
1772788632661602300,23.974602294921876,-0.07319207746088505,0.05936345859467983,0.06492080046087503
1772788632681634300,23.99463427734375,0.0007505261063575744,0.03128857997208834,0.029802506132796405
1772788632701666300,24.014666259765626,0.05947977845072746,0.014570523274689912,-0.04383724203035235
1772788632721697300,24.034697265625,0.09440963753461837,-0.008135083399713038,-0.03835417097676545
1772788632741727200,24.054727294921875,-0.026660043388605115,-0.03879647138416767,0.2116281959876418
1772788632761758200,24.07475830078125,-0.03619125732183456,-0.039110651899874206,0.17138645769860594
1772788632781790200,24.094790283203125,-0.03413140218257904,-0.03240311708524823,0.019583273402787742
1772788632801822500,24.114822509765624,-0.09298866482079028,-0.08030717016309499,0.04706307220906019
1772788632821853400,24.134853515625,-0.030348376512527465,-0.1070481698334217,0.11716262701470403
1772788632841885400,24.154885498046873,0.006390577819943428,-0.10196823622062802,0.13930376820676027
1772788632861917200,24.174917236328124,0.008740355816483497,-0.05782163598015904,0.1359284465547651
1772788632881948200,24.1949482421875,-0.03030804450213909,-0.07122472291067242,0.06548939412906765
1772788632901980400,24.21498046875,-0.06094049865305423,-0.08873129963725805,0.1254881549526006
1772788632922011400,24.235011474609376,-0.015146131205558777,-0.09668781159967184,0.054120881766080854
1772788632942043400,24.25504345703125,-0.03405541433691978,-0.1275162267141044,0.09062705025598407
1772788632962075100,24.2750751953125,-0.1186947684854269,-0.09010200346857308,0.11597184632755815
1772788632982106000,24.295106201171876,-0.10829846215546131,-0.06678951694220304,0.02577529644332826
1772788633002138400,24.315138427734375,-0.0707365010023117,-0.055612289367616176,0.022074030772596596
1772788633022170400,24.33517041015625,-0.011791560080647467,-0.046950990136712785,0.001958878982812166
1772788633042201300,24.355201416015625,-0.006823708540201187,0.00008709376156330108,-0.09087276864536106
