time,seconds_elapsed,z,y,x
1772789867049687000,0.05668701171875,-0.18997370580136774,0.24329101609960196,-0.12631295187156646
1772789867069722000,0.07672216796875,-0.4438263017952442,0.0036864334277808665,-0.09625459868102335
1772789867089757200,0.096757080078125,-0.49670565906763076,-0.12123363931328057,-0.1775368700871244
1772789867109792300,0.116792236328125,-0.9876385799527168,0.29122955596894023,-0.4574043799664825
1772789867129827300,0.136827392578125,-0.3647252925515175,0.9692993517942726,-0.7363374220073222
1772789867149862400,0.1568623046875,0.006854688200354576,0.5105393925003707,-0.9138711868219077
1772789867169897200,0.176897216796875,-0.24345804322957992,0.6932320013828576,-0.9448840916577727
1772789867189932000,0.19693212890625,-0.29111528193950653,1.3485188875138758,-1.169490865553543
1772789867209967000,0.216967041015625,-0.16719897941350936,0.5990946049183606,-1.010023284109682
1772789867230002200,0.237002197265625,0.24806758285164832,0.2689776844114065,-0.4239160249277949
1772789867250037200,0.257037353515625,0.7877864542156457,-1.417956580877304,-0.41481954915001984
1772789867270072300,0.277072265625,1.6184610330432652,-0.5730205447241664,1.0114585776098073
1772789867290107100,0.297107177734375,1.7484797440975903,0.6232007260404527,1.4716563146218657
1772789867310142200,0.31714208984375,0.7148141569852828,0.6905790026560426,0.5251244557570666
1772789867330177300,0.33717724609375,-0.8319868304699659,-0.011186726055294275,-0.44771907145008444
1772789867350211000,0.357211181640625,-0.3043348289966583,1.3818722910612822,1.208450053218752
1772789867370246100,0.37724609375,-0.3634907823204994,0.2393494388669729,0.15043591453060506
1772789867390281200,0.39728125,1.3351952955603599,-0.19209084408581256,0.3336225905403495
1772789867410316300,0.41731640625,1.2663345253020524,-0.7690490205198526,0.5197296840414405
1772789867430351400,0.437351318359375,0.06254325767457485,-0.6687668376900255,-0.835757581180334
1772789867450386200,0.45738623046875,0.00879471635222435,-0.13674158956855534,-1.7478019909664988
1772789867470421200,0.477421142578125,1.1694459304332732,0.6584098404571413,-2.9104303503394124
1772789867490456000,0.4974560546875,1.4440209964603186,1.2780702635422347,-2.178300609154999
1772789867510491100,0.5174912109375,0.5449316375762224,-0.10233020140081643,2.34183200597167
1772789867530526200,0.537526123046875,0.6567629500329494,1.766767534329742,0.5784089597642421
1772789867550561300,0.557561279296875,-0.16676000347435474,1.9691355884104966,0.13232728025764226
1772789867570596000,0.57759619140625,0.825455382874608,1.2398647437885404,-0.85189739959836
1772789867590631200,0.597631103515625,0.41432548202276226,0.9722679923415184,-0.54402212151587
1772789867610666200,0.617666259765625,0.49947103212773797,1.5920762994647024,0.6783651255100965
1772789867630701300,0.637701416015625,-1.0888719260275364,1.865317486539483,2.030691588613391
1772789867650736000,0.657736083984375,-2.4314094010442493,2.5696511660426853,1.3017279102444648
1772789867670771200,0.677771240234375,-1.61446114975214,1.8325290233984588,1.6382780786693094
1772789867690806300,0.69780615234375,-0.3501408868819475,0.7142756661944091,1.4511393040329217
1772789867710841000,0.717841064453125,0.8812059116691351,0.4809993732286617,0.9701584528416395
1772789867730876200,0.737876220703125,0.8258850064635276,0.3519054854016751,1.1730337257921695
1772789867750911200,0.7579111328125,-0.3980141064301133,0.1425491068035364,2.7135470112800597
1772789867770946300,0.7779462890625,-3.331189664801955,0.5614956727556883,2.702205533054471
1772789867790981400,0.7979814453125,-2.072148511378467,0.6041653323113918,1.217949556839466
1772789867811016400,0.818016357421875,0.6674474256545305,-0.5689247998431325,1.2940449545264243
1772789867831051000,0.838051025390625,1.4935048660755157,0.1008218426644802,0.77407064807415
1772789867851086000,0.858086181640625,-0.2699618731431663,0.6704463152095675,1.2324480377912521
1772789867871121200,0.87812109375,-1.0901409230500458,0.6102627724036574,-0.6255798762619496
1772789867891156200,0.89815625,0.7742479043371975,-0.2954027500003576,-1.8158429692745208
1772789867911191300,0.91819140625,1.794556289487332,-0.07005728656649589,-1.922201987800002
1772789867931225300,0.938225341796875,1.6987382464595138,0.4958674546778202,-2.8297113845050332
1772789867951261200,0.95826123046875,1.0152942102499305,-0.9304951354950666,-4.3467607922971245
1772789867971295200,0.978295166015625,3.0786803001105785,-2.2691128067195416,-5.231138904261589
1772789867991330800,0.998330810546875,3.795518364138901,-2.5788749214619395,-5.989998539200425
1772789868011366000,1.018365966796875,1.8094833711147307,-1.7112924614757299,-5.263044447088241
1772789868031401000,1.03840087890625,-0.5306181578025222,-0.40057460456788535,-3.080030545675754
1772789868051436000,1.05843603515625,-0.868404590024054,0.10878127723634243,-1.6832634678214788
1772789868071470800,1.078470947265625,1.1699933351829648,0.33335400273203847,-0.33167876299619675
1772789868091506000,1.098505859375,2.8628631280004977,-0.3928764512807131,0.25518998207747934
1772789868111541000,1.118541015625,1.9589017791658638,0.5290688825339078,0.6742132665276527
1772789868131576000,1.138576171875,2.057787393070757,1.6282628806114197,1.5931103186875581
1772789868151611000,1.15861083984375,1.124527761298418,-0.05111293212175369,0.07115092702209949
1772789868171646000,1.17864599609375,0.8220946742698549,0.6115583651721477,0.23361878626048563
1772789868191681000,1.198680908203125,0.6906412542372942,-0.07896656920909881,0.1076192477196455
1772789868211715800,1.2187158203125,0.2811621893323958,-0.2233686104029417,-0.0369388608187437
1772789868231751000,1.2387509765625,-1.0995829973950981,-0.33281858068108555,-1.3594880252957344
1772789868251786000,1.258785888671875,-2.6437755559176206,1.2160352476507426,-0.41022038479149336
1772789868271821000,1.278821044921875,-2.607877436323464,2.3402643182635305,0.39748131472766396
1772789868291856100,1.298856201171875,0.03925444428473711,1.071653080201149,0.7785656214058398
1772789868311891000,1.318890869140625,1.7937001110494135,-0.5212286904275417,0.737408266109228
1772789868331925800,1.33892578125,2.2013567828327414,-1.423371007141471,-0.6785591867774724
1772789868351960800,1.3589609375,0.2349989885725081,-0.24959844568073747,-0.4588403310537338
1772789868371996000,1.378995849609375,-0.5789323991164564,0.9496084167659282,-1.6848960374593733
1772789868392031000,1.399031005859375,1.0678116023421287,0.5883528461515903,-1.6783932314366101
1772789868412065000,1.41906494140625,0.4800517536476254,-0.9624117842376232,-2.0548796889305114
1772789868432100000,1.43910009765625,-0.25040946980267764,0.16167992373108864,-2.2235089934080836
1772789868452135000,1.459135009765625,-2.8773505030363795,0.9101070119827985,-0.9695207394599914
1772789868472170000,1.479169921875,-2.8760563715726137,1.501749547329545,-0.6726730513483286
1772789868492204800,1.499204833984375,-0.6088578740417957,0.4777481528803706,-0.3732645728379488
1772789868512239900,1.519239990234375,1.1165934611678123,-0.3719683955475688,1.681215303120017
1772789868532275000,1.53927490234375,1.9028011217594145,-0.8269961825758219,3.2866444206327197
1772789868552310000,1.55931005859375,1.2374451154261827,-1.352780052089691,5.078886734089255
1772789868572345000,1.579344970703125,1.7881307864844798,-1.3195002983003854,4.322125532734394
1772789868592380200,1.599380126953125,3.0655472622931,-1.5638517832383512,0.6529045210391282
1772789868612414700,1.619414794921875,1.5496639756709336,-1.1772528047919273,0.6349538538068532
1772789868632449800,1.63944970703125,-2.6174913601040837,2.5554876161336897,1.0534423007279634
1772789868652484900,1.65948486328125,-2.7788872061967846,2.6046014833927154,-0.9788198982030153
1772789868672520000,1.67952001953125,-0.41182606642246244,0.7879565500855445,-2.6997446958988904
1772789868692555000,1.699554931640625,0.6354606342852115,1.090800848263502,-1.5862369257867335
1772789868712590000,1.719590087890625,0.7219634442180395,-0.043078678748011585,1.1569131965965032
1772789868732625000,1.739625,-0.44407355455458164,-1.9034727374106644,1.1464537619024515
1772789868752660000,1.759659912109375,-0.9394693000674247,1.137854860383272,0.07498012992143631
1772789868772695000,1.779695068359375,0.5269318705052137,0.6402654042184353,-0.33875381594896314
1772789868792729900,1.799729736328125,1.8928344390183687,-1.066977489605546,-1.2056494627147911
1772789868812765000,1.819764892578125,-0.3323118002027273,-0.6621037265390157,-0.49276072083413597
1772789868832799000,1.839799072265625,-0.07411971369981765,-0.10092997921407222,0.7311562199771404
1772789868852834000,1.859833984375,0.6687935795664787,-0.6394692854046822,0.7138841826587915
1772789868872869000,1.879869140625,1.5891104353964327,-0.671286565425992,0.43720425330698487
1772789868892904000,1.899904052734375,1.4261410563766956,-0.8061129690229892,-1.1051403392612933
1772789868912939000,1.91993896484375,-0.31099487140774723,-0.08776654625833034,-0.3115197720646858
1772789868932973800,1.939973876953125,1.3672282641589641,-1.1882272032707928,1.018002154034376
1772789868953009000,1.9600087890625,2.1388696392595765,-1.7879349716514348,1.2596481794059275
1772789868973044000,1.9800439453125,1.607241719892621,-1.0184621727615595,2.859015220400691
1772789868993078500,2.00007861328125,1.5935755981117485,0.24327450335621834,2.51831786916852
1772789869013113600,2.020113525390625,1.0917775843411683,0.9012509208321571,2.3469781366884708
1772789869033148400,2.0401484375,0.35043285556584597,1.7903449554026125,1.5595266135156154
1772789869053183500,2.06018359375,-0.30182649943754075,1.984082982173562,1.0447773482352494
1772789869073218600,2.080218505859375,0.10469064692184328,1.4476526309609412,1.623942679324746
1772789869093253600,2.100253662109375,-0.15947861429452895,2.0515321320682762,2.605885677984357
1772789869113288700,2.120288818359375,0.17707272317409514,1.502182093527913,2.8604075515419245
1772789869133323800,2.14032373046875,0.11200725354552268,2.805856461665034,2.9812767414569854
1772789869153358600,2.160358642578125,-2.015079593461752,1.931260323524475,1.8179992705255745
1772789869173393400,2.180393310546875,-2.396107201516628,2.7448084109842776,-1.5787541688159108
1772789869193428500,2.200428466796875,-3.004147913956642,0.48331017092168327,-3.7589205718427894
1772789869213462500,2.220462646484375,-1.9545782168783246,1.0183259791612624,-6.069331603634357
1772789869233497600,2.24049755859375,-2.6200316922366618,1.7012158886194229,-7.1353288500308985
1772789869253532700,2.26053271484375,-2.730374227440357,1.2900988472491501,-7.568086060801148
1772789869273567700,2.280567626953125,-1.3240005323290824,2.03914202157259,-7.316710668575763
1772789869293602600,2.3006025390625,0.31800095077753066,1.7810931429326533,-6.742070705956221
1772789869313637400,2.320637451171875,1.606961733907461,0.4713964457660913,-5.746739817935228
1772789869333672400,2.34067236328125,2.212658513569832,-1.6995114227890968,-5.270853659534454
1772789869353707500,2.36070751953125,4.131891714692116,-2.3187632650732994,-2.6933938655674456
1772789869373742600,2.38074267578125,2.444694706813991,-2.7019781540393826,-1.033254375962913
1772789869393777700,2.400777587890625,6.013695056608319,-1.5172119048774242,1.6145207709848879
1772789869413812700,2.420812744140625,5.994548457589745,-1.976335729047656,3.348867944833636
1772789869433847600,2.44084765625,4.947697225689888,-3.609898469632864,3.1742467064648863
1772789869453882600,2.460882568359375,4.53679470385313,-4.379588710665702,1.7482719465658068
1772789869473917400,2.48091748046875,4.1087575073421,-2.3538620509833095,1.54885938128978
1772789869493952500,2.500952392578125,3.1338655962377784,1.8897353039592504,2.3472169138804078
1772789869513987600,2.520987548828125,1.682338169670105,4.169868686386943,5.539063866704702
1772789869534022700,2.541022705078125,-0.06741758571267127,1.4660235694319008,5.1480444414675235
1772789869554056700,2.561056640625,-0.7889373778164386,-0.5951356381595134,3.8796459693729877
1772789869574091800,2.581091796875,0.11101707346439361,-1.684954489648342,2.538021517547965
1772789869594126300,2.601126220703125,1.3135853751681745,0.3200193048626184,1.774278786742687
1772789869614161400,2.621161376953125,0.3913698461100459,2.4335060810625553,0.338183322584629
1772789869634196500,2.641196533203125,1.4131667162522672,4.675415823557973,-0.5001861946597695
1772789869654231600,2.6612314453125,-0.350145563057065,0.4126420589804649,0.5607613671317696
1772789869674266600,2.6812666015625,-0.10412789847254753,1.0500397988080978,-0.2872320107653737
1772789869694301700,2.7013017578125,-1.4011688199445604,1.026264370945096,-1.7083669294178485
1772789869714336500,2.72133642578125,-1.0249778382658958,0.09998831444978713,-3.095445849211514
1772789869734371600,2.74137158203125,-0.45910950338393447,-0.9301777401089668,-4.492150383223593
1772789869754406700,2.76140673828125,-0.7511679113924503,-0.4317658616453409,-2.770169646733999
1772789869774441500,2.78144140625,-0.8301338960796594,0.07920914579331874,-1.9855106768891213
1772789869794476500,2.8014765625,-2.0678601665347816,-0.7003729591786861,-0.589834316881001
1772789869814511600,2.82151171875,-2.3615678030550478,-0.11284604245722293,-0.5194112657420337
1772789869834546700,2.841546630859375,-1.1706783948376773,0.4983563488841056,-0.16866320674717425
1772789869854581500,2.86158154296875,0.30832477541565895,1.2955705566585063,-0.653090545130521
1772789869874616600,2.881616455078125,1.1707228185012937,1.1775474038243292,-0.04382774354964494
1772789869894650600,2.901650634765625,0.9713438632339239,0.4276408906698227,-0.20919702331796286
1772789869914685400,2.921685546875,1.4297884729683399,1.3744786736786365,-0.1760226295992732
1772789869934720500,2.941720458984375,0.6439499379500746,2.813691977596283,-0.4211861615724861
1772789869954755600,2.961755615234375,-1.1413774815514683,0.3083066552370787,-0.034706279461085794
1772789869974790700,2.981790771484375,-0.9819958978906274,-0.10167349105775356,-0.5317423395268619
1772789869994825700,3.00182568359375,0.33774113177508114,0.08172843513786793,-0.22966683376431463
1772789870014860500,3.021860595703125,1.08963911100775,-0.0836333919763565,0.4594141854189336
1772789870034895600,3.0418955078125,1.2428092728078364,0.13777648557424543,0.5622327548585832
1772789870054930700,3.0619306640625,0.42916181662678715,-0.2565326288580894,-0.1111621810235083
1772789870074965800,3.0819658203125,-0.25565380019694567,0.48995560028553004,-0.33950448818579315
1772789870095000800,3.102000732421875,-0.2917971267238259,0.8076362330675124,0.20574585995078085
1772789870115035600,3.12203564453125,-0.7457128608569502,-0.3796154031693935,0.891291836875677
1772789870135070700,3.14207080078125,-0.587868569765985,-0.675725424656272,0.368236953934282
1772789870155105500,3.16210546875,-0.731224024516344,-1.0936351949065923,0.14546893977299333
1772789870175140600,3.182140625,0.011873685406148433,-0.6453828933626413,0.21736118668168783
1772789870195175700,3.20217578125,1.011388873374462,0.3990788130521774,0.5057298002615571
1772789870215209700,3.222209716796875,1.1190516679748892,1.3536936598032712,0.2115351108767092
1772789870235244800,3.242244873046875,-0.008004442757368087,0.9281494491517543,-0.4129484945811331
1772789870255279900,3.26227978515625,-0.5362587940379977,0.5610451525092125,-0.8348319907680153
1772789870275314700,3.282314697265625,-0.9745046653524041,0.017436287969350813,-0.2324298687368631
1772789870295349500,3.302349609375,-0.8343795708253979,-0.022953590086102486,0.2161525415442884
1772789870315384600,3.322384521484375,-0.4323424924895167,-0.28315467832386493,0.09717749481275677
1772789870335419600,3.342419677734375,0.08970277501791715,-0.5352887799620628,-0.21649258715361355
1772789870355454700,3.362454833984375,0.017165946595370768,-0.9594330606877803,-0.2994504179559648
1772789870375489800,3.38248974609375,0.022137013006210324,-0.5445148734688758,-0.09966302801817654
1772789870395524900,3.40252490234375,0.5960138822987675,0.5725216552913188,0.017051088044047355
1772789870415559700,3.4225595703125,0.5847659275755286,1.380852300363779,0.06483911352679134
1772789870435594800,3.4425947265625,0.29886224280446766,0.5802326680600642,-0.2988194265760481
1772789870455629600,3.462629638671875,0.2980254997193813,-0.46103404170572754,-0.06709376058578491
1772789870475664600,3.48266455078125,0.6356859674736857,0.08720949689745902,0.24021833065599202
1772789870495699700,3.50269970703125,0.5843973865240812,-0.17156828053891657,0.38671222956255075
1772789870515734800,3.52273486328125,0.30918285354971886,-0.4813613749414682,0.12412877623289822
1772789870535768800,3.542768798828125,0.08045768454968928,-0.3743909465193748,0.029452012194693088
1772789870555803600,3.5628037109375,-0.19573884519934653,-0.24937398927509782,0.05561258162856102
1772789870575838700,3.582838623046875,-0.38559476983994245,-0.11093699396550655,-0.09628303019106388
1772789870595873500,3.60287353515625,-0.48837651440054175,-0.11392857699692249,-0.22343436911553144
1772789870615908600,3.62290869140625,-0.36605595663338897,-0.1428022047817707,-0.1492668707512319
1772789870635943700,3.642943603515625,-0.13811989218443632,0.40773382867276664,0.15904738327041268
1772789870655978800,3.662978759765625,-0.07893792763650417,0.4961556239694357,0.3630800095625222
1772789870676013800,3.683013916015625,-0.12242138779312371,0.1260275955915451,0.580812367644161
1772789870696048600,3.703048583984375,-0.010865385146439074,0.002478372812271118,0.37168344112634655
1772789870716083700,3.723083740234375,-0.03331307153701782,-0.24953122566342353,0.07687558827921748
1772789870736118800,3.743118896484375,-0.07021247712820768,-0.45905718867480755,-0.15942615345492958
1772789870756153900,3.76315380859375,-0.14829291115254162,-0.3842512462764978,-0.08684782397821546
1772789870776188700,3.783188720703125,0.013994915343821048,-0.17425006696879863,0.15557342354953288
1772789870796223700,3.8032236328125,0.08097235607355832,-0.02724164266884327,0.2030228647276759
1772789870816258600,3.823258544921875,-0.10977584123164415,0.12182663677036762,0.1182829728141427
1772789870836292900,3.84329296875,-0.18699439772963522,0.10079670822322367,0.11403715193793176
1772789870856327700,3.86332763671875,-0.17814152144938705,-0.0351613297522068,0.2482368019387126
1772789870876362800,3.88336279296875,-0.32460429456532,-0.4004501014053821,0.1583063556447625
1772789870896397600,3.9033974609375,0.009636720134317874,-0.2599368843436241,0.2872638672083616
1772789870916432600,3.9234326171875,0.15652005674988032,-0.19093758239746092,0.09948884049504995
1772789870936467700,3.9434677734375,-0.230147310757637,-0.4463748172342777,0.0401198289424181
1772789870956502800,3.963502685546875,0.5596066441386938,0.6218839443534613,-0.07082841706946492
1772789870976537600,3.98353759765625,0.3669990827023983,1.1055991889446972,-0.169759331420809
1772789870996572700,4.00357275390625,-0.1745002423375845,-0.04725859478116035,0.33391485148519273
1772789871016607500,4.023607421875,-0.19589637384861708,0.08216624203324317,0.167320852227509
1772789871036642600,4.043642578125,-0.04525339243859052,0.021346154889464376,0.08148921955451369
1772789871056677600,4.063677734375,0.12920768693238496,-0.3329588659346103,-0.03472016185596585
1772789871076712700,4.083712646484375,0.37523616517186165,-0.22173194911181926,-0.11286752363666891
1772789871096747500,4.10374755859375,0.25907982912287114,-0.155341952881217,-0.004945931969583034
1772789871116782600,4.123782470703125,0.1890923929221928,-0.004172901770472527,0.1289877605713904
1772789871136816600,4.143816650390625,0.08904518789201975,-0.031184827336668965,0.3350014776781201
1772789871156851500,4.1638515625,0.3493769167721271,0.21746201670765875,0.28456717547029253
1772789871176886500,4.183886474609375,0.22859978905469178,-0.0185872115701437,0.12770546567589044
1772789871196921600,4.203921630859375,0.03680646661072969,-0.17690321182608604,-0.10447013603895902
1772789871216956700,4.223956787109375,-0.036058863113820554,0.2032335848689079,-0.01583820512294769
1772789871236991700,4.24399169921875,-0.1996831989109516,0.13207681262791157,0.18431085773408412
1772789871257026600,4.264026611328125,-0.2075309898018837,0.02932370963990688,-0.007298194184154272
1772789871277061600,4.2840615234375,-0.2149076560497284,-0.19669804562032223,-0.20297259584516286
1772789871297096700,4.3040966796875,-0.17315657264366746,-0.17509060944616794,-0.00458601261600852
1772789871317131500,4.324131591796875,-0.1652536905646324,-0.1375081900268793,0.07025397818237543
1772789871337166600,4.34416650390625,-0.2541831431224942,-0.005078326177597046,0.23152824372202158
1772789871357201700,4.36420166015625,-0.28486411259025335,-0.11827566629052161,0.3352431774795055
1772789871377236500,4.384236572265625,-0.23390841685682534,-0.12247545606791972,0.27701442200317977
1772789871397271600,4.404271484375,0.037059856849908826,-0.1338303782969713,0.16753697919622063
1772789871417305600,4.4243056640625,-0.058840311503410334,-0.05673369461297988,0.04435819716453552
1772789871437340700,4.444340576171875,-0.1375695648252964,0.18262451208233832,0.06513488160297275
1772789871457375500,4.46437548828125,-0.0437666610121727,0.17943711421787736,0.011624532950669526
1772789871477410600,4.48441064453125,-0.008472060269117355,0.05283318004310131,0.00415551224425435
1772789871497445600,4.504445556640625,0.008318331012129783,-0.10494973624944687,0.0548942042261362
1772789871517480700,4.524480712890625,-0.05424275458008051,-0.44114860701858993,-0.05228241429254412
1772789871537515500,4.544515625,-0.2695171981155872,-0.9233411720871925,-0.3012652122929692
1772789871557550600,4.564550537109375,-0.5722530674830079,-1.2829033827871084,-0.385655267855525
1772789871577585700,4.584585693359375,-0.061657707011699675,-0.30699498811662196,-0.26190584632903335
1772789871597620700,4.604620849609375,0.1685068471416831,0.5730740284770727,0.08105009748488665
1772789871617655600,4.624655517578125,0.32745237747281786,1.2286685192525386,0.19299130005687473
1772789871637690600,4.644690673828125,-0.1121066222667694,1.1056009425103663,0.20272826569527386
1772789871657725700,4.6647255859375,-0.1209118600130081,0.09052081340253353,0.5207270245157182
1772789871677760500,4.684760498046875,0.07368161454349756,-0.058770753398537635,0.47394671477079386
1772789871697794600,4.704794677734375,0.328131007386744,-0.21642565939724445,0.34559432949349284
1772789871717829600,4.72482958984375,0.0987938439682126,-0.3110077308893204,0.1242433425232768
1772789871737864700,4.74486474609375,-0.03225479465574026,-0.020881459987163543,-0.20825258207470176
1772789871757899500,4.7648994140625,-0.017740239351987836,-0.03842179285287857,-0.18971169386431574
1772789871777934600,4.7849345703125,0.0467377857774496,-0.08145370984971523,-0.04587327790260315
1772789871797969700,4.8049697265625,0.12925152607411144,-0.03745207103788852,0.1305608551070094
1772789871818004700,4.825004638671875,0.2363376898303628,0.057042322170734405,0.011825900741666555
1772789871838039600,4.84503955078125,-0.013266016547381878,0.09034078066051006,-0.161644706287235
1772789871858074600,4.86507470703125,-0.19842180067300796,-0.07727145572900772,-0.08371654021516442
1772789871878109700,4.885109619140625,-0.10344430012255906,-0.004942132577300072,-0.0832445387892425
1772789871898144800,4.905144775390625,-0.05583557672947645,0.08378302958011627,-0.09131342508494854
1772789871918179600,4.9251796875,-0.2951461448907852,-0.13250526717305183,-0.09666910689920187
1772789871938214700,4.945214599609375,-0.39275808559805153,-0.08498246849775314,-0.04903086515069008
1772789871958249500,4.96524951171875,-0.27575141633003947,-0.16795710430443286,-0.09803484229445457
1772789871978283500,4.985283447265625,-0.29537410842776296,-0.13415128081440925,-0.051963703732192515
1772789871998318600,5.005318603515625,-0.28489859938174483,-0.009238368466496467,0.027032237701863047
1772789872018353400,5.025353515625,-0.2846083842635155,-0.004905307698249817,0.1383933022983372
1772789872038388500,5.045388427734375,-0.19443185425400733,0.10726911910772323,0.03566489536017179
1772789872058423600,5.065423583984375,-0.1781120030939579,0.0206043966114521,-0.12741846542805432
1772789872078458600,5.085458740234375,-0.13820815498977898,0.03246609931886196,-0.15834741830751298
1772789872098493700,5.10549365234375,-0.07212430209890007,-0.02080664118528366,0.006791413705796003
1772789872118528500,5.125528564453125,0.029162673859298226,0.021569442251324653,0.13804448886066675
1772789872138563600,5.1455634765625,0.06330635100156068,0.02751636795699596,0.4354993490852415
1772789872158598700,5.1655986328125,0.3019748218670487,0.131247960588336,0.22690043779090047
1772789872178633700,5.1856337890625,0.3249769272699952,-0.052587096327543256,0.0736501964919269
1772789872198668500,5.20566845703125,0.1919593266606331,-0.13747662584483622,0.029678149100765584
1772789872218703600,5.22570361328125,0.12097718033418059,-0.0651771133095026,0.039440395310893654
1772789872238737700,5.245737548828125,0.06317351840212941,-0.08647942905724049,-0.05427154228314757
1772789872258772700,5.265772705078125,0.014643003989011048,-0.25439210969805715,-0.06302957988679408
1772789872278807600,5.2858076171875,-0.017172960858047006,-0.48144613061547276,0.012911723216995597
1772789872298842600,5.305842529296875,-0.13117957152724266,-0.5124351431190968,0.12749986010119319
1772789872318877700,5.325877685546875,-0.3472153548240661,-0.4707786061286926,0.24866722924523055
1772789872338912500,5.34591259765625,-0.22040216181278227,-0.23124971904158592,0.1161092089716345
1772789872358947600,5.365947509765625,-0.13563392058759927,-0.06735913352370261,0.1043161145210266
1772789872378982700,5.385982666015625,-0.16335750155448914,0.014233692535758017,-0.04314801765717566
1772789872399017500,5.406017578125,-0.14962912819236515,0.09361293419897555,-0.17106318056099115
1772789872419052500,5.426052490234375,-0.09544058801755309,0.08495207335948944,-0.11188128907829523
1772789872439087600,5.446087646484375,-0.08413476562723517,-0.007990998753905297,-0.03153495594859123
1772789872459122700,5.466122802734375,-0.1773230446733534,-0.17126608272194863,0.02252864267230034
1772789872479157800,5.48615771484375,-0.2376912963964045,-0.3712076403081417,0.0365108446650207
1772789872499192600,5.506192626953125,-0.31083222819194195,-0.45723231133520603,-0.05968509176447987
1772789872519226600,5.5262265625,-0.4453473738826811,-0.45508185530304907,-0.15768471661508082
1772789872539261700,5.54626171875,-0.5353178599260747,-0.29641514191329477,-0.10868789986446499
1772789872559296500,5.566296630859375,-0.7414427823223173,-0.19667817187607287,-0.04187091039344668
1772789872579331600,5.58633154296875,-0.9116988112188875,-0.05951251167654991,0.09121551766842603
1772789872599366700,5.60636669921875,-1.0081822593528778,-0.043946693754196166,0.15868264161124823
1772789872619401700,5.626401611328125,-1.0221990212023258,0.08967091857492923,0.16894611534178255
1772789872639436500,5.6464365234375,-1.7932067745745182,-0.5575806912690401,-0.41327918784022327
1772789872659471600,5.6664716796875,-1.8384546140551565,0.23404022654294968,-0.13616086707115171
1772789872679506400,5.68650634765625,-1.2628081047415733,0.8294628649502992,0.4073278782203793
1772789872699541500,5.70654150390625,-0.10531089771203696,1.2662059304863214,0.9478361463963985
1772789872719576600,5.72657666015625,2.017524064004421,1.5900228740662334,1.1517495302230119
1772789872739611600,5.746611572265625,5.947990704554319,1.2437994528889655,0.5875526356846094
1772789872759646700,5.766646728515625,6.338716699802875,0.5749082581669092,-0.46833442784696816
1772789872779680500,5.786680419921875,3.4122324557632204,0.44100949080884455,-0.27704320970624685
1772789872799715600,5.806715576171875,0.5892236376367509,0.48792847837209696,0.45327129874974487
1772789872819750700,5.826750732421875,-0.3713561088681221,0.43257776255011554,0.5988853460818528
1772789872839785500,5.846785400390625,-0.5742915145080536,-0.01424713653922081,0.15834961026459932
1772789872859820500,5.866820556640625,-0.9920610725700855,-0.3331038273632526,-0.3311328195512295
1772789872879855600,5.886855712890625,-1.3898954385191202,-0.2659931156426668,-0.6322551162421703
1772789872899890700,5.906890625,-1.6853279991358519,-0.11360007569491863,-0.5331190347075462
1772789872919925800,5.92692578125,-1.5840402925252914,-0.06651625295877456,-0.19392332020998
1772789872939960600,5.946960693359375,-1.311850660330057,-0.16934417474865912,-0.04349894998669624
1772789872959995400,5.966995361328125,-0.8965560410141944,-0.38199732986986634,-0.04995908591151237
1772789872980030500,5.987030517578125,-0.4209194734603166,-0.2533668583035469,-0.1996276693314314
1772789873000065300,6.007065185546875,-0.014966756050661206,-0.03783317930996418,-0.16585077967494724
1772789873020100400,6.027100341796875,0.25993922243118284,0.1139320841282606,-0.016092179884016514
1772789873040134400,6.047134521484375,0.5377268207639455,0.153581372949481,0.10966039815843105
1772789873060169200,6.067169189453125,0.8235089249819517,0.14610533798038958,0.18589520431607962
1772789873080204300,6.087204345703125,1.096685230126977,0.15414602109491823,0.24358050056546926
1772789873100239400,6.1072392578125,1.2229967572264373,0.19997136820256708,0.29176760836839677
1772789873120274400,6.1272744140625,1.024613681128621,0.18475275628268717,0.30557109279334543
1772789873140309200,6.147309326171875,0.6001176643557846,0.1967564978092909,0.3035746582791209
1772789873160344300,6.16734423828125,0.17468962742984293,0.1714841093868017,0.22250702513754367
1772789873180379400,6.18737939453125,-0.12965871863551437,0.1250426762074232,0.11273206068873405
1772789873200414500,6.20741455078125,-0.2914554006140679,-0.021985621836781502,-0.04464665871709585
1772789873220449500,6.227449462890625,-0.3825169698297977,-0.2944587471485138,-0.15151099641621113
1772789873240484400,6.247484375,-0.44558395911753174,-0.5434539662390947,-0.24631606300920247
1772789873260519200,6.267519287109375,-0.5252378895362839,-0.5783399861812591,-0.32410628191530705
1772789873280553200,6.28755322265625,-0.5647936913877726,-0.27462533490955826,-0.37693215543478725
1772789873300588300,6.30758837890625,-0.4699935932308435,0.03491524603664875,-0.35498014360666275
1772789873320623400,6.327623291015625,-0.25499358272254463,0.05086918649375438,-0.2520002461254597
1772789873340658400,6.347658447265625,-0.02704122472591698,-0.10554653309881687,-0.13380378255099057
1772789873360693200,6.367693359375,0.18429500257782638,-0.24333470911085603,0.0153542209982872
1772789873380728300,6.387728271484375,0.2976392038155347,-0.1316360831230879,0.09912848275005817
1772789873400763400,6.407763427734375,0.3853103999406099,0.03148001089096069,0.16971563840955495
1772789873420798200,6.427798095703125,0.43467860728688534,0.19008301139473913,0.2515279524385929
1772789873440833300,6.447833251953125,0.43042328792996704,0.19025193822085856,0.27827801219820975
1772789873460868400,6.467868408203125,0.3779530229151249,0.07816869682967663,0.2222109648004174
1772789873480903400,6.4879033203125,0.27506730652339756,-0.08737959276735782,0.14269640631973743
1772789873500938500,6.5079384765625,0.15425130810029805,-0.18056582598686216,0.07587415615171193
1772789873520973600,6.5279736328125,-0.004011500663682818,-0.12287000834345817,0.0593625818118453
1772789873541007400,6.54800732421875,-0.15513437454514203,-0.108612350410223,0.03696750239133834
1772789873561042400,6.56804248046875,-0.343964828595519,-0.1425374163657427,-0.02748334247022867
1772789873581077200,6.5880771484375,-0.4426484901875257,-0.22669863160848616,-0.04119856408983469
1772789873601112300,6.6081123046875,-0.45014023418240245,-0.27702888891994953,0.18608458940833805
1772789873621147400,6.6281474609375,-0.39842824018895623,-0.22863865976035594,0.3862582021847367
1772789873641182500,6.648182373046875,-0.31078502804934977,-0.05297697242796421,0.38827830983549355
1772789873661217300,6.66821728515625,-0.1994002903163433,0.20043547858297825,0.23914047229140994
1772789873681252400,6.68825244140625,-0.055737669312953944,0.3650029404491186,0.11239274573177098
1772789873701287200,6.708287109375,0.11315284338407218,0.22721651800274847,0.24105653504580257
1772789873721322200,6.728322265625,0.24135084181725977,-0.11334347058534622,0.39911622245311734
1772789873741357300,6.748357421875,0.2403601502794772,-0.009023264411091804,0.44281478666514157
1772789873761392400,6.768392333984375,0.16382979524135588,0.20267185933291912,0.35182664801180363
1772789873781426400,6.788426513671875,0.1300181265324354,0.22421032192409038,0.19558219333291052
1772789873801461200,6.808461181640625,0.11248721908219159,0.006722586253285407,0.034983927358686925
1772789873821496300,6.828496337890625,0.03640877253003418,-0.1408499016702175,-0.023916589899361133
1772789873841531400,6.848531494140625,-0.06527991609685123,-0.1652536905646324,-0.020316227319836615
1772789873861566200,6.868566162109375,-0.16460662483274935,-0.1560346113204956,-0.0415773342743516
1772789873881601300,6.888601318359375,-0.20065635479204355,-0.13271335696578024,-0.08880085774213076
1772789873901636400,6.90863623046875,-0.19294483056664466,-0.08048457255661487,-0.0696253248900175
1772789873921671400,6.92867138671875,-0.12332001713328063,-0.05961246491968632,-0.009564239419996737
1772789873941706500,6.94870654296875,-0.04123969981782138,-0.08182429672777652,0.054582069537043566
1772789873961741600,6.968741455078125,0.028006854887679216,-0.0729237819135189,0.08101707199811935
1772789873981776100,6.988776123046875,0.0731903969604522,-0.024597850161790846,0.0413633992627263
1772789874001811200,7.008811279296875,0.09104337597191334,0.02165361340343952,0.03693798403590917
1772789874021845200,7.02884521484375,0.13572547132857143,0.03825578863620758,0.05522299778908491
1772789874041880000,7.048880126953125,0.15508308274932206,-0.03758241941928863,0.1231172611027956
1772789874061915100,7.0689150390625,0.12966741339862345,-0.07507073081433772,0.13800474137216806
1772789874081950200,7.0889501953125,0.06364456997998058,-0.06359422803223133,0.11014555132687091
1772789874101985300,7.1089853515625,-0.012116481186076998,-0.03576864799559116,0.11214812332093715
1772789874122020400,7.129020263671875,-0.07720591621212661,0.019465747970342635,0.10777969897836447
1772789874142055200,7.14905517578125,-0.09640585285313427,0.02960311110317707,0.05927227317988872
1772789874162090200,7.16909033203125,-0.09438852168135345,-0.0842997469305992,0.046555122686922544
1772789874182125300,7.189125244140625,-0.04097498446702957,-0.12011340311169624,0.1283282737493515
1772789874202160400,7.209160400390625,0.024289734060689804,-0.054476855596899985,0.1702721032485366
1772789874222195200,7.2291953125,0.06721534113883972,-0.019084055176377294,0.14962240619063377
1772789874242230300,7.249230224609375,0.109479123307392,0.0007394201904535293,0.13744915331602095
1772789874262264300,7.269264404296875,0.11104169644899665,0.015558219137787817,0.11698270387053489
1772789874282299400,7.28929931640625,0.12406075249798595,0.0079646952688694,0.11745908921062946
1772789874302334200,7.309334228515625,0.1031873296868056,0.02559504450559616,0.0881517461836338
1772789874322369300,7.329369384765625,0.06898344678990542,0.035493922707438466,0.06213701496124267
1772789874342404000,7.349404052734375,0.05715389278642833,-0.029364041650295256,0.06733195325583219
1772789874362439200,7.369439208984375,0.021925343016907572,-0.06209960556030273,0.04394786279797554
1772789874382474200,7.38947412109375,0.0033300212055444715,-0.04874620299041271,0.01741115352809429
1772789874402509300,7.40950927734375,-0.023439327776432036,-0.051368952709436415,0.007669803975522518
1772789874422544100,7.429544189453125,-0.031733620325848456,-0.08927519725561141,0.06522475184351205
1772789874442579200,7.4495791015625,-0.029519451407715676,-0.11396540187597275,0.10890987205207348
1772789874462614300,7.4696142578125,-0.03274367415122688,-0.0723012661010027,0.08522562960386276
1772789874482649300,7.4896494140625,-0.018509397093579173,-0.045585693132877345,0.047184652762115
1772789874502683100,7.50968310546875,0.01707731846384704,-0.05766659154891968,0.08721008141934872
1772789874522718200,7.52971826171875,0.043189737907052037,-0.03326747882962227,0.10865735859572886
1772789874542753300,7.549753173828125,0.0764362470138818,-0.005400397738814354,0.07331891871094703
1772789874562788400,7.569788330078125,0.0859732331007719,-0.0032592940568923947,0.049643444091081616
1772789874582823200,7.5898232421875,0.09992927773892879,-0.05073883811235427,0.04835281975865364
1772789874602858200,7.609858154296875,0.1049560929249972,-0.06151391462683677,0.03739595693647861
1772789874622893300,7.629893310546875,0.06257182618193328,-0.05926292082965374,0.005034487035870552
1772789874642928400,7.649928466796875,0.02199088253378868,-0.045586277654767034,0.02165273662060499
1772789874662963200,7.669963134765625,-0.015260770561173557,-0.030350130078196525,0.07064823819696903
1772789874682998300,7.689998291015625,-0.0516915357273072,-0.02729424963891506,0.12333148837536573
1772789874703033000,7.710033203125,-0.05361994650661945,-0.030407413223385808,0.1648971322119236
1772789874723068200,7.730068115234375,-0.045808469038084144,-0.058448681837320327,0.1937073393717408
1772789874743102200,7.750102294921875,-0.02352057631909847,-0.08510697166025638,0.15511954230219124
1772789874763137300,7.77013720703125,-0.012710428491234778,-0.08320318386554718,0.05427636458873748
1772789874783172000,7.790172119140625,0.006757803697139024,-0.07864566669166087,-0.024593466247618198
1772789874803207200,7.810207275390625,0.019176994156837462,-0.09173252727985381,-0.05367635286897421
1772789874823242200,7.8302421875,0.014881415854766964,-0.0863350521504879,-0.028850831431150435
1772789874843277300,7.85027734375,-0.0022357962280511855,-0.06145020174086094,-0.01842646805047989
1772789874863312100,7.87031201171875,-0.01573058003000915,-0.06344634399414062,-0.0052414077848196025
1772789874883347200,7.89034716796875,-0.010108137038350104,-0.05762450597286224,0.009836042098701
1772789874903382300,7.91038232421875,-0.0033791210442781446,-0.0483107341825962,0.014800094246864319
1772789874923417300,7.930417236328125,-0.005602569247409701,-0.03156301299929619,0.012055179452896117
1772789874943452400,7.950452392578125,0.01533383579738438,-0.05771744495332241,0.04458908331096172
1772789874963486200,7.970486328125,0.02816935197301209,-0.09563947159051894,0.06220832663178444
1772789874983521300,7.990521240234375,0.019758666502311825,-0.05708440774679183,0.04174538431763649
1772789875003555800,8.010555908203125,-0.0030699089646339414,-0.027548516660928724,0.05780453871488571
1772789875023591000,8.0305908203125,-0.015759294667840002,-0.0323117855399847,0.13607786496281624
1772789875043625700,8.050625732421874,-0.007768222848698496,-0.027944237980246544,0.17954349720180032
1772789875063660800,8.070660888671876,0.009947466583922504,-0.015574585750699043,0.15898995399475097
1772789875083695900,8.09069580078125,0.02386142564602196,-0.03986205478906631,0.0954541781514883
1772789875103731000,8.11073095703125,0.041870545067265626,-0.08453063307702541,0.04142272823452949
1772789875123766000,8.13076611328125,0.023443930886313316,-0.08833353249132633,-0.024441782817244528
1772789875143800800,8.15080078125,0.004303250151872635,-0.09791326174139976,-0.042429567189514635
1772789875163835600,8.170835693359376,-0.028438158977031707,-0.06487725358009339,-0.01926262661367655
1772789875183870700,8.19087060546875,-0.05029577051997185,-0.01821019495129585,0.04512216727435588
1772789875203904800,8.21090478515625,-0.028999884513020515,0.009973112481832504,0.1182958322957158
1772789875223939800,8.23093994140625,0.001152092644572258,-0.0147878192871809,0.1948211458325386
1772789875243975000,8.250974853515626,0.05111643925309181,-0.03748305069804191,0.207442726996541
1772789875264009700,8.271009765625,0.10018054908625781,-0.0404290410220623,0.12803279793411493
1772789875284044800,8.291044921875,0.12432422573976218,-0.05749065046012401,0.06315437531024218
1772789875304080000,8.311079833984374,0.12323248498030007,-0.04924480016231537,0.05004413384646177
1772789875324114700,8.33111474609375,0.07886478933505714,-0.0021358429849147797,0.13156769406199453
1772789875344149800,8.351149658203125,0.02856616927087307,0.003657353463768959,0.20844956595152614
1772789875364184800,8.371184814453125,-0.008651435424014925,-0.009843933144211768,0.18474369619339703
1772789875384220000,8.391219970703125,-0.009192775759100914,-0.04593348365724086,0.07495908713340758
1772789875404255000,8.4112548828125,0.004586743268370628,-0.0727887573570013,-0.05011515325605869
1772789875424288800,8.431288818359375,0.03002045973241329,-0.09568740238547324,-0.07511223186850548
1772789875444323800,8.45132373046875,0.022165727644041178,-0.0848755009919405,-0.015697919869422913
1772789875464359000,8.47135888671875,-0.0011368950754404067,-0.05186871892511844,0.06383358974605799
1772789875484393700,8.491393798828126,-0.015500935992598533,-0.004905892220139503,0.13401742530167102
1772789875504428800,8.5114287109375,-0.023854849774762987,0.002896305963397026,0.17195815663933753
1772789875524463900,8.5314638671875,0.01883212624192238,-0.026463644033670426,0.18878215792924163
1772789875544499000,8.5514990234375,0.05105389541089535,-0.061301733180880544,0.11268033050149678
1772789875564533800,8.57153369140625,0.06897292539589106,-0.06272445946037769,-0.007518120545148849
1772789875584568800,8.59156884765625,0.06360935253612697,-0.04819967502355575,-0.053692134959995745
1772789875604603600,8.611603759765625,0.01841762715689838,-0.03881868321597576,0.019710078120231626
1772789875624638700,8.631638671875,-0.014543489137291907,-0.04181786503195763,0.13105185349434614
1772789875644672800,8.6516728515625,-0.04165829055607319,-0.039295068556070324,0.18883155002892016
1772789875664707800,8.671707763671876,-0.0367559054672718,-0.027606384328007695,0.17387158904522657
1772789875684743000,8.691742919921875,-0.007072057278081774,-0.028363340175151824,0.10883768359869718
1772789875704777700,8.71177783203125,0.036575872725248336,-0.04085457295775413,0.07251490885168313
1772789875724812800,8.731812744140624,0.06938340589292347,-0.07301321376264094,-0.000905132146179676
1772789875744848000,8.751847900390626,0.08003091050498187,-0.07266425419449805,-0.010835574530065058
1772789875764882700,8.771882568359375,0.051505146309733386,-0.06163081900477409,0.025165713177621365
1772789875784917800,8.791917724609375,0.026475407536700368,-0.03850830209255218,0.08467588676661253
1772789875804952800,8.811952880859375,-0.012948328900337218,-0.0351005394756794,0.10349749161452054
1772789875824988000,8.83198779296875,-0.032704584249854084,-0.04212473902404308,0.06421265219151974
1772789875845023000,8.85202294921875,-0.011561258456110954,-0.056251464053988454,0.03138034990876913
1772789875865058000,8.87205810546875,0.018223127498105167,-0.08246201010942458,0.012234919933974742
1772789875885091800,8.892091796875,0.023674305576086043,-0.08484101420044898,0.009054828593134879
1772789875905127000,8.912126953125,0.03663951254598796,-0.08365034311115742,0.04277005119025707
1772789875925161700,8.93216162109375,0.04179740676581859,-0.044432431444525716,0.052903322669863695
1772789875945196800,8.95219677734375,0.05665544174499809,-0.011551906105875968,0.04952186353802681
1772789875965231900,8.97223193359375,0.07651917605698108,-0.018223638954758644,0.06515782408714293
1772789875985267000,8.992266845703124,0.07535707347504794,-0.039189270094037054,0.10677227550148963
1772789876005302300,9.01230224609375,0.05467025927715003,-0.017355623948574064,0.100473467618227
1772789876025337300,9.03233740234375,0.01827383477203548,-0.00322246917784214,0.08475012104660272
1772789876045372200,9.0523720703125,0.005942907117679715,-0.015158990687131882,0.1160343171045184
1772789876065407200,9.0724072265625,-0.0015846388429403304,-0.03842003928720951,0.15325228712558744
1772789876085442300,9.0924423828125,-0.002659501532837748,-0.039731706407666205,0.16160627397298813
1772789876105476000,9.11247607421875,-0.011882160973548888,-0.06158464177548885,0.12249883694350719
1772789876125511200,9.13251123046875,-0.022045754526183008,-0.10136018732488154,0.06367810692340135
1772789876145546200,9.152546142578124,-0.037724385173246264,-0.11578209590911864,-0.0021618542090058326
1772789876165581300,9.172581298828124,-0.07279635614156722,-0.0935632498383522,-0.032169746720790864
1772789876185616100,9.1926162109375,-0.08689619316458702,-0.061842415928840634,0.0013745032235980034
1772789876205651200,9.212651123046875,-0.0873058699440211,-0.015414426752924919,0.034244799429178234
1772789876225686300,9.232686279296875,-0.07004040849693119,-0.005602057790756225,0.07800912235379219
1772789876245721300,9.252721435546874,-0.03005852672047913,0.017583587485551833,0.13847323566675185
1772789876265756200,9.272756103515626,0.018325930285453797,0.016855857732892037,0.14237930319458245
1772789876285791200,9.292791259765625,0.06894603738896549,-0.0051303486257791514,0.14932050063461064
1772789876305825300,9.3128251953125,0.10280629447996616,-0.028220716834068297,0.1383385033711791
1772789876325860400,9.3328603515625,0.09967566830404102,-0.05732406172156333,0.12018822191357612
1772789876345895200,9.352895263671876,0.0701187344301492,-0.05757072995901107,0.07429127087444067
1772789876365930200,9.37293017578125,0.018570260435342788,-0.04981003282964229,0.03496259230971336
1772789876385965300,9.39296533203125,-0.031626141363382335,-0.051018239575624465,0.007505553324520587
1772789876406000000,9.413000244140624,-0.07254910338222981,-0.05968845276534557,0.003632511283457279
1772789876426035200,9.43303515625,-0.08856836416050791,-0.07574877620637416,0.004759761747717857
1772789876446070300,9.4530703125,-0.09232282132320105,-0.05677928732037544,0.023884733456373212
1772789876466105300,9.473105224609375,-0.06536467177085578,-0.01893792470395565,0.03317366306632757
1772789876486140200,9.49314013671875,-0.005951601880788803,-0.036484687310457224,0.06319967575669289
1772789876506175200,9.51317529296875,0.06503850855641066,-0.06263911926448344,0.09818915607333183
1772789876526209300,9.533209228515625,0.09822839210517705,-0.06347673913240433,0.11955196983665227
1772789876546244000,9.553244140625,0.10428747294843196,-0.04925707512199878,0.10017331562787293
1772789876566279200,9.573279052734375,0.08481529523730277,-0.05130231721401214,0.07013415119498968
1772789876586314200,9.593314208984374,0.06510865118317305,-0.0577700519233942,0.05191752650290727
1772789876606349300,9.613349365234376,0.03329319779276848,-0.06720949591994285,0.04295768271684646
1772789876626384400,9.63338427734375,0.004257072922587394,-0.06535013178884982,0.03000613894611597
1772789876646419200,9.653419189453125,-0.03337685748822987,-0.07406652220785617,0.030973522673547266
1772789876666454300,9.673454345703124,-0.04231353959441185,-0.06492459985315799,0.010612287168204783
1772789876686489300,9.6934892578125,-0.054014498782157895,-0.056468321675062175,-0.00921732567846775
1772789876706524200,9.713524169921875,-0.010138386046141385,-0.02975216418504715,0.015818039117753504
1772789876726559200,9.733559326171875,0.02176116543114185,-0.032472529059648515,0.04692307921648025
1772789876746593300,9.75359326171875,0.05338029253184795,-0.05648001211285591,0.08044248698055743
1772789876766628400,9.77362841796875,0.07099361756853759,-0.05501110860407352,0.07058832470327615
1772789876786663200,9.7936630859375,0.10663374381363391,-0.07046352927982807,0.043732758742570876
1772789876806698200,9.8136982421875,0.08950206481404602,-0.08263502858877181,0.013547171576321125
1772789876826733300,9.8337333984375,0.047941316348314285,-0.08206687331199645,-0.00568418311625719
1772789876846768000,9.85376806640625,0.006623144466802478,-0.0781833098769188,-0.006805003839731216
1772789876866803200,9.87380322265625,-0.05156133347637951,-0.05844575922787189,-0.03965834891051054
1772789876886838300,9.89383837890625,-0.0889355169724673,-0.05573650026917457,-0.02219049675911665
1772789876906873300,9.913873291015625,-0.09287694807462393,-0.08379705810546874,0.027335458432137964
1772789876926908200,9.933908203125,-0.05860927922651171,-0.05299567712843418,0.060626610398292535
1772789876946942200,9.953942138671875,-0.02217033075392246,-0.046754736912250516,0.06552168896347284
1772789876966977300,9.973977294921875,0.029326632249355316,-0.035763387298583985,0.0959071826159954
1772789876987012000,9.99401220703125,0.057853127096965905,-0.0230225636690855,0.12362053444981574
1772789877007046700,10.014046630859376,0.08305537289269269,-0.025662849044799804,0.11860153724402188
1772789877027081700,10.034081787109375,0.06273322728872299,-0.045941082441806794,0.08685439984947442
1772789877047116800,10.05411669921875,0.038319428456947205,-0.04898293435573577,0.07608107690066099
1772789877067152000,10.07415185546875,0.006268485810235143,-0.051043374016880985,0.06387976697534323
1772789877087186700,10.094186767578124,-0.030750527572631834,-0.06239128198325634,0.06830518220216035
1772789877107221500,10.114221435546876,-0.05778707612343132,-0.06647825903594494,0.059786652442812914
1772789877127256600,10.134256591796875,-0.05524141022861004,-0.046214638686180115,0.059363750855624675
1772789877147291600,10.154291748046875,-0.028985198400542138,-0.03304302242398262,0.05338906036019325
1772789877167325700,10.17432568359375,-0.005460603493452072,-0.05095218860208988,0.057059857827425
1772789877187360800,10.19436083984375,0.04188808072395622,-0.049558688417077064,0.04565437445491552
1772789877207395800,10.214395751953125,0.05647131734974682,-0.03771978206336498,0.020854864241182804
1772789877227431000,10.234430908203125,0.07367839967310429,-0.04800327566862106,0.0567635052293539
1772789877247465700,10.2544658203125,0.07616261770427227,-0.04698971471190452,0.07758008328676223
1772789877267500500,10.27450048828125,0.026210034598782656,-0.023817513439059256,0.08472469434440136
1772789877287535600,10.29453564453125,0.0005845218896865845,-0.0224649297863245,0.09562778115272522
1772789877307570700,10.31457080078125,-0.008541033852100371,-0.05830547397434711,0.09362024072259664
1772789877327605800,10.334605712890625,-0.03335055400319397,-0.05902794302999973,0.05268880313634872
1772789877347640800,10.354640869140624,-0.02920278667397797,-0.042352118039131165,0.012621288903057575
1772789877367676000,10.374676025390626,-0.030977906587719914,-0.04457505478560924,0.0015559972703456878
1772789877387709700,10.394709716796875,-0.014840353192016481,-0.04378653475642204,0.026833938650786874
1772789877407744800,10.414744873046875,0.018302037953212856,-0.05092880772650241,0.05865355675965547
1772789877427779600,10.434779541015626,0.025709026274085042,-0.05645078601837158,0.11030600258558988
1772789877447814700,10.454814697265626,0.050973304455354806,-0.054848026996850964,0.1164440669491887
1772789877467849700,10.474849609375,0.039921749087050554,-0.032846623069047926,0.06117255384325981
1772789877487884800,10.494884765625,0.037190205231308934,-0.044267596271634096,0.02780044559538364
1772789877507920000,10.514919921875,0.02581080614812672,-0.06012918227016925,0.02903933974057436
1772789877527955000,10.534954833984376,0.008801730614900588,-0.05903086563944816,0.04744330369830131
1772789877547989500,10.554989501953125,-0.01603160880319774,-0.047158641538023946,0.04063070107400417
1772789877568024600,10.575024658203125,-0.01670614706389606,-0.06640402475595474,0.04381956024318933
1772789877588058600,10.59505859375,-0.03172368345372378,-0.04931786539852619,0.038085985027253626
1772789877608093700,10.61509375,-0.02473046356551349,-0.07558978625237942,0.020434300741553304
1772789877628128800,10.635128662109375,-0.017932473988458514,-0.06288871011137961,0.03345598713904619
1772789877648163800,10.655163818359375,-0.012729717713594435,-0.050556467282772063,0.043753801530599594
1772789877668198700,10.67519873046875,0.004686111989617347,-0.05561024354100227,0.06076864921748638
1772789877688233700,10.695233642578126,0.01792443681247532,-0.03431903370916843,0.06371873119473458
1772789877708268500,10.7152685546875,0.02131166809797287,-0.0400935254573822,0.04771130698472261
1772789877728303600,10.7353037109375,0.028098040302470324,-0.037705169016122815,0.05384703326076269
1772789877748338700,10.755338623046875,0.026793314379453658,-0.05608019914031028,0.03728080612421036
1772789877768373800,10.775373779296874,0.022253990449383854,-0.05954115324914455,0.031956980752944945
1772789877788407800,10.79540771484375,0.022813304832577704,-0.06819909147918224,0.024602818597853182
1772789877808442600,10.815442626953125,0.005773980291560292,-0.07764613426029682,0.03606675415933132
1772789877828477700,10.835477783203125,0.008008534410595894,-0.07506547011733054,0.03080868750065565
1772789877848512800,10.8555126953125,-0.018956044882535935,-0.06126841543316841,0.009400573290884494
1772789877868547600,10.875547607421876,-0.007787585136294364,-0.06190320620536804,-0.0026417466804385184
1772789877888582700,10.895582763671875,-0.013166940087080001,-0.06888824278712272,0.011545476365089416
1772789877908617700,10.91561767578125,-0.01376074126176536,-0.07584054614305495,0.015278817674517631
1772789877928652800,10.93565283203125,0.009678440384194254,-0.04446282658278942,0.016330372554063798
1772789877948688000,10.95568798828125,0.010252587010338902,-0.03235328659415245,0.03380114731490612
1772789877968723000,10.975722900390625,0.03972768781967461,-0.046910219734907145,0.04742869065105915
1772789877988756700,10.9957568359375,0.048458691285923124,-0.05872516069114208,0.053665539214015005
1772789878008792300,11.015792236328124,0.040265374892950054,-0.07037702004015445,0.04484247355014086
1772789878028827400,11.035827392578126,0.044347091248631475,-0.057202481168508526,0.01813011545240879
1772789878048862500,11.055862548828125,0.010469371566176415,-0.06388415088951588,0.014065350231528282
1772789878068897500,11.0758974609375,-0.008763079104945063,-0.07495499548017978,0.011948796468973158
1772789878088932400,11.095932373046875,-0.025206921970844266,-0.05364040477275848,0.019951485660672185
1772789878108967400,11.115967529296874,-0.03285181070081889,-0.03579962765574455,0.021119068135321137
1772789878129002200,11.136002197265626,-0.028103227934241293,-0.05027238964438438,0.039866438703238964
1772789878149037300,11.156037353515625,-0.009036635349318384,-0.07218260815739631,0.03536708145737648
1772789878169072400,11.176072265625,-0.0026074790846556425,-0.07482990779578685,0.03611380817145109
1772789878189106400,11.1961064453125,0.014737038948014378,-0.07179331657886505,0.053612347722053526
1772789878209141200,11.216141357421876,0.007125906357169151,-0.05280044681727886,0.044209436343610284
1772789878229176300,11.23617626953125,0.006650178604200482,-0.04886544545590877,0.03907236571609974
1772789878249211400,11.25621142578125,0.009732289463281632,-0.06693535515367985,0.04635609298348427
1772789878269246500,11.27624658203125,-0.0032838439762592313,-0.05391688362658024,0.042216801221668716
1772789878289281300,11.29628125,0.003586699380353093,-0.042971711242198944,0.011141571739315986
1772789878309316400,11.31631640625,0.016046952502802015,-0.06231938579082489,-0.01629267089217901
1772789878329351400,11.336351318359375,0.020299860706925393,-0.0668979457527399,-0.0048012628018856045
1772789878349386500,11.356386474609375,0.03175707426667213,-0.06963935341536999,0.0011509236007928847
1772789878369421600,11.376421630859374,0.02308284248895943,-0.057765375748276705,-0.015761925016343593
1772789878389455400,11.396455322265625,0.019072364738583564,-0.06674304745197296,0.0013920388802886009
1772789878409490400,11.416490478515625,0.0029021511822938917,-0.07042904248833656,0.022096973256766794
1772789878429525200,11.436525146484374,-0.005785597664117813,-0.05902209781110286,0.01777063449025154
1772789878449560300,11.456560302734376,-0.023407252137735486,-0.050180035185813904,0.007147241406142711
1772789878469595400,11.476595458984375,-0.008933905627205967,-0.0541232198536396,0.04134323325753212
1772789878489630500,11.49663037109375,0.002009659321978688,-0.04793021043241024,0.06511281590163708
1772789878509665500,11.51666552734375,0.013541618618369103,-0.05430149902999401,0.06692717184722423
1772789878529700400,11.536700439453124,0.02876439525671303,-0.07191665069758892,0.048372985763847826
1772789878549735400,11.5567353515625,0.02742109088897705,-0.07663432686924934,0.009715922850370406
1772789878569770200,11.576770263671875,0.015815481834486125,-0.0725713152140379,-0.019238368955254555
1772789878589804300,11.59680419921875,0.008513634388521313,-0.07690905215740203,-0.029942718321084975
1772789878609839400,11.61683935546875,-0.003721723936870694,-0.07043430318534374,-0.01759293983578682
1772789878629874400,11.63687451171875,-0.016045198937132955,-0.059359366941452024,0.0016825462594628332
1772789878649909200,11.6569091796875,-0.014628829333186148,-0.052183776223659516,0.013520868091285228
1772789878669944300,11.6769443359375,-0.0018294804494827985,-0.04206453326940536,0.03922843306064606
1772789878689979400,11.6969794921875,0.004235445612668991,-0.02964753476679325,0.051095104204118245
1772789878710014500,11.717014404296876,0.014055997881293296,-0.05452011021673679,0.05922872629910707
1772789878730049300,11.73704931640625,0.029699630280211567,-0.06276712955832481,0.08133972808122635
1772789878750084400,11.75708447265625,0.025336174373701212,-0.06563362490534783,0.05947539453655481
1772789878770119400,11.777119384765625,0.019711247164011,-0.05577858584523201,0.03251607594043016
1772789878790153200,11.7971533203125,0.009480871985480189,-0.05132569808959961,0.02916121255457401
1772789878810188300,11.817188232421875,-0.009109700585529207,-0.0500274749726057,0.03963789064437151
1772789878830223400,11.837223388671875,-0.0049574032116681335,-0.046328620454669,0.03570055119544267
1772789878850258400,11.857258544921875,-0.01620477341301739,-0.06676818189322949,0.038785949990153314
1772789878870293500,11.87729345703125,0.0028209026396274566,-0.07173778699934483,0.021864918066561222
1772789878890328300,11.897328369140626,0.014676687062904238,-0.07214169162511826,-0.011123743821680545
1772789878910363400,11.91736328125,0.005503200526162982,-0.07154840190708636,-0.017818273024260995
1772789878930398500,11.9373984375,-0.0009456833522766828,-0.07060498357713223,0.002515489952266216
1772789878950433300,11.957433349609374,-0.0022147534400224684,-0.07464812148809433,0.022616320955753326
1772789878970467300,11.97746728515625,-0.0030219781696796417,-0.04279986180663108,0.03308218539059162
1772789878990502000,11.997501953125,-0.0043278000712394715,-0.046052141600847245,0.025514672745764255
1772789879010537000,12.017536865234375,0.0027916034799069164,-0.05905483103692531,0.02887801169902086
1772789879030572000,12.037572021484374,0.025734160715341566,-0.07687690345346927,0.061845046277344225
1772789879050606800,12.05760693359375,0.024434184032678604,-0.05650339298844337,0.045832361370325085
1772789879070642000,12.077641845703125,0.015514306930825113,-0.046395255950093264,0.01595803211033344
1772789879090677000,12.097677001953125,0.014523615393042564,-0.06183247905671596,0.03174158443659544
1772789879110712000,12.117712158203124,0.020376433074474332,-0.07847557082176208,0.03269230929017067
1772789879130747000,12.137746826171876,0.012100845225527882,-0.07000175698697567,-0.002241056925058365
1772789879150782000,12.157781982421875,0.0007931231390684842,-0.06395896969139575,-0.029730536875128746
1772789879170816000,12.17781591796875,0.009887772285938262,-0.07903437374830245,-0.007488602189719676
1772789879190851000,12.19785107421875,0.0023708938498049974,-0.07198562428057194,-0.01937485481649637
1772789879210886000,12.217885986328126,-0.004021510601043701,-0.04530512262582779,-0.005703180077672005
1772789879230921000,12.2379208984375,-0.003736848440766334,-0.035867432194948194,0.026387071666121482
1772789879250956000,12.2579560546875,0.010652326917648315,-0.05675941357612609,0.09332213455885648
1772789879270990800,12.277990966796875,0.031892025757953524,-0.03717033148705959,0.09065846830755471
1772789879291026000,12.29802587890625,0.034533041786029936,-0.04091068705916404,0.06077040278315544
1772789879311061000,12.31806103515625,0.026937106764316557,-0.07091361113488674,0.016318682116270064
1772789879331095800,12.338095703125,0.030727731218934056,-0.0796551359951496,0.028533143784105777
1772789879351130000,12.358130126953125,0.01049567505121231,-0.07557809581458567,0.01360620828717947
1772789879371165000,12.3781650390625,-0.013734510841965674,-0.07151157702803611,0.006664426325261592
1772789879391200000,12.398199951171875,-0.026671660761162636,-0.05521452222168445,0.008161094623804092
1772789879411234800,12.41823486328125,-0.03313362331688404,-0.05232932217419147,0.024464871431887147
1772789879431270000,12.438269775390625,-0.03076521368511021,-0.05959785187244415,0.016151801116764543
1772789879451305000,12.458304931640624,-0.020078399975970385,-0.06218436123430728,0.009365209716558456
1772789879471340000,12.478340087890626,-0.009130889504030347,-0.04659691600203514,-0.007238719081878662
1772789879491374800,12.498374755859375,0.010877367845177649,-0.040753450670838354,0.01629500897973776
1772789879511410000,12.518409912109375,0.041237434795498844,-0.04966097974777221,0.05286883587837219
1772789879531445000,12.538445068359374,0.03470131102502346,-0.05343406854569912,0.07550006214231252
1772789879551478800,12.558478759765626,0.020535423028469085,-0.05448971507847309,0.04754091885387897
1772789879571513900,12.578513916015625,0.011836495200917124,-0.06805471457242965,0.036869887235760686
1772789879591549000,12.598548828125,-0.003835632640123367,-0.06656009210050105,0.005434592269361019
1772789879611584000,12.618583984375,-0.020211597901582716,-0.06623509792983531,0.007049041728675365
1772789879631619000,12.638619140625,-0.023571502788737413,-0.07237199324965476,0.017062486220896244
1772789879651654000,12.65865380859375,-0.025082491873577237,-0.06852817730307578,0.019350304897129536
1772789879671689000,12.67868896484375,-0.011490531307458876,-0.06392097576856613,0.013613514810800552
1772789879691724000,12.69872412109375,0.004972527715563774,-0.065678048568964,0.027460546116530895
1772789879711758800,12.7187587890625,0.01710142999179661,-0.08341887244284152,0.00995323873758316
1772789879731793000,12.73879296875,0.027024785047769544,-0.06907996596693992,-0.019749825608730315
1772789879751828000,12.758827880859375,0.04078611083142459,-0.05772329017221927,-0.016816402505338193
1772789879771863000,12.778863037109375,0.04937039930336177,-0.05369827243983745,0.0038043607190251347
1772789879791898000,12.798898193359374,0.04737206509299576,-0.046997898018360136,0.04485299494415521
1772789879811933000,12.818932861328125,0.04169168136902153,-0.03659516194760799,0.04865034140050411
1772789879831968000,12.838968017578125,0.03741575761549175,-0.04510989231467247,0.04732669158130884
1772789879852002800,12.8590029296875,0.039360023551061746,-0.06630757864415646,0.04441869518011808
1772789879872038000,12.879037841796874,0.010887816173955797,-0.060279404395818706,0.02262216617465019
1772789879892073000,12.899072998046876,0.01199314706735313,-0.0736643711477518,-0.01393295602351427
1772789879912107000,12.91910693359375,-0.015090601626038551,-0.0668283876478672,-0.004606324751675129
1772789879932142000,12.93914208984375,-0.007682882652804255,-0.0739174691259861,0.027040567138791084
1772789879952177200,12.95917724609375,-0.009365721173211931,-0.057853054031729696,0.036468320697546006
1772789879972211700,12.979211669921876,-0.019729294277355074,-0.04227613019347191,0.030384032347798344
1772789879992247000,12.9992470703125,0.01633504872918129,-0.03908756328523159,0.05829670614600181
1772789880012282000,13.0192822265625,0.04033098747506737,-0.05354103605151176,0.05205372010320425
1772789880032317200,13.039317138671874,0.06403269251473248,-0.06610182693898678,0.018685411247611045
1772789880052352300,13.059352294921876,0.07314005501270293,-0.0734820003181696,0.012161562436819076
1772789880072387000,13.079386962890625,0.05682546454966068,-0.08651625393629074,0.003424129229784012
1772789880092422000,13.099421875,0.03743519296832382,-0.06395546256005763,-0.016349954037368296
1772789880112456200,13.119456298828124,0.004207388561964035,-0.06311433556079864,-0.026040450185537335
1772789880132491000,13.139490966796876,-0.0069358636777848,-0.07225391982793808,-0.0036351416319608688
1772789880152526000,13.159526123046875,-0.02658931623995304,-0.07627309234142303,-0.0011626140385866165
1772789880172561200,13.17956103515625,-0.025989012259244916,-0.04976034846901893,0.021929215474426746
1772789880192596200,13.19959619140625,-0.020167758759856224,-0.045941082441806794,0.03536825050115585
1772789880212631000,13.219631103515624,0.0015834697991609571,-0.04514262554049492,0.04609627300351858
1772789880232666000,13.239666015625,0.020386881403252483,-0.054393853488564486,0.05221884753704071
1772789880252701000,13.259700927734375,0.04139825138039887,-0.05861293248832226,0.05375380201935768
1772789880272736000,13.279736083984375,0.04443360048830509,-0.05173427889049053,0.03960691098421812
1772789880292770000,13.29977001953125,0.041461306679248806,-0.05475684158205986,0.034606033957004546
1772789880312805000,13.31980517578125,0.017588190595433116,-0.05910568444132804,0.024876374842226504
1772789880332840000,13.33983984375,0.005237389196828007,-0.062432198515534394,0.008735679641366005
1772789880352875000,13.359875,-0.012150529586151242,-0.061223407247662544,0.009394143550097942
1772789880372910000,13.37991015625,-0.03183189306855202,-0.06671148326992989,0.02365267826616764
1772789880392945200,13.399945068359376,-0.02629479027278721,-0.0648152942597866,0.053233869798481465
1772789880412980000,13.41997998046875,-0.007322305712103843,-0.05553016404211521,0.04813888474702835
1772789880433015000,13.44001513671875,-0.013501286607980728,-0.05165010773837566,0.03774930041879415
1772789880453049000,13.460049072265624,-0.0044886166561394925,-0.05319733718037605,0.036443478517234326
1772789880473084000,13.480083984375,0.004335983377695083,-0.06115209557712078,0.04568243150562048
1772789880493119000,13.500118896484375,0.031137554128840565,-0.04190788140296936,0.05132569808959961
1772789880513154000,13.520154052734375,0.025683891832828522,-0.04544423883557319,0.04175122953653335
1772789880533189000,13.540189208984375,0.03720423375666141,-0.0734469290047884,0.03453735263496637
1772789880553224200,13.56022412109375,0.026359599137306212,-0.07814414691030978,0.022806582830846307
1772789880573259000,13.580259033203125,0.026614012289792297,-0.06718728408813476,-0.01074497363716364
1772789880593294000,13.600294189453125,0.010284151192381977,-0.06405600032508373,-0.013019056048989295
1772789880613329200,13.6203291015625,0.006145151691511273,-0.09355740461945533,-0.010036240845918655
1772789880633364000,13.640364013671874,-0.009433014255762099,-0.08584230019748211,0.004290975192189217
1772789880653398000,13.66039794921875,-0.022698738542199132,-0.07707797898352145,0.01614712494164705
1772789880673433000,13.68043310546875,-0.021493527470901608,-0.06737959178984165,0.018598609746992588
1772789880693468200,13.70046826171875,-0.02019698485434055,-0.0759866766154766,0.02541150463223457
1772789880713503200,13.720503173828124,-0.01764094369597733,-0.053206689530611036,0.013291443249583243
1772789880733538000,13.7405380859375,0.015452493740990758,-0.046098903352022165,0.01403057117909193
1772789880753573000,13.760572998046875,0.03532031970620155,-0.03289689195156097,-0.010129472087323664
1772789880773608000,13.78060791015625,0.06623049481995404,-0.06449672982990741,-0.02434270635694265
1772789880793643000,13.80064306640625,0.07675181576907635,-0.04430442115068436,-0.044751580396294594
1772789880813677000,13.820677001953126,0.0740484750945121,-0.03982289182245731,-0.04930003748089075
1772789880833712000,13.840712158203125,0.05796944695301354,-0.08656360020935534,-0.016108254235982895
1772789880853747200,13.860747314453125,0.027657822254300114,-0.08010229524075985,0.02182750866562128
1772789880873782300,13.8807822265625,0.001263151803612709,-0.07957447197437285,0.04617196858823299
1772789880893817000,13.900817138671876,-0.03101933457665145,-0.07762976764738559,0.07620528780221938
1772789880913852000,13.920851806640625,-0.034762685823440546,-0.06552841096520423,0.06201864927858114
1772789880933887000,13.940886962890625,-0.013991773538663982,-0.07813011838495731,-0.002783200977742672
1772789880953922000,13.960922119140625,0.0029658640682697296,-0.08769757267534732,-0.05424392362385988
1772789880973957000,13.98095703125,0.026384733578562736,-0.09711305127441883,-0.09810819979161023
1772789880993991200,14.0009912109375,0.038121421666815876,-0.09780629423558712,-0.08913549652397632
1772789881014026200,14.021026123046875,0.034058336946368215,-0.06727846950292588,-0.051615036424994466
1772789881034061300,14.041061279296875,0.03298690832257271,-0.05634907920956611,-0.0008452186524868011
1772789881054096000,14.061095947265626,0.03935242476649582,-0.047022447937726974,0.08044979350417852
1772789881074131000,14.081130859375,0.045792540816590184,-0.040242578539252276,0.11451368340849875
1772789881094166000,14.101166015625,0.038110827207565305,-0.04834931262731552,0.0814656925484538
1772789881114201000,14.121201171875,0.031139234629273413,-0.05220306544601917,0.017987784372270107
1772789881134236200,14.141236083984374,0.0308610022097826,-0.04507306743562221,-0.013407763105630873
1772789881154271200,14.161271240234376,0.013436331612989306,-0.050908349460363385,0.02638356453478336
1772789881174305000,14.181304931640625,-0.013169278174638747,-0.06902911256253719,0.03954407488107681
1772789881194340000,14.201340087890625,-0.0217372000336647,-0.06191606568694114,0.03740355572104454
1772789881214375000,14.221375,-0.024701310536265373,-0.0599134936928749,0.05728694458156824
1772789881234410000,14.241409912109376,-0.00946932767815888,-0.06757423757910729,0.04738865090161562
1772789881254445000,14.261445068359375,0.0004091653227806091,-0.07001344742476939,0.006872516117990017
1772789881274480000,14.281480224609375,0.01811608692705631,-0.06034428632557392,-0.022111294043064115
1772789881294515200,14.30151513671875,0.0182739809025079,-0.08512158470749855,-0.0167833770185709
1772789881314550300,14.32155029296875,0.014671499431133269,-0.08520984751284122,-0.00787584794163704
1772789881334585000,14.341585205078125,-0.0011573533415794371,-0.042778819018602365,-0.010635083521902561
1772789881354619100,14.361619140625,-0.004333645290136337,-0.04011749085485935,0.027974925379455087
1772789881374654000,14.381654052734374,0.012474281647801398,-0.0575958644002676,0.08151333108246325
1772789881394689000,14.40168896484375,0.016995047007873652,-0.04828092356622219,0.10111994882822035
1772789881414724000,14.42172412109375,0.021864041283726692,-0.062466685307025906,0.06870499517470598
1772789881434759200,14.44175927734375,0.015161401839926838,-0.07284253337085246,0.034249475604295726
1772789881454794200,14.461794189453125,0.03365377473346889,-0.061253802385926245,0.0015635960549116134
1772789881474829300,14.481829345703124,0.02443944472968578,-0.059841597500443454,-0.02572802323549986
1772789881494864000,14.50186376953125,0.027442791264131662,-0.07552315075695515,-0.038627252297103405
1772789881514898200,14.521898193359375,0.02373984509296715,-0.08240531148612498,-0.01218406652957201
1772789881534933000,14.54193310546875,0.0019231500823050736,-0.0605541296839714,0.004051321217417717
1772789881554968000,14.561968017578126,0.010060206243395806,-0.051263154247403145,0.013154665127396582
1772789881575003100,14.582003173828125,0.0061189212717115875,-0.06642039136886596,0.023731296460330484
1772789881595038200,14.6020380859375,0.01686879027970135,-0.06166413675248623,0.0253252876535058
1772789881615073000,14.622072998046875,0.030719620977714655,-0.05040156898200512,0.023527298320829868
1772789881635108000,14.642108154296874,0.039679099437594414,-0.06333762292265892,0.012315291693806648
1772789881655143000,14.662142822265626,0.03405198027081787,-0.06858896757960319,0.01228343525081873
1772789881675178000,14.682177978515625,0.03150390322320163,-0.05613514419794082,0.0017158640071749686
1772789881695212000,14.7022119140625,0.020100538742542265,-0.06565700578093528,-0.0018824527457356453
1772789881715247000,14.7222470703125,0.003403744028881192,-0.07334580671787262,0.013291735510528088
1772789881735282200,14.7422822265625,-0.009127309307456016,-0.07342296360731125,0.030031273387372492
1772789881755317000,14.76231689453125,-0.011079100962355733,-0.07836684975028038,0.034060675033926964
1772789881775352000,14.78235205078125,-0.021025836893916128,-0.07302022802531719,0.03995674733519554
1772789881795387100,14.80238720703125,-0.022356720171496272,-0.0579097526550293,0.022413199599087236
1772789881815422000,14.822421875,-0.018553236235305665,-0.04976034846901893,0.012919687327742575
1772789881835457000,14.84245703125,0.0020160159975290298,-0.06934416986107826,0.037895138630270955
1772789881855492000,14.8624921875,0.011566592218354344,-0.053522915872931474,0.0172451493114233
1772789881875526100,14.882526123046874,0.03293371683061123,-0.05813946975767612,-0.02160831295698881
1772789881895561000,14.90256103515625,0.0384294647026807,-0.07463117035329342,-0.016011808124184606
1772789881915596000,14.922595947265625,0.02594400407373905,-0.07915361621379852,-0.012680033352971076
1772789881935631000,14.942631103515625,0.010505027401447296,-0.07369359724223613,-0.032682956939935684
1772789881955666200,14.962666259765625,-0.010645239589735865,-0.06183657070994377,-0.03148731741458177
1772789881975701000,14.982700927734374,-0.019452303966879844,-0.06844283710718155,-0.011699205622076988
1772789881995736300,15.002736328125,-0.03345211468152701,-0.06513678129911422,-0.001513327172398567
1772789882015771400,15.022771484375,-0.028619287697598337,-0.05640460878908634,0.0008393734335899353
1772789882035805400,15.042805419921875,-0.0395831647824496,-0.04921498954594135,0.02028466313779354
1772789882055840300,15.06284033203125,-0.02085099178366363,-0.049126142218708986,0.04906535194218158
1772789882075875300,15.082875244140626,-0.0077033409189432855,-0.044455227798223494,0.06268851136416197
1772789882095910400,15.102910400390625,0.02496485684327781,-0.05650514655411243,0.06341361076831817
1772789882115945200,15.1229453125,0.03860584418289363,-0.0461585245847702,0.061661214143037796
1772789882135980300,15.142980224609374,0.05106215178258717,-0.04371346952021122,0.0545391071781516
1772789882156015400,15.163015380859376,0.07363982122838497,-0.049393853244185444,0.04272328943908214
1772789882176050400,15.183050537109375,0.05505670131146907,-0.0691764120787382,0.019412848739326
1772789882196084200,15.203084228515625,0.01849485711157322,-0.10017653049826622,-0.011507482442259787
1772789882216119300,15.223119384765624,-0.014095160847902298,-0.09177811998724937,-0.056496963247656816
1772789882236154400,15.243154296875,-0.04961947869360447,-0.08997136282622814,-0.05692161840051412
1772789882256189400,15.263189453125,-0.08433306467831134,-0.07548223422467708,-0.03151917385756969
1772789882276224300,15.283224365234375,-0.0771849464893341,-0.05049333891868591,0.029874329259991644
1772789882296259300,15.30325927734375,-0.049202130064368244,-0.03734744161963462,0.09444412432610988
1772789882316294400,15.32329443359375,-0.0071568860173225396,-0.03572948502898216,0.11129092196971177
1772789882336329500,15.34332958984375,0.04844174015112221,-0.05380173281431198,0.0923062355145812
1772789882356364500,15.363364501953125,0.0677782357186079,-0.05074292976558208,0.03531418222635984
1772789882376398300,15.3833984375,0.08074936097264289,-0.059735799038410184,-0.01189560497701168
1772789882396433400,15.403433349609376,0.06749824973344802,-0.07736497923135757,-0.017173837640881536
1772789882416468500,15.423468505859375,0.03973177947290241,-0.09638181439042091,-0.0027978140249848363
1772789882436503300,15.44350341796875,0.007033040441945195,-0.09974339977800846,0.015494506251811981
1772789882456538400,15.463538330078125,-0.03534720771312713,-0.09217150321900844,0.0180228556856513
1772789882476573400,15.483573486328124,-0.0672212594229728,-0.08646715409755706,-0.011902911500632763
1772789882496608300,15.503608154296876,-0.06997961822040379,-0.09917173736989497,-0.027399463579058647
1772789882516643300,15.523643310546875,-0.07585216351561248,-0.09478139345645904,-0.028894378311932086
1772789882536677400,15.543677490234375,-0.05227671520411968,-0.0851192466199398,-0.015543606090545654
1772789882556712400,15.56371240234375,-0.011584566266462206,-0.07172785012722015,-0.0163607676923275
1772789882576747500,15.58374755859375,0.028625205981731412,-0.07400456288754939,-0.03164689189046621
1772789882596782300,15.6037822265625,0.06487951860241592,-0.07564882296323776,-0.05020400058329105
1772789882616817400,15.6238173828125,0.07704699932336807,-0.07572364176511764,-0.08292436692416667
1772789882636852200,15.643852294921874,0.08378887479901313,-0.07861117990016937,-0.08490472708642482
1772789882656887300,15.66388720703125,0.06054587331227958,-0.07712181812524795,-0.05872720651775598
1772789882676922400,15.68392236328125,0.025921207720041275,-0.06337970849871635,-0.029125264458358287
1772789882696956400,15.703956298828125,0.006582812456414103,-0.05063070156276226,-0.00871843624562025
1772789882716991500,15.723991455078124,-0.014827566775679587,-0.04760404721796512,0.025887889972329138
1772789882737026600,15.744026611328126,-0.014193433590605854,-0.05613982037305831,0.05518588064908981
1772789882757061400,15.764061279296875,-0.011601079009845852,-0.042532735303044314,0.0635386984527111
1772789882777096200,15.78409619140625,0.01269822659678757,-0.05398293460011482,0.05189443788826465
1772789882797131300,15.80413134765625,0.029658567617461083,-0.0670633654475212,0.0420087114289403
1772789882817166300,15.824166259765626,0.03792845637798309,-0.06529518673121928,0.021826924143731594
1772789882837201400,15.844201416015625,0.03404021676778793,-0.06344868208169936,-0.004558978478610515
1772789882857236500,15.864236572265625,0.00281681098639965,-0.05023498024344444,-0.0000678045392036438
1772789882877270500,15.8842705078125,0.018752558199688792,-0.03822656254172325,0.04358399792164564
1772789882897305600,15.9043056640625,0.020799115465953946,-0.04203063099980354,0.09828706348985433
1772789882917340200,15.924340087890625,0.04531980873830616,-0.04071954840123653,0.10549304934591054
1772789882937375200,15.944375244140625,0.06529642884023487,-0.06596855594813823,0.08461012805402278
1772789882957410300,15.964410400390625,0.07500292627513408,-0.06220891115367412,0.029493805509805678
1772789882977445400,15.9844453125,0.05942658695876598,-0.06032499710321426,-0.01654284626096487
1772789882997480700,16.004480712890626,0.03812368668913841,-0.04743161326050758,-0.02977875993102789
1772789883017515800,16.024515869140625,0.01624269427061081,-0.06654255644381046,-0.007717150248587131
1772789883037549800,16.0445498046875,-0.000687909198924899,-0.07587444841265678,0.025897534583508967
1772789883057584600,16.064584716796876,-0.018166867266222835,-0.04848784431517124,0.07138648934364318
1772789883077619700,16.08461962890625,-0.011224573847651482,-0.03255377760231495,0.10424188024103641
1772789883097654800,16.10465478515625,0.0034580314993858333,-0.015731822139024732,0.10449702404588461
1772789883117689600,16.124689697265627,0.03628653438985348,-0.01170914249420166,0.10696341415941715
1772789883137724700,16.144724609375,0.06177293088920414,-0.029235446834564208,0.09751227972507476
1772789883157759700,16.164759765625,0.09322773427367209,-0.03297755597233772,0.08469254564046859
1772789883177794800,16.184794921875,0.09838139070980251,-0.03715513391792774,0.04776157586723566
1772789883197828900,16.204828857421877,0.0773165369797498,-0.05398059651255607,0.012390110495686531
1772789883217863700,16.22486376953125,0.061600935323163866,-0.06134498780071735,0.0016986206114292144
1772789883237898500,16.2448984375,0.013169862696528435,-0.04031798186302185,-0.014849778607487677
1772789883257933600,16.26493359375,-0.011771174879744647,-0.04363806619644165,-0.011479425391554832
1772789883277968600,16.28496875,-0.025172362114116546,-0.08341185818016529,0.02251987484395504
1772789883298003700,16.305003662109375,-0.026988544690608976,-0.08991466420292854,0.046262861742079255
1772789883318038800,16.325038818359374,-0.016556582525372503,-0.07609305959939956,0.04282002781182527
1772789883338073900,16.345073974609374,-0.008455109134316444,-0.05689210004508495,0.04514759397655725
1772789883358108000,16.36510791015625,0.016203019847348333,-0.028693595042824743,0.04860270286649465
1772789883378142700,16.385142822265625,0.034847514562681314,-0.016520926690101623,0.04971738611012697
1772789883398177500,16.405177490234376,0.05664302065484225,-0.045156654065847394,0.040375265008211134
1772789883418212600,16.425212646484376,0.05491933866739273,-0.044862055033445356,0.02626782920062542
1772789883438247700,16.44524755859375,0.04090951801538467,-0.018461539363861083,0.026342355741560457
1772789883458282800,16.46528271484375,0.03694302553720772,-0.03863631238639355,0.058224809953570364
1772789883478317800,16.48531787109375,0.024825740633532403,-0.07919102561473845,0.056084875315427773
1772789883498352600,16.5053525390625,0.0005394406389445067,-0.06294423969089985,0.07007452996224164
1772789883518386700,16.52538671875,-0.034874987091496584,-0.06304419293403625,0.052098436027765274
1772789883538421500,16.54542138671875,-0.028177973670884964,-0.057817398196458814,0.03399871571362018
1772789883558456600,16.56545654296875,-0.023771336209774015,-0.06374152754843235,0.02206979298889637
1772789883578491600,16.58549169921875,-0.0106704470962286,-0.08183423359990119,0.00784136115014553
1772789883598526700,16.605526611328123,0.009676102296635508,-0.0842827957957983,-0.00010930559337139129
1772789883618561800,16.625561767578127,0.003000277794525027,-0.07775368628799915,-0.015933774451911447
1772789883638596900,16.645596923828126,0.0013005612045526504,-0.06747779146730899,-0.017890169216692446
1772789883658631700,16.665631591796874,0.0032966303925961254,-0.06591185732483863,-0.00997018987238407
1772789883678665700,16.685665771484373,-0.00013794716596603394,-0.06631108577549458,-0.005740589478611946
1772789883698700500,16.705700439453125,0.005186389661952853,-0.08076455854177475,-0.009076455903053284
1772789883718735600,16.725735595703124,-0.006469488275051116,-0.09058043463528155,-0.00743921009004116
1772789883738770700,16.745770751953124,-0.0075993690878152845,-0.0866179607450962,-0.0166308168053627
1772789883758805800,16.7658056640625,-0.008265139520168304,-0.05762450597286224,-0.030085341662168502
1772789883778840800,16.7858408203125,-0.0029237784922122954,-0.058335869112610815,-0.035649113269150254
1772789883798876000,16.8058759765625,0.012350289941951632,-0.08632102362513541,-0.009131693221628665
1772789883818910700,16.82591064453125,0.033175197436287995,-0.09782266084849833,0.024885727192461488
1772789883838944800,16.84594482421875,0.01814889321811497,-0.08641922330260277,0.00834901841133833
1772789883858979600,16.8659794921875,0.003573182311654091,-0.06934007820785046,-0.01984510267674923
1772789883879014700,16.8860146484375,0.006759995654225349,-0.05623392839729786,-0.010011398665606975
1772789883899049700,16.9060498046875,0.021394158749654887,-0.06017886663079262,0.017208032171428203
1772789883919084800,16.926084716796876,0.020286928160116076,-0.08004033592045307,0.014378946225345133
1772789883939119900,16.946119873046875,0.02703245689757168,-0.06496200925409794,-0.00911883374005556
1772789883959154700,16.96615478515625,0.04090316133983433,-0.08724281464517115,-0.022753099077939987
1772789883979189800,16.986189697265626,0.03394493969976902,-0.0925350758343935,-0.025616964076459407
1772789883999223000,17.00622314453125,0.049976110111549496,-0.09502923073768615,-0.05506108522564172
1772789884019258000,17.026258056640625,0.02861000841259956,-0.061703299719095224,-0.06532412056475877
1772789884039293000,17.04629296875,0.013897592449188232,-0.06412146677672863,-0.05715718072205782
1772789884059328000,17.066327880859376,0.0034101007044315336,-0.0828407802939415,0.000056990884244441985
1772789884079363000,17.086363037109376,-0.01251702481098473,-0.06957739409506321,0.020068390038609503
1772789884099398100,17.106398193359375,-0.04416515881046652,-0.0472217699021101,0.03726093237996101
1772789884119433200,17.12643310546875,-0.03223689367286861,-0.04290741383433342,0.0795639505803585
1772789884139468300,17.14646826171875,-0.007439137024804949,-0.04138414978981018,0.10926116970777511
1772789884159502000,17.166502197265626,0.010751768704131245,-0.05503507400155067,0.10145604891479015
1772789884179537200,17.186537109375,0.020350714111328123,-0.06571253536045552,0.06291735168397426
1772789884199572000,17.206572021484376,0.026592238849401473,-0.05964636718928813,0.028055297139286995
1772789884219607000,17.22660693359375,0.0160644150942564,-0.05527122084498405,0.009983926136791705
1772789884239642000,17.24664208984375,0.010662190724536776,-0.06294365516901015,0.0216305247887969
1772789884259677200,17.26667724609375,-0.0010708441019058226,-0.06094049865305423,0.047264440000057216
1772789884279712000,17.2867119140625,-0.016277838649228216,-0.05484335082173347,0.06163549517989158
1772789884299747000,17.3067470703125,-0.019490297889709473,-0.050038580888509744,0.06222995394170284
1772789884319781000,17.326781005859374,-0.017603972686454653,-0.0405073669552803,0.04506634543389082
1772789884339816200,17.346816162109373,-0.01224449147991836,-0.05085632701218128,0.039548751056194306
1772789884359851000,17.36685107421875,0.007164557867124676,-0.070784431797266,0.03844868085980415
1772789884379886000,17.386885986328124,0.023929741641879082,-0.05451777212917804,0.04378887284398079
1772789884399921200,17.406921142578124,0.04029408953078091,-0.05008534263968467,0.027453824114799498
1772789884419956000,17.4269560546875,0.043861938080191606,-0.055901919963955875,0.024326047483086585
1772789884439991000,17.446990966796875,0.02709551219642162,-0.05549041655361652,0.0352051688939333
1772789884460026000,17.467026123046875,0.02538286305963993,-0.046267245656251905,0.056230129005014895
1772789884480060200,17.48706005859375,0.014597192085906862,-0.039616555595397944,0.06743921302258968
1772789884500095200,17.50709521484375,0.011800912430882453,-0.06090192020833492,0.05505085609257221
1772789884520130000,17.527130126953125,0.017844868770241735,-0.058712885731458664,0.011919862635433673
1772789884540165000,17.5471650390625,0.01468852363117039,-0.06043021104335784,-0.00001578209102153778
1772789884560200000,17.567199951171876,0.022270941584184765,-0.06821487357020378,-0.014839841735363006
1772789884580235000,17.587235107421876,0.01829611966907978,-0.07656944493949412,-0.026986791124939916
1772789884600270000,17.60727001953125,0.03296060483753681,-0.08157879753410816,-0.03531476674824953
1772789884620304100,17.62730419921875,0.036018969494849444,-0.07241115621626376,-0.05650310072749853
1772789884640339200,17.647339111328126,0.0396486312340945,-0.07972878575325011,-0.07223609191030264
1772789884660374300,17.667374267578126,0.04919212012700736,-0.08585048350393772,-0.07323357851505279
1772789884680409000,17.6874091796875,0.050022725732252,-0.07763736643195152,-0.05008066646456718
1772789884700444000,17.70744384765625,0.03683298929147422,-0.05861936222910881,-0.019796587359905242
1772789884720479000,17.72747900390625,0.020398571841046213,-0.05184124639630317,0.026549276490509508
1772789884740514000,17.74751416015625,-0.004817629414796829,-0.044235447567701335,0.0678349343419075
1772789884760549000,17.767549072265624,0.003217208480834961,-0.034036709636449815,0.10949030228853225
1772789884780583200,17.787583251953127,0.002302431723475456,-0.012647884649038314,0.12453472668528556
1772789884800618200,17.8076181640625,0.004603621337935329,-0.007058686339855193,0.128670511315763
1772789884820653000,17.827653076171874,0.019506737567856907,-0.044805356410145755,0.0840337894707918
1772789884840687900,17.84768798828125,0.005103533684089779,-0.0960685106575489,0.0587198999941349
1772789884860723000,17.867722900390625,-0.00592288724295795,-0.04992050746679306,-0.03387567385584116
1772789884880758000,17.887758056640624,-0.009034954848885536,-0.07654547954201697,-0.041508068430423734
1772789884900793000,17.90779296875,-0.03521744385361671,-0.08663140474855899,-0.019565408952534197
1772789884920828200,17.927828125,-0.05836567972898483,-0.1011661260575056,0.03587999941557646
1772789884940862200,17.9478623046875,-0.07827617579214274,-0.11067805076837539,0.08450286828726529
1772789884960897000,17.96789697265625,-0.08524133862964808,-0.07826280485391617,0.14734744699597357
1772789884980932000,17.98793212890625,-0.0727361503869295,0.0019043723165988922,0.17970920915752647
1772789885000967200,18.00796728515625,-0.04471175984255969,0.020894319468736648,0.18371990610361097
1772789885021002200,18.028002197265625,0.0032090251743793485,-0.04300619803369045,0.1575204659640789
1772789885041037300,18.048037353515625,0.0376969857096672,-0.07138356673419476,0.09692132809460162
1772789885061072400,18.068072265625,0.0457183796018362,-0.09027648325264453,0.044158290678262706
1772789885081107500,18.088107421875,0.02347607959024608,-0.07971475722789764,-0.003883271174132824
1772789885101141500,18.1081416015625,0.014388006314635276,-0.08448562489151955,-0.055069268532097336
1772789885121176600,18.128176513671875,-0.0046341626066714525,-0.10540040262639522,-0.05381371551305055
1772789885141211400,18.14821142578125,-0.007096680262684822,-0.12311959919035434,-0.04774053307920694
1772789885161246200,18.16824609375,-0.027371991050243377,-0.1119803655385971,-0.05498100572675466
1772789885181281300,18.18828125,-0.00915777751095593,-0.11606558902561664,-0.0548334139496088
1772789885201316400,18.20831640625,0.02443593759834766,-0.10640402671098709,-0.04749152675420046
1772789885221351400,18.228351318359376,0.048103813433647155,-0.06412088225483895,-0.06088584585636854
1772789885241385500,18.248385498046876,0.08164601755142212,-0.03961772463917732,-0.07582505631297827
1772789885261420500,18.268420654296875,0.1054103394985199,-0.055475803506374356,-0.0441433853700757
1772789885281455400,18.288455322265627,0.11220891359746456,-0.05437690235376358,-0.0008782441392540931
1772789885301490400,18.308490478515626,0.0955851110547781,-0.021842998495697975,0.025928514243662357
1772789885321525200,18.328525146484374,0.0691419252872467,-0.02859481084346771,0.053015843133628365
1772789885341560300,18.348560302734374,0.07094232577271758,-0.060359483894705766,0.08528203596621751
1772789885361595400,18.368595458984377,0.056873979866504665,-0.06936521264910697,0.08406360008716583
1772789885381630500,18.38863037109375,0.04381283824145794,-0.07398585818707942,0.0689177611425519
1772789885401664300,18.408664306640624,0.020713117682933806,-0.057281391623616215,0.0312660758793354
1772789885421699300,18.42869921875,0.0058937342137098305,-0.0681312869399786,0.004227846828103066
1772789885441734400,18.448734375,-0.0061087652038782836,-0.08383446750640869,-0.024339491486549375
1772789885461769200,18.468769287109374,-0.005223872128129005,-0.10257949998676777,-0.011514496704936027
1772789885481804300,18.48880419921875,-0.0036263007383793592,-0.08371347147524356,-0.0057435120880603785
1772789885501839400,18.50883935546875,0.016854688689112662,-0.07155015547275542,-0.005294599276781082
1772789885521874400,18.52887451171875,0.04885901571512222,-0.08361118014454841,-0.012103987030684948
1772789885541909500,18.548909423828125,0.058922144567966454,-0.09500818794965743,-0.033145606015622615
1772789885561943300,18.568943359375,0.050916532766819,-0.07071136656105519,-0.048207273808121676
1772789885581978400,18.588978271484375,0.03889065247364342,-0.051010640791058534,-0.005161036024987698
1772789885602013400,18.609013427734375,0.024072364982962606,-0.05534662416875362,0.03928922333717346
1772789885622048300,18.62904833984375,0.0060942252218723295,-0.035222704550623894,0.04344955788701772
1772789885642083300,18.649083251953126,-0.0007001110933721065,-0.018067571610212326,0.035518472626805304
1772789885662118400,18.669118408203126,-0.0007424158651381731,-0.04328852210640907,0.054200376743078225
1772789885682153500,18.689153564453125,0.005045592951774597,-0.07781564560830592,0.06332125630974769
1772789885702187300,18.709187255859376,0.01708608629219234,-0.05652092864513397,0.032580081087350846
1772789885722222300,18.729222412109376,0.008778276674076914,-0.03083002254962921,0.030880583693087098
1772789885742257400,18.74925732421875,0.005994198913499713,-0.05172200393080711,0.05823270099908113
1772789885762292500,18.76929248046875,-0.017716273954510687,-0.057250411963462824,0.09801263046264648
1772789885782327300,18.789327392578127,-0.038622795317694546,-0.036411622074246405,0.10248626874536275
1772789885802362400,18.8093623046875,-0.05645655817203223,-0.023821605092287063,0.11598346370011567
1772789885822397400,18.8293974609375,-0.03382511271238327,-0.053395490100979805,0.10330606069564818
1772789885842432300,18.849432373046874,-0.017191373297572136,-0.07595277434587479,0.03429126891940832
1772789885862466300,18.86946630859375,-0.022766543081402777,-0.08637655320465565,0.000706102442741394
1772789885882501400,18.88950146484375,-0.013229995385929942,-0.07324819156229495,-0.02055968068689108
1772789885902536400,18.909536376953124,-0.00184117088727653,-0.06292553499042987,-0.04279313980489969
1772789885922571500,18.929571533203124,-0.019100933245941996,-0.06534311752617358,-0.05410276158750057
1772789885942606300,18.9496064453125,-0.008598901519179344,-0.08907061459422111,-0.029046354003250598
1772789885962641400,18.969641357421875,-0.007046484445407986,-0.06757306853532791,0.007927578128874301
1772789885982676200,18.98967626953125,-0.005976809387281536,-0.04787351180911064,0.05375292523652315
1772789886002710000,19.0097099609375,0.004585574224591255,-0.03890285436809063,0.08347586332708597
1772789886022745000,19.0297451171875,0.011663549786806105,-0.02546118899285793,0.0953758522182703
1772789886042780200,19.0497802734375,0.027076149908825755,-0.026033435922861097,0.08804010250270367
1772789886062815200,19.069815185546876,0.03847958745472133,-0.04392039026916027,0.0665036857381463
1772789886082850000,19.08985009765625,0.04829955520145595,-0.061470660006999966,0.03337123146504164
1772789886102885000,19.109885009765627,0.04928681267313659,-0.06105155781209468,-0.0034039632245898245
1772789886122920000,19.129919921875,0.0269745161652565,-0.061467737397551535,-0.02020049198567867
1772789886142954000,19.1499541015625,0.004615384840965271,-0.05297755694985389,0.014265256717801093
1772789886162989000,19.169989013671874,-0.00678045392036438,-0.06260813960433007,0.01920680477321148
1772789886183024000,19.190024169921877,-0.016676409512758256,-0.06375906320512294,0.03153933986276388
1772789886203059200,19.21005908203125,-0.015823592075705526,-0.06586158844232559,0.02606558462679386
1772789886223094000,19.230093994140624,-0.013770093612000345,-0.050175943532586094,0.012758359286189078
1772789886243129000,19.250129150390624,0.007253989716246724,-0.04036532813608646,0.007032382854819297
1772789886263164200,19.2701640625,0.025592048830911516,-0.05762099884152412,0.036327450922131535
1772789886283199000,19.290198974609375,0.026153847432136536,-0.06613280659914016,0.058579030218720435
1772789886303233000,19.31023291015625,0.01556114174723625,-0.05203881479501724,0.04421849643290043
1772789886323268000,19.33026806640625,0.01767645340077579,-0.04041676606237888,0.021484978838264942
1772789886343303000,19.350302978515625,0.007016089307144284,-0.06641688423752784,0.008117840003967284
1772789886363338000,19.370337890625,-0.005714212928339839,-0.0946218189805746,0.025930267809331414
1772789886383373000,19.390373046875,-0.02028108294121921,-0.08028641963601112,0.013555939404666423
1772789886403408100,19.410408203125,-0.03636369127929211,-0.06667933456599712,0.009825812965631484
1772789886423443200,19.430443115234375,-0.031200024905800816,-0.0784703101247549,0.01909516109228134
1772789886443477200,19.450477294921875,-0.009476926462724805,-0.10766133329570293,0.0446051576629281
1772789886463512000,19.470511962890626,0.010429624077677726,-0.09058452628850937,0.033139468535780904
1772789886483547000,19.490546875,0.028435236367583272,-0.07647592143714428,-0.0045972646623849865
1772789886503582000,19.51058203125,0.04583528397977352,-0.08177052071392536,-0.012886954101920128
1772789886523617000,19.530616943359377,0.07573299411535263,-0.09242401667535305,-0.04150076190680265
1772789886543652000,19.550652099609376,0.08782266035974025,-0.12691314625442027,-0.10016220971196889
1772789886563687200,19.570687255859376,0.08124737362265587,-0.13448621185719967,-0.15045008918642996
1772789886583722200,19.59072216796875,0.05403437252640724,-0.11308102025687694,-0.1421852419272065
1772789886603756300,19.61075634765625,0.025537176838517188,-0.08577040400505065,-0.12486088989973068
1772789886623791000,19.630791015625,-0.014744491602107881,-0.05134907896518707,-0.06952274129837752
1772789886643826000,19.650825927734374,-0.021912045143917203,-0.04301028968691826,0.044161797809600827
1772789886663861000,19.670861083984374,0.0038197774838656185,-0.003995791637897491,0.14874474657326936
1772789886683896000,19.69089599609375,0.019542320337891578,0.030354806253314017,0.19125380873978137
1772789886703931100,19.71093115234375,0.07779102262370288,-0.045566988432407377,0.18878654184341429
1772789886723966200,19.73096630859375,0.12082009007632731,-0.1141021799981594,0.14070377119779587
1772789886744000300,19.751000244140624,0.12647358579337595,-0.12960603860020636,-0.00244125567227602
1772789886764035000,19.77103515625,0.09489946687817573,-0.0637257454574108,-0.20606296307593583
1772789886784070000,19.79106982421875,0.026942951983213424,-0.08502513859570025,-0.27354835332781074
1772789886804105000,19.81110498046875,-0.04036540120132267,-0.1127776533961296,-0.18033698566704986
1772789886824140000,19.83114013671875,-0.14137889398038386,-0.06196808813512325,-0.03474836503714323
1772789886844175000,19.851175048828125,-0.21203005478680131,-0.03307049495279789,0.10306523767709731
1772789886864210200,19.871210205078125,-0.23305939881205556,-0.049307928526401514,0.23773002097159623
1772789886884244000,19.891243896484376,-0.2034265501577407,-0.03106090869605541,0.31813860568255187
1772789886904279000,19.911279052734375,-0.10940722711496055,-0.08248889811635017,0.33500498480945823
1772789886924314000,19.931314208984375,-0.022056933507323264,-0.14655074366033077,0.3217264010414481
1772789886944349000,19.951348876953126,0.05172032343037426,-0.16138649374246597,0.2014294580563903
1772789886964384000,19.971384033203126,0.10233290481455623,-0.1743073501139879,0.0025710195317864416
1772789886984419000,19.991419189453126,0.12428345533795654,-0.17729074983894824,-0.2765671166270971
1772789887004454700,20.01145458984375,0.08017009977996349,-0.15631518182754517,-0.47033320044875143
1772789887024488700,20.03148876953125,-0.028922143101692197,-0.05470131200253963,-0.48388446367830035
1772789887044523500,20.0515234375,-0.18320552684068678,0.05318740030825138,-0.327866218970716
1772789887064558600,20.07155859375,-0.30780915404371917,0.1523345877587795,-0.0575020486369729
1772789887084593400,20.091593505859375,-0.3423732485551387,0.13243103289306163,0.25586568938195703
1772789887104628500,20.11162841796875,-0.2851882299780846,0.07983750682473183,0.5217173507273197
1772789887124663600,20.13166357421875,-0.16786299628019333,-0.00267652573287487,0.7224328152954578
1772789887144698600,20.15169873046875,-0.047200288722664116,-0.05931845040917396,0.8423527416616677
1772789887164733700,20.171733642578126,0.044238954699039455,-0.04537292716503143,0.8056684401258826
1772789887184767500,20.191767578125,0.1097673656642437,0.04224690409898758,0.5423427901268005
1772789887204802600,20.211802490234376,0.2031478062815964,0.09461012854278088,0.1520043328911066
1772789887224837600,20.231837646484376,0.2907587235867977,0.032194881162047384,-0.1913479167640209
1772789887244872400,20.25187255859375,0.3273714211910963,-0.0632470220297575,-0.41683717258274555
1772789887264907500,20.271907470703123,0.2963378388933837,-0.1026519807010889,-0.5419432694151998
1772789887284942600,20.291942626953126,0.22272680536806583,-0.0678220748603344,-0.5344105358228087
1772789887304977700,20.311977783203126,0.1385930626541376,-0.008980009791254996,-0.41206601265817877
1772789887325011500,20.332011474609374,0.05033025731146335,-0.015029811349511146,-0.24211013575196264
1772789887345046500,20.352046630859373,-0.016421484903618694,-0.05629062702059746,-0.060383449292182916
1772789887365081600,20.37208154296875,-0.056671004640311,-0.05962473987936973,0.07468348506242037
1772789887385116700,20.39211669921875,-0.08309095566272735,0.00008767828345298767,0.20177169562280176
1772789887405151500,20.4121513671875,-0.06758373605981469,0.019957915401458737,0.335917423479259
1772789887425186600,20.4321865234375,-0.04401216020584106,0.008934417083859444,0.3966208985060453
1772789887445221600,20.4522216796875,-0.01311433311700821,-0.008504208973050117,0.3312964856803417
1772789887465255400,20.47225537109375,0.017489479461312293,-0.08784194958209991,0.19625819289833307
1772789887485290500,20.49229052734375,0.021125278680399057,-0.1725660594046116,0.026764965067803858
1772789887505325600,20.51232568359375,-0.015343115082383155,-0.21930092257261274,-0.1294403266444802
1772789887525360600,20.532360595703125,-0.06268295840620994,-0.21511925297379492,-0.24337679468691348
1772789887545395700,20.552395751953124,-0.12877492153830825,-0.177929047742486,-0.2679278830975294
1772789887565430500,20.572430419921876,-0.17268588639199733,-0.14468261170089244,-0.2304983161523938
1772789887585465600,20.592465576171875,-0.18573884471058844,-0.11887889288067817,-0.14210925408154726
1772789887605500700,20.612500732421875,-0.14672142405211924,-0.07200257541537285,-0.06858078427314758
1772789887625534500,20.632534423828126,-0.07207111060693859,-0.03868891935646534,0.01525397549420595
1772789887645569500,20.652569580078126,0.028544395830482242,-0.029797172370553016,0.048235330858826635
1772789887665604600,20.6726044921875,0.13205387014374137,-0.0162257431358099,0.047668052364885805
1772789887685639700,20.6926396484375,0.23111995518207548,-0.005162497329711913,0.028893501529097556
1772789887705674800,20.7126748046875,0.2961370556242764,-0.03126958301067352,0.03156944274008274
1772789887725709600,20.73270947265625,0.3052237406603992,-0.04515548502206802,0.05006313080787658
1772789887745743600,20.75274365234375,0.2660322786092758,-0.0266302327722311,0.04582388580292463
1772789887765778400,20.7727783203125,0.18609189593195913,-0.041669980993866915,0.06458060872107743
1772789887785813500,20.7928134765625,0.08687339681088924,-0.03987900592386722,0.02384469370692968
1772789887805848600,20.8128486328125,-0.01484276434481144,-0.020748188996315,-0.03711830903887749
1772789887825883600,20.832883544921874,-0.1091976029522717,-0.03006839052736759,-0.05823796169608831
1772789887845918700,20.852918701171873,-0.14944405394904314,-0.07771510784327984,-0.04573679204136133
1772789887865953800,20.872953857421876,-0.17295009028613567,-0.098595398786664,-0.0375815426364541
1772789887885988400,20.89298828125,-0.13638254699781535,-0.10850070672929286,-0.027134967423975465
1772789887906022700,20.913022705078124,-0.06499766508936881,-0.07068155594468116,-0.015271511150896548
1772789887926057500,20.933057373046875,0.026143910560011863,-0.026143326038122177,0.029499066206812856
1772789887946092500,20.953092529296875,0.10220321402028203,0.0014344167172908782,0.10050853893160819
1772789887966127600,20.973127685546874,0.1557861895173788,0.03773731772005558,0.14793284566849468
1772789887986162700,20.99316259765625,0.19848025286197662,0.010337854140996932,0.1321919634401798
1772789888006197200,21.013197265625,0.19674780304618178,-0.01318096861243248,0.1000879754319787
1772789888026232300,21.033232421875,0.12468904046416282,0.06194470725953578,0.04166705838441848
1772789888046266400,21.053266357421876,0.06350786492303014,0.0179641112357378,0.05796674353927374
1772789888066301200,21.07330126953125,0.014592004454135894,-0.058061143824458115,0.17948095335960387
1772789888086336300,21.093336181640623,-0.03959200567603111,-0.039196284356713296,0.2363870819300413
1772789888106371000,21.11337109375,-0.07616159479096532,-0.028225977531075475,0.1977855485960841
1772789888126406100,21.13340625,-0.08014262725114822,-0.06431552804410458,0.1422708743840456
1772789888146441200,21.153441162109374,-0.049614802518486975,-0.08807634285986422,0.09018266748934983
1772789888166476300,21.173476318359373,-0.06423442563191056,-0.06961012732088566,0.004698679210245609
1772789888186510000,21.193510009765625,-0.060146133404970166,-0.08357318622171879,-0.05343173045814037
1772789888206545200,21.213545166015624,-0.04458499165773391,-0.10986848795115947,-0.08184972342997789
1772789888226580200,21.233580322265624,-0.03526712821424007,-0.11978139467835426,-0.0880605607688427
1772789888246615300,21.253615234375,-0.022699907585978507,-0.13268237730562688,-0.06492927602827549
1772789888266650000,21.273650146484375,-0.009129647395014762,-0.04911445178091526,-0.07602905445247889
1772789888286685200,21.293685302734374,0.019743980389833448,-0.01837503012418747,-0.07712883238792419
1772789888306720300,21.31372021484375,0.06588555383980274,-0.04540858300030231,-0.023778350472450256
1772789888326754000,21.333754150390625,0.08110007410645484,-0.06277414382100105,0.08267536059916018
1772789888346789000,21.3537890625,0.09360007471740245,-0.06584522182941437,0.11451105305999516
1772789888366824200,21.37382421875,0.07152619007527827,-0.017785247537493706,0.09061141429543494
1772789888386859300,21.393859375,0.0968448287922889,0.012679448831081389,0.05357376927733421
1772789888406894000,21.41389404296875,0.1263537588059902,-0.024997078612446783,0.09382160851359367
1772789888426929200,21.43392919921875,0.11370236702561377,-0.053631052422523494,0.1259761576652527
1772789888446964200,21.453964111328126,0.07285539285242557,-0.018657938718795775,0.09008125294148922
1772789888466998000,21.473998046875,0.027577012103050944,-0.024178747966885565,0.06873451353013516
1772789888487033000,21.494033203125,-0.0008079553820192813,-0.08265840946435928,0.06281681391894817
1772789888507068200,21.514068115234377,-0.0068003276646137235,-0.08879705834984779,0.05996522388011217
1772789888527103200,21.534103271484376,0.004743322069570422,-0.0373357511818409,0.03617839784026146
1772789888547138300,21.55413818359375,0.02613558112308383,-0.007736731731891632,0.053662032082676885
1772789888567173000,21.574173095703124,0.07756824671849608,-0.050958033820986744,0.11898819847404957
1772789888587208200,21.594208251953123,0.10204064386971294,-0.08564590084254742,0.12249357624650001
1772789888607242000,21.614241943359374,0.10265899496376514,-0.1010229181945324,0.028423838190734386
1772789888627277000,21.634277099609374,0.06590075140893459,-0.12178279762864112,-0.08808686425387859
1772789888647312100,21.65431201171875,0.01266249769628048,-0.12068798812925814,-0.18863485841304062
1772789888667347200,21.67434716796875,-0.047454409614205356,-0.11444529434740543,-0.23644144246578216
1772789888687382300,21.69438232421875,-0.08801562564857304,-0.09404314230978489,-0.20420885964184998
1772789888707417300,21.714417236328124,-0.11296411587893962,-0.12994973747134209,-0.03074146748334169
1772789888727452200,21.7344521484375,-0.11571012665145099,-0.12098434072732925,0.15405512794107198
1772789888747486200,21.754486328125,-0.08749657021053135,-0.037906244546175,0.21598434537053107
1772789888767521000,21.77452099609375,-0.0026841975826770066,0.0006558335602283477,0.19524813907295463
1772789888787556000,21.79455615234375,0.1124941602796316,0.0510515573233366,0.13462678937166928
1772789888807591200,21.814591064453126,0.21862463074624536,-0.013912790018320083,0.08922522063404321
1772789888827626200,21.834626220703125,0.2453920800320804,-0.0907879399061203,-0.025209260058403012
1772789888847661300,21.854661376953125,0.18370704662203788,-0.1535685134679079,-0.15509440786093473
1772789888867696400,21.8746962890625,0.09255304988250136,-0.19156711247265337,-0.24223171630501747
1772789888887730200,21.894730224609376,-0.027384266009926793,-0.16628946335315703,-0.25684037963300943
1772789888907765200,21.91476513671875,-0.12827142899557947,-0.126162035626173,-0.1790288256779313
1772789888927800000,21.934800048828127,-0.2104541107069701,-0.10569617070257663,-0.04244944093376398
1772789888947835100,21.954835205078126,-0.23808511801958082,-0.0982119524270296,0.10884002168625592
1772789888967870200,21.9748701171875,-0.19227555300295351,-0.04940495916008949,0.1303407826155424
1772789888987905300,21.9949052734375,-0.10945223530046641,-0.032061025649309155,-0.0040974984467029565
1772789889007939800,22.01493994140625,0.03036306262500584,-0.08282967437803745,-0.05991290917098522
1772789889027974700,22.034974609375,0.14001038210615516,-0.06745031893849372,-0.045132688668370245
1772789889048009700,22.055009765625,0.2188293595381081,-0.04035714482963085,-0.050938452337682245
1772789889068044500,22.07504443359375,0.2555950557470322,-0.05084463657438755,-0.03648234922289848
1772789889088079600,22.09507958984375,0.2157374579373747,-0.07087678625583649,0.008872457763552666
1772789889108114700,22.11511474609375,0.1479134103156626,-0.05362111555039882,0.03502309032529592
1772789889128149800,22.135149658203126,0.04540924058742821,-0.07452654093503952,0.04190320522785187
1772789889148183800,22.155183837890625,-0.056921837596222755,-0.10071078350543976,0.08749035966545343
1772789889168218600,22.175218505859377,-0.14485738374590873,-0.12790683346688747,0.0997132969006896
1772789889188253700,22.195253662109376,-0.1837490591328591,-0.1651584134966135,0.06126929221600294
1772789889208288800,22.215288818359376,-0.1774404605079442,-0.17379472441673277,-0.03429185344129801
1772789889228323600,22.235323486328124,-0.17459493488371372,-0.05281915151774883,-0.1990723735362291
1772789889248358700,22.255358642578123,-0.12301730785965918,-0.004222586131095886,-0.21531740589439868
1772789889268393700,22.275393798828127,-0.07362688868157566,-0.08517419167757034,0.0020744681864976883
1772789889288427500,22.295427490234374,0.015015782824158668,-0.045025136640667915,0.16343261261731384
1772789889308462600,22.315462646484374,0.10784326573386788,0.06881342398524284,0.18586305561214683
1772789889328497700,22.33549755859375,0.22682211185768245,0.1502694719225168,0.16544833635389805
1772789889348532700,22.35553271484375,0.3705067985624075,0.11002455529570579,0.17991817573308944
1772789889368567800,22.37556787109375,0.44488194832801814,0.03191255708932876,0.2112164003163576
1772789889388602600,22.3956025390625,0.39818800169229507,0.0006190086811780929,0.1673983013778925
1772789889408637700,22.4156376953125,0.2569622524470091,-0.06675181528031826,0.03333528336882591
1772789889428671500,22.43567138671875,0.050286418169736856,-0.19910043058693408,-0.13186959961801767
1772789889448706600,22.45570654296875,-0.14592837397828698,-0.24981881043314932,-0.2621133515998721
1772789889468741600,22.47574169921875,-0.3135994278829545,-0.16265490624308584,-0.31775369801819325
1772789889488776700,22.495776611328125,-0.3947141881018877,-0.0746925451517105,-0.17252865000367162
1772789889508811800,22.515811767578125,-0.3858937527865171,0.030773323926329612,0.16519611515849827
1772789889528846800,22.535846923828124,-0.29807686458043753,0.11622107184827327,0.4854691025212407
1772789889548881000,22.555880859375,-0.14046996244192123,0.1361181969732046,0.6341477981209754
1772789889568915700,22.575915771484375,0.08472717856243252,0.08521160107851028,0.5339072624757886
1772789889588950500,22.595950439453127,0.3039379386335611,-0.027397125491499898,0.20288287173509598
1772789889608985600,22.615985595703126,0.4174532586544752,-0.11445055504441261,-0.14714257207363843
1772789889629020700,22.636020751953126,0.38990474199354647,-0.14480711486339568,-0.3933803091496229
1772789889649055700,22.6560556640625,0.2567915720552206,-0.12316460737586021,-0.4459171365946531
1772789889669090800,22.6760908203125,0.06156308753080666,-0.10827508127987384,-0.28094197071045635
1772789889689124900,22.696124755859376,-0.12274828165993094,-0.060168345236778255,-0.027722704184055327
1772789889709159700,22.71615966796875,-0.24326507794074712,-0.01617722781896591,0.1943774937182665
1772789889729194800,22.73619482421875,-0.2939092965722084,-0.0019166472762823105,0.31630174564421176
1772789889749229600,22.7562294921875,-0.25071269053295253,-0.021540216156840323,0.3271770676627755
1772789889769264600,22.7762646484375,-0.15855448518693446,-0.07144961770772934,0.1971042883336544
1772789889789299700,22.7962998046875,-0.05411810528710484,-0.08191782023012638,-0.00821691646426916
1772789889809334800,22.816334716796874,0.04971190621741116,-0.06077332539260387,-0.19828882194310427
1772789889829368600,22.83636865234375,0.13141630289256573,-0.08441139061152934,-0.2755427420154214
1772789889849403600,22.856403564453124,0.16921265732347965,-0.17657529504597186,-0.26236498827338217
1772789889869438700,22.876438720703124,0.14165771092176438,-0.16295125884115694,-0.17848726614713667
1772789889889473800,22.896473876953124,0.06670841453000903,-0.03385726141631603,-0.04025456123799085
1772789889909508600,22.916508544921875,0.02598945065066218,0.02359656416475773,0.12707242846935987
1772789889929543700,22.936543701171875,0.022569120813161134,0.026963410249352452,0.2638037889048457
1772789889949578800,22.956578857421874,0.0076958882648497816,0.03543488599658012,0.3035705666258931
1772789889969612500,22.976612548828125,0.028921631645038724,-0.0020978490620851514,0.2341848957106471
1772789889989647600,22.996647705078125,0.06594356763735414,-0.07553308762907981,0.03504822476655245
1772789890009682700,23.0166826171875,0.08340133678615093,-0.11311959870159626,-0.14821896913349628
1772789890029717800,23.0367177734375,0.05098316826224327,-0.137020114248991,-0.24887597662508487
1772789890049752800,23.0567529296875,-0.006180076874420046,-0.1347013159126043,-0.2163943874761462
1772789890069787400,23.076787353515623,-0.07950959004461765,-0.08702303441464901,-0.05424976884275674
1772789890089821700,23.09682177734375,-0.13712415914535522,-0.018874796339869496,0.14531038821041584
1772789890109856500,23.1168564453125,-0.12671842739991843,0.011479425391554832,0.2826648489803076
1772789890129891600,23.1368916015625,-0.07940554514825343,0.01850304041802883,0.2881684148326516
1772789890149926700,23.1569267578125,0.005447597881406545,0.011145078870654105,0.1909165396094322
1772789890169961700,23.176961669921877,0.08551007256843149,-0.04788169511556625,0.048236499902606006
1772789890189996800,23.196996826171876,0.1488502527743578,-0.08488309977650642,-0.058334700068831444
1772789890210031600,23.217031494140624,0.13401143395230172,-0.09723346278369425,-0.13601327529400586
1772789890230065700,23.237065673828123,0.09032032239437103,-0.07689619267582892,-0.1610080158188939
1772789890250100700,23.257100830078127,0.03150339176654816,-0.09270809431374072,-0.11438187372237443
1772789890270135600,23.277135498046874,-0.03850479496121406,-0.06722703157663346,0.031207039168477058
1772789890290170600,23.297170654296874,-0.10760229658484459,-0.008045943811535835,0.1485971547961235
1772789890310205700,23.317205810546874,-0.10527231926731764,0.017891630521416662,0.20815029074400662
1772789890330240800,23.33724072265625,-0.0861993700068444,-0.009363456150889396,0.2208519514068961
1772789890350274600,23.357274658203124,-0.019419497675821185,-0.03409223921597004,0.14265665883123874
1772789890370309600,23.3773095703125,0.04439801771827042,-0.06226151812374591,0.019175240591168402
1772789890390344700,23.3973447265625,0.07134089663624762,-0.10586685109436511,-0.017961188626289367
1772789890410379800,23.4173798828125,0.05628317436650395,-0.08753098393678664,-0.002689677475392818
1772789890430414600,23.43741455078125,0.030861440601199865,-0.03755553141236305,-0.0013239420801401138
1772789890450449700,23.45744970703125,-0.005758271265774965,-0.04142272823452949,-0.011108546252548694
1772789890470484700,23.477484619140625,-0.017684855902940035,-0.06555120731890202,-0.0014504910692572594
1772789890490518500,23.4975185546875,-0.03130713854208588,-0.08281330776512623,0.04028992481231689
1772789890510553600,23.5175537109375,-0.02972469165623188,-0.07794950112104415,0.05257540588974952
1772789890530588700,23.537588623046876,-0.009624079848453402,-0.08248480646312237,0.0372723305568099
1772789890550623700,23.557623779296875,-0.006494622716307639,-0.059086395218968385,-0.047458501267433166
1772789890570658600,23.577658447265627,0.019797902534157037,-0.07047580423951148,-0.037594402118027205
1772789890590693600,23.597693603515626,0.011887860061973333,-0.07255670216679573,-0.01079202764928341
1772789890610727400,23.6177275390625,0.011099486163258551,-0.07078852345049381,0.02912234184890985
1772789890630762500,23.637762451171874,0.009225508984923362,-0.07282733580172061,0.051126376125216484
1772789890650797600,23.657797607421877,0.01809920885749161,-0.051664720785617825,0.05381225420832634
1772789890670832600,23.67783251953125,0.021475407292321322,-0.05357026214599609,0.03914075477719307
1772789890690867700,23.69786767578125,0.029586159968376158,-0.04984276605546474,0.009586451251804828
1772789890710902800,23.71790283203125,0.023819851526618002,-0.04292611853480339,-0.019098960484564304
1772789890730937600,23.7379375,0.05751359294429421,-0.05410334610939026,-0.02574526663124561
1772789890750971600,23.7579716796875,0.08074884951598942,-0.09429624028801918,-0.02201660149693489
1772789890771006500,23.77800634765625,0.09957396149523556,-0.06939502326548098,-0.05202011009454727
1772789890791041500,23.79804150390625,0.09107209060974418,-0.04123626575171947,-0.056854398383200166
1772789890811076600,23.81807666015625,0.07876198654770851,-0.025914777979254722,-0.020174188500642776
1772789890831111700,23.838111572265625,0.05622114198096096,-0.02276069786250591,0.02524725398123264
1772789890851146800,23.858146728515624,0.03342588426172733,-0.03453647585213184,0.04280015406757593
1772789890871180500,23.8781806640625,0.02702887670099735,-0.06209259129762649,0.061034606677293775
1772789890891215600,23.898215576171875,0.01567395447194576,-0.07821662762463093,0.04946604169756174
1772789890911250700,23.918250732421875,0.019751579174399375,-0.06180325296223163,0.045973231145739556
1772789890931285500,23.938285400390626,0.006052870298177003,-0.034441783306002616,0.019999416455626487
1772789890951320600,23.958320556640626,0.0011694821707904338,-0.03571837911307812,0.00041997897773981093
1772789890971355600,23.978355712890625,0.009347527929395437,-0.09704933838844298,-0.0280789702758193
1772789890991389400,23.998389404296876,0.0038532413620501753,-0.15739070210456846,-0.056118485324084755
1772789891011424000,24.018424072265624,-0.03476275888867676,-0.15023849226236344,-0.06249708044528961
1772789891031459000,24.038458984375,-0.05925057280473411,-0.08049860108196735,-0.036143326526880265
1772789891051494000,24.058493896484375,-0.0716607031751424,0.006439677658677101,0.0062570145681500435
1772789891071529000,24.078529052734375,-0.06404723249673842,-0.007234042906761169,0.056278352060914034
1772789891091564000,24.09856396484375,-0.03286182063817978,-0.0421282461553812,0.09967997915297747
1772789891111598800,24.118598876953126,-0.008324760752916336,-0.052422261154651636,0.07266542323827743
1772789891131633200,24.138633056640625,0.012039981883764267,-0.06918634895086288,0.0739107471242547
1772789891151668000,24.15866796875,0.0335107130009681,-0.07487140884995461,0.07582096465975045
1772789891171703000,24.178703125,0.03199322111010551,-0.09834814602732658,0.056223991525173184
1772789891191737900,24.19873779296875,0.02966974659860134,-0.0959071826159954,0.028464170201122758
1772789891211773000,24.21877294921875,0.004735869415476918,-0.06363689813017845,-0.02868716530203819
1772789891231808000,24.23880810546875,-0.0076114979170262805,-0.04447451702058315,-0.03562017943561077
