time,seconds_elapsed,z,y,x
1772789867043427300,0.05042724609375,-1.0057373046875,-0.1486358642578125,-0.0078125
1772789867063462100,0.070462158203125,-1.021697998046875,-0.13482666015625,-0.0255584716796875
1772789867083497200,0.090497314453125,-1.034271240234375,-0.15606689453125,-0.0328369140625
1772789867103532300,0.1105322265625,-1.076171875,-0.151031494140625,-0.04736328125
1772789867123567000,0.130567138671875,-1.0733795166015625,-0.078033447265625,-0.1070098876953125
1772789867143602200,0.150602294921875,-0.9995574951171875,-0.0944366455078125,-0.128387451171875
1772789867163637200,0.17063720703125,-1.0060577392578125,-0.08038330078125,-0.0872802734375
1772789867183672000,0.190672119140625,-1.0173187255859375,-0.0321807861328125,-0.092987060546875
1772789867203707100,0.21070703125,-1.02783203125,-0.04833984375,-0.1176910400390625
1772789867223742200,0.2307421875,-0.976409912109375,-0.0756072998046875,-0.06317138671875
1772789867243777300,0.25077734375,-0.9510345458984375,-0.21026611328125,-0.05267333984375
1772789867263812400,0.270812255859375,-0.82330322265625,-0.2668304443359375,0.0844879150390625
1772789867283847200,0.29084716796875,-0.862762451171875,-0.1568603515625,0.0925140380859375
1772789867303882200,0.31088232421875,-0.8081207275390625,-0.02325439453125,0.1012420654296875
1772789867323917000,0.3309169921875,-1.1367950439453125,-0.190399169921875,-0.1290283203125
1772789867343952100,0.3509521484375,-0.894134521484375,-0.050323486328125,-0.130615234375
1772789867363987200,0.3709873046875,-1.052093505859375,-0.103759765625,-0.14752197265625
1772789867384022300,0.391022216796875,-0.8781890869140625,-0.19305419921875,-0.204864501953125
1772789867404057300,0.411057373046875,-0.77886962890625,-0.279388427734375,-0.214630126953125
1772789867424092400,0.431092529296875,-0.868499755859375,-0.3061370849609375,-0.29266357421875
1772789867444127200,0.451127197265625,-0.938934326171875,-0.30914306640625,-0.4926300048828125
1772789867464162000,0.471162109375,-0.841583251953125,-0.2066802978515625,-0.594085693359375
1772789867484197000,0.491197021484375,-0.7152099609375,-0.1522979736328125,-0.637542724609375
1772789867504231200,0.511231201171875,-0.773651123046875,-0.1435699462890625,-0.368865966796875
1772789867524266200,0.531266357421875,-0.892547607421875,-0.298248291015625,-0.1392974853515625
1772789867544301300,0.55130126953125,-0.83416748046875,0.083282470703125,-0.40484619140625
1772789867564336400,0.57133642578125,-0.80792236328125,-0.0413970947265625,-0.5340423583984375
1772789867584371200,0.59137109375,-0.739776611328125,-0.11346435546875,-0.6448516845703125
1772789867604406000,0.611406005859375,-0.710784912109375,-0.0376434326171875,-0.620819091796875
1772789867624441000,0.631441162109375,-0.705169677734375,0.0009765625,-0.542388916015625
1772789867644476200,0.65147607421875,-0.8725433349609375,0.1111907958984375,-0.55364990234375
1772789867664511200,0.67151123046875,-0.8150787353515625,0.135589599609375,-0.65509033203125
1772789867684546300,0.69154638671875,-0.6551513671875,0.04345703125,-0.67059326171875
1772789867704581400,0.711581298828125,-0.4502716064453125,0.020782470703125,-0.7368011474609375
1772789867724616200,0.7316162109375,-0.37786865234375,0.08331298828125,-0.76837158203125
1772789867744651300,0.7516513671875,-0.3614349365234375,0.1046600341796875,-0.748016357421875
1772789867764686000,0.77168603515625,-0.6347503662109375,0.146240234375,-0.5577392578125
1772789867784721200,0.79172119140625,-0.672698974609375,0.28167724609375,-0.7373809814453125
1772789867804756200,0.811756103515625,-0.2992095947265625,0.2424774169921875,-0.8191680908203125
1772789867824791300,0.831791259765625,-0.1059722900390625,0.307525634765625,-0.8432464599609375
1772789867844826000,0.851826171875,-0.1743316650390625,0.436492919921875,-0.7538909912109375
1772789867864861200,0.871861083984375,-0.3048858642578125,0.539825439453125,-0.8466033935546875
1772789867884896300,0.891896240234375,-0.1728363037109375,0.4978179931640625,-0.9785308837890625
1772789867904931300,0.911931396484375,-0.02105712890625,0.540374755859375,-1.0165557861328125
1772789867924966100,0.931966064453125,0.0316925048828125,0.666046142578125,-1.0059814453125
1772789867945001200,0.952001220703125,-0.0580596923828125,0.6189422607421875,-1.124359130859375
1772789867965036000,0.9720361328125,0.0377197265625,0.5172271728515625,-1.1916961669921875
1772789867985071900,0.99207177734375,0.197967529296875,0.447113037109375,-1.2728271484375
1772789868005107000,1.01210693359375,0.104095458984375,0.4796600341796875,-1.275787353515625
1772789868025142000,1.03214208984375,-0.178253173828125,0.609619140625,-1.0687713623046875
1772789868045177000,1.052177001953125,-0.327056884765625,0.7148284912109375,-0.9158935546875
1772789868065211100,1.072211181640625,-0.2262420654296875,0.7239990234375,-0.764678955078125
1772789868085246000,1.092245849609375,-0.0282745361328125,0.644012451171875,-0.6923980712890625
1772789868105280800,1.11228076171875,0.00244140625,0.7082366943359375,-0.6611175537109375
1772789868125315800,1.13231591796875,-0.1163177490234375,0.830108642578125,-0.494110107421875
1772789868145351000,1.152350830078125,-0.0822296142578125,0.7045440673828125,-0.6819610595703125
1772789868165386000,1.172385986328125,-0.1752166748046875,0.728790283203125,-0.657135009765625
1772789868185421000,1.192421142578125,-0.1588134765625,0.658905029296875,-0.720123291015625
1772789868205456100,1.2124560546875,-0.19012451171875,0.660980224609375,-0.6779022216796875
1772789868225491000,1.232490966796875,-0.273223876953125,0.57916259765625,-0.825775146484375
1772789868245525800,1.25252587890625,-0.4195404052734375,0.66790771484375,-0.8461456298828125
1772789868265560800,1.272560791015625,-0.50970458984375,0.8297271728515625,-0.7435760498046875
1772789868285596000,1.292595947265625,-0.3908233642578125,0.801055908203125,-0.7263336181640625
1772789868305631000,1.312630859375,-0.0916900634765625,0.65484619140625,-0.6023406982421875
1772789868325666000,1.332666015625,0.05572509765625,0.4786834716796875,-0.71527099609375
1772789868345700900,1.352700927734375,-0.166259765625,0.4683837890625,-0.8480072021484375
1772789868365736000,1.37273583984375,-0.29815673828125,0.6551666259765625,-0.897369384765625
1772789868385771000,1.39277099609375,-0.241729736328125,0.6997222900390625,-0.929595947265625
1772789868405806000,1.41280615234375,-0.1165008544921875,0.55828857421875,-0.9449310302734375
1772789868425841000,1.4328408203125,-0.3209228515625,0.5268707275390625,-1.00439453125
1772789868445876000,1.4528759765625,-0.4839630126953125,0.6091766357421875,-0.9093017578125
1772789868465910800,1.472910888671875,-0.7263336181640625,0.6765289306640625,-0.8312225341796875
1772789868485945900,1.49294580078125,-0.5997772216796875,0.609100341796875,-0.8280792236328125
1772789868505981000,1.51298095703125,-0.372467041015625,0.473358154296875,-0.68603515625
1772789868526015000,1.533014892578125,-0.319549560546875,0.3984375,-0.4707794189453125
1772789868546050000,1.553050048828125,-0.341094970703125,0.3450164794921875,-0.30303955078125
1772789868566084900,1.5730849609375,-0.3821258544921875,0.294921875,-0.154754638671875
1772789868586120000,1.593119873046875,-0.213470458984375,0.40582275390625,-0.5536346435546875
1772789868606155000,1.613155029296875,-0.259552001953125,0.2584381103515625,-0.6572113037109375
1772789868626189800,1.63318994140625,-0.6484375,0.5786285400390625,-0.5555877685546875
1772789868646225000,1.653224853515625,-0.8739776611328125,0.772613525390625,-0.677520751953125
1772789868666260000,1.673260009765625,-0.6630401611328125,0.63055419921875,-0.9218292236328125
1772789868686295000,1.693294921875,-0.60955810546875,0.5572052001953125,-0.8905792236328125
1772789868706330000,1.713330078125,-0.5001220703125,0.523162841796875,-0.613128662109375
1772789868726365000,1.733364990234375,-0.5961456298828125,0.4285888671875,-0.4810333251953125
1772789868746400000,1.75339990234375,-0.6690826416015625,0.425872802734375,-0.63397216796875
1772789868766434800,1.773434814453125,-0.649810791015625,0.5745697021484375,-0.6036834716796875
1772789868786470000,1.793469970703125,-0.514312744140625,0.512420654296875,-0.6244049072265625
1772789868806505000,1.8135048828125,-0.5859527587890625,0.37939453125,-0.7255859375
1772789868826540000,1.8335400390625,-0.5992889404296875,0.526275634765625,-0.5595245361328125
1772789868846575000,1.8535751953125,-0.5672454833984375,0.5058135986328125,-0.509674072265625
1772789868866610200,1.873610107421875,-0.4530029296875,0.472930908203125,-0.5347900390625
1772789868886644700,1.893644775390625,-0.3546905517578125,0.5139007568359375,-0.6041259765625
1772789868906679800,1.9136796875,-0.55462646484375,0.554443359375,-0.6888427734375
1772789868926713900,1.9337138671875,-0.4998931884765625,0.5094757080078125,-0.5405426025390625
1772789868946749000,1.9537490234375,-0.3077239990234375,0.4468536376953125,-0.5029144287109375
1772789868966784000,1.973783935546875,-0.290985107421875,0.5008087158203125,-0.4171295166015625
1772789868986818600,1.993818603515625,-0.246063232421875,0.5809326171875,-0.369659423828125
1772789869006853600,2.013853515625,-0.2633819580078125,0.756561279296875,-0.4465789794921875
1772789869026888700,2.033888671875,-0.192352294921875,0.858001708984375,-0.453765869140625
1772789869046923500,2.053923583984375,-0.265533447265625,0.9280853271484375,-0.5169830322265625
1772789869066958600,2.07395849609375,-0.1617431640625,0.9084930419921875,-0.5050048828125
1772789869086993700,2.09399365234375,-0.13092041015625,0.9330291748046875,-0.421051025390625
1772789869107028500,2.114028564453125,-0.0594940185546875,0.9423675537109375,-0.35687255859375
1772789869127063600,2.1340634765625,0.0610504150390625,0.994659423828125,-0.3149871826171875
1772789869147098600,2.1540986328125,-0.060791015625,1.1202239990234375,-0.3237152099609375
1772789869167133700,2.1741337890625,0.0352325439453125,1.1351470947265625,-0.480499267578125
1772789869187168500,2.19416845703125,-0.1821746826171875,0.9638671875,-0.7952728271484375
1772789869207203600,2.21420361328125,-0.0872039794921875,0.980010986328125,-0.95123291015625
1772789869227238700,2.23423876953125,-0.0803985595703125,1.0593109130859375,-1.1377716064453125
1772789869247273700,2.254273681640625,-0.15557861328125,1.0778350830078125,-1.1280670166015625
1772789869267308500,2.27430859375,-0.1450042724609375,1.1002960205078125,-1.101043701171875
1772789869287343600,2.294343505859375,-0.0505523681640625,1.144989013671875,-1.0429229736328125
1772789869307377700,2.314377685546875,0.0750732421875,1.07318115234375,-0.9410247802734375
1772789869327412500,2.33441259765625,0.1257476806640625,0.876190185546875,-0.836639404296875
1772789869347447600,2.354447509765625,0.1820831298828125,0.716278076171875,-0.6905059814453125
1772789869367482600,2.374482666015625,0.1512298583984375,0.695037841796875,-0.42474365234375
1772789869387517700,2.394517578125,0.264373779296875,0.737060546875,-0.1085662841796875
1772789869407552500,2.414552490234375,0.3644256591796875,0.801116943359375,-0.038726806640625
1772789869427587600,2.434587646484375,0.2961883544921875,0.623809814453125,0.123992919921875
1772789869447622700,2.45462255859375,0.1969757080078125,0.4825286865234375,-0.058319091796875
1772789869467657500,2.474657470703125,0.2958526611328125,0.545196533203125,-0.216156005859375
1772789869487692500,2.494692626953125,0.1567535400390625,0.881317138671875,-0.1555023193359375
1772789869507727600,2.5147275390625,0.2580413818359375,1.3622283935546875,-0.0200958251953125
1772789869527762700,2.5347626953125,0.0283355712890625,1.144439697265625,0.0718841552734375
1772789869547797800,2.5547978515625,0.00177001953125,0.87335205078125,-0.07659912109375
1772789869567832600,2.57483251953125,0.0702056884765625,0.72259521484375,-0.171966552734375
1772789869587867400,2.594867431640625,0.2054595947265625,0.749847412109375,-0.31982421875
1772789869607902500,2.61490234375,0.2873992919921875,1.0359954833984375,-0.4073333740234375
1772789869627936500,2.6349365234375,0.285064697265625,1.273162841796875,-0.436370849609375
1772789869647971600,2.6549716796875,0.3486328125,1.173675537109375,-0.46514892578125
1772789869668006700,2.675006591796875,0.22344970703125,0.8912811279296875,-0.3984375
1772789869688041700,2.695041748046875,0.25299072265625,1.01068115234375,-0.5428314208984375
1772789869708076500,2.71507666015625,0.172210693359375,0.9310302734375,-0.58978271484375
1772789869728111600,2.735111572265625,0.2971343994140625,0.8065338134765625,-0.7280731201171875
1772789869748146400,2.755146484375,0.3158416748046875,0.8052520751953125,-0.70794677734375
1772789869768181500,2.775181396484375,0.3187103271484375,0.8529205322265625,-0.5055694580078125
1772789869788216600,2.795216552734375,0.2553253173828125,0.8500518798828125,-0.38623046875
1772789869808251600,2.815251708984375,0.1665802001953125,0.837310791015625,-0.3193206787109375
1772789869828286700,2.83528662109375,0.1924591064453125,0.90899658203125,-0.2438812255859375
1772789869848321800,2.85532177734375,0.3458251953125,1.0093231201171875,-0.28033447265625
1772789869868356400,2.8753564453125,0.4641876220703125,1.05523681640625,-0.2627105712890625
1772789869888391400,2.895391357421875,0.441131591796875,0.985809326171875,-0.225311279296875
1772789869908426500,2.915426513671875,0.45806884765625,0.96258544921875,-0.23638916015625
1772789869928461600,2.935461669921875,0.4853363037109375,1.228515625,-0.2502288818359375
1772789869948496600,2.95549658203125,0.281768798828125,0.9809417724609375,-0.1587677001953125
1772789869968531700,2.97553173828125,0.2330169677734375,0.945159912109375,-0.258697509765625
1772789869988565800,2.995565673828125,0.3027191162109375,0.9150390625,-0.234283447265625
1772789870008600800,3.015600830078125,0.40771484375,0.917388916015625,-0.1659088134765625
1772789870028635600,3.0356357421875,0.4425048828125,0.926239013671875,-0.1303253173828125
1772789870048670700,3.055670654296875,0.4118804931640625,0.8981781005859375,-0.19696044921875
1772789870068705800,3.075705810546875,0.28863525390625,0.9141693115234375,-0.2216339111328125
1772789870088740600,3.09574072265625,0.271209716796875,0.9902801513671875,-0.2342681884765625
1772789870108775700,3.115775634765625,0.2687530517578125,0.9684600830078125,-0.139129638671875
1772789870128810800,3.135810791015625,0.2234344482421875,0.8662872314453125,-0.1504669189453125
1772789870148845600,3.155845458984375,0.2254180908203125,0.83837890625,-0.1817474365234375
1772789870168880600,3.175880615234375,0.2470245361328125,0.8458709716796875,-0.1645660400390625
1772789870188915700,3.195915771484375,0.3298797607421875,0.9206390380859375,-0.1269073486328125
1772789870208950800,3.21595068359375,0.405059814453125,1.054718017578125,-0.1166229248046875
1772789870228985900,3.23598583984375,0.3459320068359375,1.0856170654296875,-0.1600189208984375
1772789870249021000,3.25602099609375,0.2668914794921875,1.0259857177734375,-0.2190399169921875
1772789870269055500,3.276055419921875,0.2077178955078125,0.9594268798828125,-0.1809844970703125
1772789870289090600,3.296090576171875,0.1921844482421875,0.951507568359375,-0.13958740234375
1772789870309124600,3.31612451171875,0.1972198486328125,0.9224395751953125,-0.1336669921875
1772789870329159700,3.33615966796875,0.26556396484375,0.9272918701171875,-0.1620635986328125
1772789870349194800,3.35619482421875,0.245849609375,0.8530120849609375,-0.175567626953125
1772789870369229800,3.376229736328125,0.26043701171875,0.8934173583984375,-0.1772308349609375
1772789870389265000,3.396264892578125,0.2931365966796875,0.9596099853515625,-0.153900146484375
1772789870409299700,3.4162998046875,0.3136444091796875,1.0677947998046875,-0.1446075439453125
1772789870429334500,3.43633447265625,0.296417236328125,1.0556640625,-0.176361083984375
1772789870449369600,3.45636962890625,0.279754638671875,0.9305572509765625,-0.16375732421875
1772789870469404700,3.47640478515625,0.310089111328125,0.9470367431640625,-0.1585540771484375
1772789870489439700,3.496439697265625,0.3170013427734375,0.953277587890625,-0.121978759765625
1772789870509474800,3.516474853515625,0.2976226806640625,0.91448974609375,-0.1336822509765625
1772789870529510000,3.536510009765625,0.2720184326171875,0.9056396484375,-0.16571044921875
1772789870549544700,3.556544677734375,0.2515869140625,0.9219512939453125,-0.1547698974609375
1772789870569579500,3.57657958984375,0.2248382568359375,0.939453125,-0.1586456298828125
1772789870589614600,3.596614501953125,0.2153472900390625,0.942901611328125,-0.185760498046875
1772789870609648600,3.616648681640625,0.2167205810546875,0.9363555908203125,-0.1812744140625
1772789870629683700,3.63668359375,0.244171142578125,0.974456787109375,-0.1666717529296875
1772789870649718800,3.65671875,0.2522125244140625,0.9986572265625,-0.1306610107421875
1772789870669753900,3.67675390625,0.2420501708984375,0.980621337890625,-0.118896484375
1772789870689789000,3.696788818359375,0.2495269775390625,0.9548187255859375,-0.1169586181640625
1772789870709823500,3.716823486328125,0.25640869140625,0.9402313232421875,-0.1475677490234375
1772789870729858600,3.736858642578125,0.249481201171875,0.9116668701171875,-0.1750640869140625
1772789870749893600,3.7568935546875,0.244476318359375,0.907867431640625,-0.1852569580078125
1772789870769928700,3.7769287109375,0.241790771484375,0.9218292236328125,-0.164306640625
1772789870789963800,3.7969638671875,0.26495361328125,0.9484405517578125,-0.1422882080078125
1772789870809998800,3.816998779296875,0.2516937255859375,0.9584503173828125,-0.151214599609375
1772789870830033700,3.83703369140625,0.230010986328125,0.959625244140625,-0.1581268310546875
1772789870850068700,3.85706884765625,0.2213287353515625,0.9458160400390625,-0.1489410400390625
1772789870870103600,3.877103515625,0.247344970703125,0.93865966796875,-0.1355438232421875
1772789870890138600,3.897138671875,0.2347869873046875,0.91412353515625,-0.1402740478515625
1772789870910172700,3.917172607421875,0.2621002197265625,0.923065185546875,-0.1397552490234375
1772789870930207700,3.937207763671875,0.217559814453125,0.8930511474609375,-0.1436004638671875
1772789870950242800,3.957242919921875,0.2592926025390625,0.9568328857421875,-0.145782470703125
1772789870970278000,3.97727783203125,0.2844085693359375,1.0590972900390625,-0.1657562255859375
1772789870990312700,3.997312744140625,0.24359130859375,1.00347900390625,-0.1272735595703125
1772789871010347500,4.017347412109375,0.216644287109375,0.9524993896484375,-0.12359619140625
1772789871030382600,4.037382568359375,0.22393798828125,0.9739227294921875,-0.1380615234375
1772789871050417700,4.057417724609375,0.2423248291015625,0.9449005126953125,-0.147003173828125
1772789871070452700,4.07745263671875,0.247711181640625,0.9223175048828125,-0.14996337890625
1772789871090487800,4.09748779296875,0.259613037109375,0.9452056884765625,-0.1554107666015625
1772789871110522600,4.117522705078125,0.2471466064453125,0.949615478515625,-0.144287109375
1772789871130557400,4.137557373046875,0.2406768798828125,0.9729156494140625,-0.121734619140625
1772789871150592500,4.157592529296875,0.2483062744140625,0.968475341796875,-0.1134796142578125
1772789871170627600,4.177627685546875,0.2598724365234375,0.975860595703125,-0.1339111328125
1772789871190661600,4.19766162109375,0.2464141845703125,0.946868896484375,-0.1531829833984375
1772789871210696700,4.21769677734375,0.232391357421875,0.955657958984375,-0.1623992919921875
1772789871230731800,4.237731689453125,0.217926025390625,0.9781646728515625,-0.134490966796875
1772789871250766600,4.2577666015625,0.2191314697265625,0.9696044921875,-0.1426544189453125
1772789871270801700,4.2778017578125,0.2176513671875,0.9449462890625,-0.169921875
1772789871290836500,4.29783642578125,0.2263641357421875,0.941986083984375,-0.1637725830078125
1772789871310871600,4.31787158203125,0.2336578369140625,0.9445343017578125,-0.146453857421875
1772789871330906600,4.33790673828125,0.2237396240234375,0.9516143798828125,-0.1350250244140625
1772789871350941700,4.357941650390625,0.2245635986328125,0.955780029296875,-0.128204345703125
1772789871370976800,4.377976806640625,0.2205810546875,0.943084716796875,-0.1197967529296875
1772789871391011800,4.39801171875,0.2462921142578125,0.9355010986328125,-0.1274261474609375
1772789871411046400,4.41804638671875,0.2500152587890625,0.9441986083984375,-0.1388702392578125
1772789871431081500,4.43808154296875,0.239776611328125,0.9642333984375,-0.1345672607421875
1772789871451116500,4.458116455078125,0.2489776611328125,0.985992431640625,-0.1373138427734375
1772789871471151600,4.478151611328125,0.2485504150390625,0.9676361083984375,-0.1397552490234375
1772789871491185700,4.498185546875,0.24957275390625,0.9459075927734375,-0.1424713134765625
1772789871511220700,4.518220703125,0.2536468505859375,0.9319305419921875,-0.1352691650390625
1772789871531255800,4.538255859375,0.23382568359375,0.8743896484375,-0.160614013671875
1772789871551290600,4.55829052734375,0.1948699951171875,0.8252410888671875,-0.180023193359375
1772789871571325400,4.578325439453125,0.2223968505859375,0.8780364990234375,-0.1778717041015625
1772789871591360500,4.598360595703125,0.2562408447265625,0.97698974609375,-0.143096923828125
1772789871611395600,4.6183955078125,0.2889556884765625,1.059814453125,-0.1256103515625
1772789871631430700,4.6384306640625,0.277923583984375,1.0949249267578125,-0.119537353515625
1772789871651465700,4.6584658203125,0.2191009521484375,0.9892120361328125,-0.1133575439453125
1772789871671500800,4.678500732421875,0.2477569580078125,0.957183837890625,-0.0907440185546875
1772789871691535600,4.69853564453125,0.288787841796875,0.947021484375,-0.10687255859375
1772789871711570700,4.71857080078125,0.2746429443359375,0.9181671142578125,-0.11688232421875
1772789871731605500,4.73860546875,0.261962890625,0.94097900390625,-0.151580810546875
1772789871751640600,4.758640625,0.255767822265625,0.95819091796875,-0.164093017578125
1772789871771674600,4.778674560546875,0.2593841552734375,0.94384765625,-0.1530609130859375
1772789871791709700,4.798709716796875,0.2693634033203125,0.9525909423828125,-0.133514404296875
1772789871811744800,4.818744873046875,0.2819061279296875,0.9506072998046875,-0.12890625
1772789871831779800,4.83877978515625,0.2720184326171875,0.9657745361328125,-0.14825439453125
1772789871851814400,4.858814453125,0.25238037109375,0.95465087890625,-0.1542205810546875
1772789871871849500,4.878849365234375,0.2474212646484375,0.94647216796875,-0.1505584716796875
1772789871891884500,4.898884521484375,0.2641754150390625,0.95892333984375,-0.14739990234375
1772789871911919600,4.918919677734375,0.24737548828125,0.95941162109375,-0.1477508544921875
1772789871931954700,4.93895458984375,0.242706298828125,0.94659423828125,-0.1385955810546875
1772789871951989800,4.95898974609375,0.233001708984375,0.933013916015625,-0.1479034423828125
1772789871972024600,4.979024658203125,0.23858642578125,0.93768310546875,-0.1489715576171875
1772789871992059400,4.999059326171875,0.2370758056640625,0.94482421875,-0.141448974609375
1772789872012094500,5.019094482421875,0.2385101318359375,0.9535369873046875,-0.1317596435546875
1772789872032129500,5.039129638671875,0.2401275634765625,0.96221923828125,-0.1329345703125
1772789872052163600,5.05916357421875,0.24755859375,0.9623260498046875,-0.14874267578125
1772789872072198700,5.07919873046875,0.2390594482421875,0.959564208984375,-0.1539764404296875
1772789872092233700,5.099233642578125,0.2369232177734375,0.95501708984375,-0.1445770263671875
1772789872112268800,5.119268798828125,0.2432098388671875,0.958953857421875,-0.12890625
1772789872132303400,5.139303466796875,0.255157470703125,0.970428466796875,-0.1073150634765625
1772789872152338400,5.15933837890625,0.2611083984375,0.9799652099609375,-0.102996826171875
1772789872172373500,5.17937353515625,0.2620086669921875,0.968719482421875,-0.1126861572265625
1772789872192408600,5.19940869140625,0.2541656494140625,0.9530029296875,-0.1220550537109375
1772789872212443600,5.219443603515625,0.2371826171875,0.9564208984375,-0.11834716796875
1772789872232478700,5.239478759765625,0.2332916259765625,0.9654541015625,-0.118255615234375
1772789872252513500,5.259513427734375,0.22137451171875,0.9569854736328125,-0.1201171875
1772789872272548600,5.279548583984375,0.213409423828125,0.928619384765625,-0.1213836669921875
1772789872292583400,5.29958349609375,0.2039794921875,0.91607666015625,-0.1088714599609375
1772789872312617500,5.319617431640625,0.18017578125,0.9195709228515625,-0.104278564453125
1772789872332652500,5.339652587890625,0.1782379150390625,0.942626953125,-0.1069488525390625
1772789872352687600,5.3596875,0.1832427978515625,0.9558258056640625,-0.10809326171875
1772789872372722700,5.37972265625,0.1799774169921875,0.96942138671875,-0.1216888427734375
1772789872392757800,5.3997578125,0.17724609375,0.978424072265625,-0.138702392578125
1772789872412792600,5.41979248046875,0.1792144775390625,0.986175537109375,-0.141998291015625
1772789872432827400,5.439827392578125,0.1764678955078125,0.9793243408203125,-0.136444091796875
1772789872452862500,5.459862548828125,0.166900634765625,0.964813232421875,-0.1331939697265625
1772789872472897500,5.4798974609375,0.151458740234375,0.9424285888671875,-0.1350860595703125
1772789872492932600,5.4999326171875,0.139007568359375,0.9307098388671875,-0.143798828125
1772789872512967700,5.5199677734375,0.1225433349609375,0.923126220703125,-0.165924072265625
1772789872533002500,5.54000244140625,0.1047515869140625,0.9388580322265625,-0.17657470703125
1772789872553037600,5.56003759765625,0.0809783935546875,0.9485626220703125,-0.1829071044921875
1772789872573071400,5.5800712890625,0.0478363037109375,0.9593658447265625,-0.1853179931640625
1772789872593106400,5.6001064453125,0.0223541259765625,0.96990966796875,-0.18841552734375
1772789872613141500,5.6201416015625,-0.0074310302734375,0.9664154052734375,-0.2059478759765625
1772789872633176600,5.640176513671875,-0.0434112548828125,0.9551544189453125,-0.23193359375
1772789872653211600,5.660211669921875,-0.1789398193359375,0.9526824951171875,-0.2955322265625
1772789872673246700,5.680246826171875,-0.14300537109375,1.0212554931640625,-0.265045166015625
1772789872693281500,5.700281494140625,-0.115264892578125,1.0677490234375,-0.224273681640625
1772789872713316600,5.720316650390625,-0.0042877197265625,1.09002685546875,-0.185211181640625
1772789872733351400,5.740351318359375,0.3112030029296875,1.096160888671875,-0.1995697021484375
1772789872753386500,5.760386474609375,0.4821624755859375,1.0188140869140625,-0.298858642578125
1772789872773421600,5.780421630859375,0.2790985107421875,0.9786529541015625,-0.341552734375
1772789872793456600,5.80045654296875,-0.007781982421875,0.9866485595703125,-0.279815673828125
1772789872813491500,5.820491455078125,-0.167266845703125,0.9892425537109375,-0.237701416015625
1772789872833525800,5.84052587890625,-0.1405181884765625,0.971282958984375,-0.2698211669921875
1772789872853560600,5.860560546875,-0.1453094482421875,0.92431640625,-0.31378173828125
1772789872873595400,5.880595458984375,-0.1616058349609375,0.92291259765625,-0.3535614013671875
1772789872893630500,5.90063037109375,-0.1905517578125,0.9351348876953125,-0.3600616455078125
1772789872913665500,5.92066552734375,-0.1923828125,0.9449615478515625,-0.335418701171875
1772789872933700600,5.94070068359375,-0.17218017578125,0.9423828125,-0.3165130615234375
1772789872953735700,5.960735595703125,-0.1445159912109375,0.919952392578125,-0.30963134765625
1772789872973770500,5.9807705078125,-0.1063995361328125,0.9165802001953125,-0.321319580078125
1772789872993805300,6.000805419921875,-0.076171875,0.9373779296875,-0.3240203857421875
1772789873013840400,6.02084033203125,-0.0630950927734375,0.955474853515625,-0.313446044921875
1772789873033875200,6.040875244140625,-0.0553131103515625,0.9609527587890625,-0.298919677734375
1772789873053910300,6.06091015625,-0.0431976318359375,0.9602508544921875,-0.2892608642578125
1772789873073945300,6.0809453125,-0.024658203125,0.9585113525390625,-0.2828826904296875
1772789873093979400,6.1009794921875,-0.0087738037109375,0.9623565673828125,-0.2765960693359375
1772789873114014500,6.121014404296875,-0.0121307373046875,0.9647979736328125,-0.2727508544921875
1772789873134049500,6.141049560546875,-0.0396881103515625,0.9657745361328125,-0.270599365234375
1772789873154084400,6.16108447265625,-0.075225830078125,0.9638671875,-0.273712158203125
1772789873174119200,6.181119140625,-0.1010589599609375,0.9655914306640625,-0.2829132080078125
1772789873194154200,6.201154296875,-0.10943603515625,0.954803466796875,-0.2961578369140625
1772789873214189300,6.221189208984375,-0.110382080078125,0.93487548828125,-0.3072967529296875
1772789873234224400,6.241224365234375,-0.107818603515625,0.9072418212890625,-0.3158111572265625
1772789873254259500,6.261259521484375,-0.10980224609375,0.891448974609375,-0.3263397216796875
1772789873274294300,6.281294189453125,-0.1143798828125,0.9077606201171875,-0.3334503173828125
1772789873294329300,6.301329345703125,-0.112701416015625,0.9456024169921875,-0.333892822265625
1772789873314364400,6.321364501953125,-0.0981903076171875,0.961456298828125,-0.326568603515625
1772789873334399200,6.341399169921875,-0.0820770263671875,0.949310302734375,-0.3145599365234375
1772789873354433300,6.361433349609375,-0.0655670166015625,0.9305267333984375,-0.299560546875
1772789873374468400,6.38146826171875,-0.0570220947265625,0.9317474365234375,-0.289459228515625
1772789873394503400,6.40150341796875,-0.052215576171875,0.9467315673828125,-0.2833404541015625
1772789873414538500,6.42153857421875,-0.04925537109375,0.9652099609375,-0.2748870849609375
1772789873434573300,6.4415732421875,-0.0487213134765625,0.97027587890625,-0.2692108154296875
1772789873454608400,6.4616083984375,-0.050140380859375,0.9643096923828125,-0.271148681640625
1772789873474643200,6.481643310546875,-0.055999755859375,0.9487152099609375,-0.278228759765625
1772789873494678300,6.50167822265625,-0.063262939453125,0.9340972900390625,-0.2870635986328125
1772789873514713300,6.52171337890625,-0.0728302001953125,0.93438720703125,-0.2937774658203125
1772789873534748400,6.54174853515625,-0.081298828125,0.9398193359375,-0.296051025390625
1772789873554783200,6.561783203125,-0.0946197509765625,0.93804931640625,-0.3011016845703125
1772789873574818300,6.581818359375,-0.105072021484375,0.9307098388671875,-0.3101654052734375
1772789873594852400,6.601852294921875,-0.108917236328125,0.924041748046875,-0.297119140625
1772789873614887200,6.62188720703125,-0.1071929931640625,0.9234466552734375,-0.27288818359375
1772789873634922200,6.641922119140625,-0.1039581298828125,0.9350738525390625,-0.264617919921875
1772789873654957300,6.661957275390625,-0.0982208251953125,0.9577789306640625,-0.2731475830078125
1772789873674992400,6.681992431640625,-0.0889129638671875,0.981658935546875,-0.2901763916015625
1772789873695027500,6.70202734375,-0.0771484375,0.983184814453125,-0.2884979248046875
1772789873715062300,6.722062255859375,-0.0644683837890625,0.9475555419921875,-0.2704620361328125
1772789873735097300,6.742097412109375,-0.0621795654296875,0.9387359619140625,-0.2592315673828125
1772789873755132400,6.76213232421875,-0.0690155029296875,0.95989990234375,-0.266876220703125
1772789873775167200,6.782167236328125,-0.0742645263671875,0.9731292724609375,-0.27911376953125
1772789873795202300,6.802202392578125,-0.073028564453125,0.959381103515625,-0.2959136962890625
1772789873815237400,6.8222373046875,-0.0745086669921875,0.93896484375,-0.307281494140625
1772789873835271400,6.842271484375,-0.0804901123046875,0.9324951171875,-0.3083648681640625
1772789873855306500,6.862306396484375,-0.087615966796875,0.9316864013671875,-0.3089447021484375
1772789873875341300,6.88234130859375,-0.0942840576171875,0.9346160888671875,-0.3134765625
1772789873895376400,6.90237646484375,-0.094757080078125,0.9377288818359375,-0.3136749267578125
1772789873915411200,6.9224111328125,-0.0914764404296875,0.943328857421875,-0.31060791015625
1772789873935446300,6.9424462890625,-0.0849456787109375,0.940338134765625,-0.303497314453125
1772789873955481300,6.9624814453125,-0.0792083740234375,0.9398193359375,-0.2984619140625
1772789873975516400,6.982516357421875,-0.0753021240234375,0.943450927734375,-0.2995758056640625
1772789873995551200,7.00255126953125,-0.073394775390625,0.948944091796875,-0.3025054931640625
1772789874015586000,7.0225859375,-0.0716552734375,0.9525299072265625,-0.303009033203125
1772789874035621000,7.04262109375,-0.0692901611328125,0.94769287109375,-0.2974090576171875
1772789874055656200,7.06265625,-0.0682373046875,0.9411773681640625,-0.2926788330078125
1772789874075690200,7.082690185546875,-0.0755157470703125,0.9406280517578125,-0.295013427734375
1772789874095725300,7.102725341796875,-0.0802764892578125,0.943328857421875,-0.2971649169921875
1772789874115760400,7.122760498046875,-0.0850830078125,0.946624755859375,-0.2959136962890625
1772789874135795500,7.14279541015625,-0.088348388671875,0.9534454345703125,-0.2990570068359375
1772789874155830300,7.162830322265625,-0.088714599609375,0.9442901611328125,-0.30303955078125
1772789874175865000,7.182864990234375,-0.0839691162109375,0.93511962890625,-0.2989349365234375
1772789874195900200,7.202900146484375,-0.0798492431640625,0.9395599365234375,-0.29168701171875
1772789874215935200,7.222935302734375,-0.0765380859375,0.9451751708984375,-0.2910003662109375
1772789874235970300,7.24297021484375,-0.0727386474609375,0.947723388671875,-0.2929534912109375
1772789874256005400,7.26300537109375,-0.072723388671875,0.9487152099609375,-0.2944793701171875
1772789874276040200,7.283040283203125,-0.071868896484375,0.9488525390625,-0.294036865234375
1772789874296075300,7.3030751953125,-0.07330322265625,0.949920654296875,-0.2957916259765625
1772789874316109000,7.323109130859375,-0.07525634765625,0.9514923095703125,-0.3004150390625
1772789874336144100,7.34314404296875,-0.0759124755859375,0.9486846923828125,-0.299774169921875
1772789874356179200,7.36317919921875,-0.077606201171875,0.942840576171875,-0.3001861572265625
1772789874376214300,7.38321435546875,-0.077972412109375,0.9427337646484375,-0.30291748046875
1772789874396249300,7.403249267578125,-0.080902099609375,0.94390869140625,-0.3059539794921875
1772789874416284400,7.423284423828125,-0.080230712890625,0.9413299560546875,-0.3048858642578125
1772789874436319200,7.4433193359375,-0.08135986328125,0.9367218017578125,-0.29754638671875
1772789874456354000,7.46335400390625,-0.0808868408203125,0.938812255859375,-0.2969970703125
1772789874476389000,7.48338916015625,-0.0801849365234375,0.94329833984375,-0.3015594482421875
1772789874496424200,7.503424072265625,-0.0784912109375,0.9423828125,-0.301544189453125
1772789874516459300,7.523459228515625,-0.07513427734375,0.9435577392578125,-0.2964019775390625
1772789874536494300,7.543494384765625,-0.073089599609375,0.9462432861328125,-0.2983245849609375
1772789874556528400,7.5635283203125,-0.07220458984375,0.9480438232421875,-0.302001953125
1772789874576563500,7.5835634765625,-0.069671630859375,0.945220947265625,-0.3022308349609375
1772789874596598300,7.603598388671875,-0.067901611328125,0.941558837890625,-0.3032073974609375
1772789874616633000,7.623633056640625,-0.0699462890625,0.941680908203125,-0.3055572509765625
1772789874636668200,7.643668212890625,-0.074005126953125,0.9435882568359375,-0.3063201904296875
1772789874656703200,7.663703125,-0.076202392578125,0.94476318359375,-0.303436279296875
1772789874676738300,7.68373828125,-0.079376220703125,0.9453277587890625,-0.297637939453125
1772789874696773400,7.7037734375,-0.0809326171875,0.945220947265625,-0.2925262451171875
1772789874716808200,7.72380810546875,-0.080322265625,0.9436492919921875,-0.288665771484375
1772789874736843300,7.74384326171875,-0.077880859375,0.941162109375,-0.2896575927734375
1772789874756878000,7.763878173828125,-0.075225830078125,0.939483642578125,-0.2979736328125
1772789874776913200,7.7839130859375,-0.074462890625,0.9400482177734375,-0.3067626953125
1772789874796947200,7.803947265625,-0.072906494140625,0.9402313232421875,-0.313232421875
1772789874816982300,7.823982177734375,-0.0729522705078125,0.939697265625,-0.3115692138671875
1772789874837017300,7.844017333984375,-0.0742340087890625,0.94189453125,-0.308807373046875
1772789874857052400,7.864052490234375,-0.0752410888671875,0.9420166015625,-0.307586669921875
1772789874877087200,7.884087158203125,-0.074737548828125,0.941497802734375,-0.3077239990234375
1772789874897122000,7.9041220703125,-0.0756072998046875,0.943695068359375,-0.3062744140625
1772789874917157000,7.9241572265625,-0.0742340087890625,0.9447021484375,-0.305511474609375
1772789874937192200,7.944192138671875,-0.0743865966796875,0.9434814453125,-0.3050384521484375
1772789874957227300,7.964227294921875,-0.0719146728515625,0.9404449462890625,-0.302154541015625
1772789874977262300,7.984262451171875,-0.0720367431640625,0.940338134765625,-0.302093505859375
1772789874997297000,8.004296875,-0.074188232421875,0.945526123046875,-0.30438232421875
1772789875017331000,8.0243310546875,-0.0747833251953125,0.9440460205078125,-0.29742431640625
1772789875037366000,8.044365966796875,-0.0749053955078125,0.9447021484375,-0.290496826171875
1772789875057400800,8.06440087890625,-0.0738372802734375,0.9459381103515625,-0.2897796630859375
1772789875077435600,8.084435546875,-0.0724029541015625,0.9455413818359375,-0.2943878173828125
1772789875097470700,8.104470703125,-0.0709686279296875,0.9418487548828125,-0.30072021484375
1772789875117505800,8.124505859375,-0.0715179443359375,0.940032958984375,-0.3067779541015625
1772789875137540900,8.144540771484374,-0.0706787109375,0.9384307861328125,-0.3109130859375
1772789875157576000,8.164575927734376,-0.074127197265625,0.9407958984375,-0.3105621337890625
1772789875177610800,8.18461083984375,-0.0776519775390625,0.945098876953125,-0.3066864013671875
1772789875197645800,8.204645751953125,-0.0775604248046875,0.9489898681640625,-0.298828125
1772789875217681000,8.224680908203124,-0.074371337890625,0.9483489990234375,-0.2899322509765625
1772789875237715700,8.2447158203125,-0.0721893310546875,0.945037841796875,-0.2855987548828125
1772789875257749800,8.264749755859375,-0.0669403076171875,0.9443359375,-0.289825439453125
1772789875277784800,8.284784912109375,-0.0642242431640625,0.9447479248046875,-0.29840087890625
1772789875297820000,8.30481982421875,-0.0634002685546875,0.9423065185546875,-0.30242919921875
1772789875317855000,8.32485498046875,-0.0654449462890625,0.9466400146484375,-0.2980804443359375
1772789875337889800,8.344889892578125,-0.0703582763671875,0.9488525390625,-0.2896881103515625
1772789875357924900,8.3649248046875,-0.07440185546875,0.9478302001953125,-0.2865753173828125
1772789875377959700,8.384959716796875,-0.0756683349609375,0.9459991455078125,-0.29498291015625
1772789875397994800,8.404994873046874,-0.0747833251953125,0.942840576171875,-0.307159423828125
1772789875418029800,8.42502978515625,-0.0717010498046875,0.9398345947265625,-0.313690185546875
1772789875438065000,8.44506494140625,-0.071990966796875,0.9397430419921875,-0.3107757568359375
1772789875458100000,8.465099853515625,-0.0742034912109375,0.942138671875,-0.3033905029296875
1772789875478134000,8.485134033203124,-0.07550048828125,0.9462890625,-0.2949066162109375
1772789875498168800,8.5051689453125,-0.07818603515625,0.949432373046875,-0.29119873046875
1772789875518203600,8.52520361328125,-0.0748748779296875,0.948272705078125,-0.2877197265625
1772789875538238700,8.54523876953125,-0.072418212890625,0.94476318359375,-0.29083251953125
1772789875558273800,8.565273681640624,-0.06768798828125,0.9422149658203125,-0.300811767578125
1772789875578308900,8.585308837890626,-0.0682525634765625,0.9425048828125,-0.3099365234375
1772789875598344000,8.605343994140625,-0.07171630859375,0.9453582763671875,-0.3081817626953125
1772789875618378800,8.625378662109375,-0.075164794921875,0.9443817138671875,-0.298614501953125
1772789875638413800,8.645413818359375,-0.07781982421875,0.9446258544921875,-0.2881011962890625
1772789875658449000,8.665448974609374,-0.0800628662109375,0.9458160400390625,-0.2871246337890625
1772789875678483700,8.685483642578125,-0.077972412109375,0.94598388671875,-0.293060302734375
1772789875698517800,8.705517822265625,-0.0735931396484375,0.9456329345703125,-0.2965545654296875
1772789875718552800,8.725552734375,-0.06976318359375,0.9432220458984375,-0.3024139404296875
1772789875738588000,8.745587890625,-0.0687408447265625,0.941650390625,-0.306793212890625
1772789875758623000,8.765623046875,-0.069091796875,0.9418792724609375,-0.3051605224609375
1772789875778657800,8.78565771484375,-0.0730743408203125,0.9445648193359375,-0.298431396484375
1772789875798692900,8.80569287109375,-0.0753936767578125,0.9448089599609375,-0.2965240478515625
1772789875818727700,8.825727783203124,-0.07891845703125,0.9453582763671875,-0.296478271484375
1772789875838762800,8.8457626953125,-0.077056884765625,0.9441986083984375,-0.2999267578125
1772789875858797800,8.8657978515625,-0.0753326416015625,0.9426116943359375,-0.303985595703125
1772789875878833000,8.8858330078125,-0.0735015869140625,0.940338134765625,-0.303375244140625
1772789875898868000,8.905867919921874,-0.0720672607421875,0.939697265625,-0.3021087646484375
1772789875918902800,8.92590283203125,-0.072723388671875,0.9427642822265625,-0.300140380859375
1772789875938936800,8.945936767578125,-0.0721588134765625,0.9466705322265625,-0.299896240234375
1772789875958971600,8.9659716796875,-0.0702362060546875,0.9476165771484375,-0.3003692626953125
1772789875979006700,8.9860068359375,-0.0695037841796875,0.9461669921875,-0.2961273193359375
1772789875999042300,9.006042236328126,-0.0706634521484375,0.9453582763671875,-0.294830322265625
1772789876019077400,9.026077392578125,-0.0735626220703125,0.94830322265625,-0.2970733642578125
1772789876039112400,9.046112548828125,-0.0758514404296875,0.94842529296875,-0.295440673828125
1772789876059147300,9.066147216796875,-0.0767822265625,0.9455718994140625,-0.2911834716796875
1772789876079182000,9.08618212890625,-0.0769805908203125,0.94500732421875,-0.28875732421875
1772789876099217200,9.106217041015626,-0.077056884765625,0.9452667236328125,-0.291046142578125
1772789876119252200,9.126252197265625,-0.0782928466796875,0.9409027099609375,-0.29461669921875
1772789876139287300,9.146287353515625,-0.0787200927734375,0.9380950927734375,-0.3015289306640625
1772789876159321300,9.1663212890625,-0.0815582275390625,0.93963623046875,-0.306884765625
1772789876179356400,9.1863564453125,-0.0834197998046875,0.941650390625,-0.3050994873046875
1772789876199391500,9.2063916015625,-0.0858917236328125,0.945709228515625,-0.30169677734375
1772789876219426000,9.226426025390625,-0.0856475830078125,0.9482879638671875,-0.297698974609375
1772789876239461000,9.246461181640624,-0.0821533203125,0.9503326416015625,-0.2919769287109375
1772789876259496200,9.26649609375,-0.0786285400390625,0.95233154296875,-0.2892608642578125
1772789876279531300,9.28653125,-0.0753631591796875,0.9495849609375,-0.2891693115234375
1772789876299566300,9.30656640625,-0.0705718994140625,0.947845458984375,-0.289520263671875
1772789876319601400,9.326601318359375,-0.0708465576171875,0.94476318359375,-0.29046630859375
1772789876339636200,9.34663623046875,-0.0721588134765625,0.9432373046875,-0.2943267822265625
1772789876359671300,9.36667138671875,-0.0756072998046875,0.9443817138671875,-0.2978057861328125
1772789876379705000,9.386705078125,-0.0783843994140625,0.9444427490234375,-0.30181884765625
1772789876399740200,9.406740234375,-0.0834197998046875,0.944183349609375,-0.3033447265625
1772789876419775200,9.426775146484376,-0.085662841796875,0.9419403076171875,-0.3035125732421875
1772789876439810300,9.446810302734375,-0.086090087890625,0.943878173828125,-0.3018646240234375
1772789876459845400,9.466845458984375,-0.084747314453125,0.946563720703125,-0.300323486328125
1772789876479880400,9.48688037109375,-0.0809173583984375,0.9471588134765625,-0.29840087890625
1772789876499915300,9.506915283203124,-0.073944091796875,0.94305419921875,-0.2965545654296875
1772789876519950000,9.5269501953125,-0.0699005126953125,0.9427947998046875,-0.2919769287109375
1772789876539985200,9.546985107421875,-0.0700531005859375,0.9436187744140625,-0.292999267578125
1772789876560020200,9.567020263671875,-0.0696868896484375,0.9442596435546875,-0.296173095703125
1772789876580054300,9.58705419921875,-0.0709381103515625,0.9445648193359375,-0.2979278564453125
1772789876600089300,9.60708935546875,-0.0739898681640625,0.942535400390625,-0.299346923828125
1772789876620124400,9.62712451171875,-0.0775909423828125,0.942413330078125,-0.3012542724609375
1772789876640159200,9.6471591796875,-0.080535888671875,0.941314697265625,-0.30078125
1772789876660194000,9.667194091796874,-0.08184814453125,0.942352294921875,-0.302276611328125
1772789876680229000,9.68722900390625,-0.08245849609375,0.9430389404296875,-0.3048095703125
1772789876700264200,9.70726416015625,-0.08087158203125,0.945556640625,-0.3030242919921875
1772789876720299300,9.72729931640625,-0.07867431640625,0.9464263916015625,-0.300689697265625
1772789876740334300,9.747334228515625,-0.0753173828125,0.9439239501953125,-0.297637939453125
1772789876760369400,9.767369384765624,-0.0727081298828125,0.943695068359375,-0.2959136962890625
1772789876780404200,9.787404296875,-0.0699462890625,0.9427947998046875,-0.29644775390625
1772789876800438300,9.807438232421875,-0.0703277587890625,0.942108154296875,-0.3003082275390625
1772789876820473000,9.82747314453125,-0.072784423828125,0.9418792724609375,-0.3031768798828125
1772789876840508200,9.847508056640624,-0.0765228271484375,0.9404754638671875,-0.3033447265625
1772789876860543200,9.867543212890626,-0.0807647705078125,0.94342041015625,-0.30517578125
1772789876880578300,9.887578369140625,-0.0858612060546875,0.9453277587890625,-0.3071441650390625
1772789876900613400,9.90761328125,-0.08697509765625,0.941436767578125,-0.3017120361328125
1772789876920648400,9.9276484375,-0.0856475830078125,0.942657470703125,-0.29669189453125
1772789876940683300,9.947683349609376,-0.0832977294921875,0.9449310302734375,-0.295989990234375
1772789876960718000,9.967718017578125,-0.07965087890625,0.9456329345703125,-0.293365478515625
1772789876980753200,9.987753173828125,-0.0760498046875,0.9482879638671875,-0.2912750244140625
1772789877000787700,10.00778759765625,-0.0742950439453125,0.947021484375,-0.2897491455078125
1772789877020821800,10.02782177734375,-0.07415771484375,0.9451751708984375,-0.2917633056640625
1772789877040856600,10.047856689453125,-0.075775146484375,0.944549560546875,-0.2938690185546875
1772789877060891600,10.0678916015625,-0.078582763671875,0.9452667236328125,-0.29449462890625
1772789877080926700,10.0879267578125,-0.0822906494140625,0.944183349609375,-0.294921875
1772789877100961800,10.1079619140625,-0.0847320556640625,0.94354248046875,-0.2951507568359375
1772789877120996600,10.12799658203125,-0.0855712890625,0.94488525390625,-0.2941741943359375
1772789877141031700,10.14803173828125,-0.0847625732421875,0.946380615234375,-0.2955474853515625
1772789877161066800,10.168066650390625,-0.081451416015625,0.9466094970703125,-0.294525146484375
1772789877181101800,10.188101806640624,-0.0799560546875,0.9454345703125,-0.295654296875
1772789877201136600,10.20813671875,-0.0770416259765625,0.9466705322265625,-0.2975616455078125
1772789877221170700,10.228170654296875,-0.07574462890625,0.945037841796875,-0.2957000732421875
1772789877241205800,10.248205810546875,-0.07470703125,0.9455108642578125,-0.292449951171875
1772789877261240800,10.26824072265625,-0.0785980224609375,0.946990966796875,-0.291259765625
1772789877281275600,10.288275634765625,-0.082000732421875,0.9490203857421875,-0.2903594970703125
1772789877301310700,10.308310791015625,-0.082855224609375,0.9454803466796875,-0.288787841796875
1772789877321345800,10.328345703125,-0.0840911865234375,0.9445648193359375,-0.2919464111328125
1772789877341380600,10.348380615234374,-0.08544921875,0.9450531005859375,-0.2960357666015625
1772789877361415700,10.368415771484376,-0.084930419921875,0.946044921875,-0.2980194091796875
1772789877381450800,10.38845068359375,-0.083831787109375,0.946929931640625,-0.296478271484375
1772789877401485600,10.408485595703125,-0.081939697265625,0.9456634521484375,-0.2938690185546875
1772789877421520000,10.428519775390624,-0.0806121826171875,0.9460906982421875,-0.29010009765625
1772789877441554700,10.4485546875,-0.0783538818359375,0.94451904296875,-0.2873687744140625
1772789877461589800,10.46858984375,-0.079620361328125,0.9472198486328125,-0.290191650390625
1772789877481624600,10.48862451171875,-0.080841064453125,0.9480743408203125,-0.2942047119140625
1772789877501659600,10.50865966796875,-0.0801849365234375,0.945587158203125,-0.2956085205078125
1772789877521694700,10.52869482421875,-0.0828704833984375,0.9452972412109375,-0.29437255859375
1772789877541729800,10.548729736328125,-0.0831146240234375,0.945648193359375,-0.2920074462890625
1772789877561764600,10.5687646484375,-0.0835723876953125,0.94525146484375,-0.2934722900390625
1772789877581799700,10.588799560546875,-0.0860748291015625,0.9456634521484375,-0.2933502197265625
1772789877601834800,10.608834716796874,-0.0854339599609375,0.9453125,-0.2931365966796875
1772789877621869800,10.628869873046876,-0.08551025390625,0.9440460205078125,-0.293426513671875
1772789877641903600,10.648903564453125,-0.0827789306640625,0.9451751708984375,-0.2930755615234375
1772789877661938700,10.668938720703125,-0.0835113525390625,0.94512939453125,-0.2914581298828125
1772789877681973800,10.688973876953124,-0.0830230712890625,0.9468536376953125,-0.290771484375
1772789877702008800,10.7090087890625,-0.0815277099609375,0.9478912353515625,-0.2903289794921875
1772789877722043600,10.729043701171875,-0.081573486328125,0.948455810546875,-0.292083740234375
1772789877742078700,10.74907861328125,-0.0810699462890625,0.9471282958984375,-0.2909698486328125
1772789877762113800,10.76911376953125,-0.0825042724609375,0.9451446533203125,-0.2913970947265625
1772789877782148600,10.789148681640626,-0.0809783935546875,0.9452362060546875,-0.2930145263671875
1772789877802183700,10.80918359375,-0.08416748046875,0.9449310302734375,-0.29156494140625
1772789877822218800,10.82921875,-0.08233642578125,0.9444732666015625,-0.2917022705078125
1772789877842252800,10.849252685546874,-0.084625244140625,0.945098876953125,-0.292938232421875
1772789877862288000,10.869287841796876,-0.0833587646484375,0.9455413818359375,-0.2955780029296875
1772789877882322700,10.88932275390625,-0.0848846435546875,0.9451904296875,-0.2933807373046875
1772789877902357800,10.909357666015625,-0.0842132568359375,0.9449615478515625,-0.2930450439453125
1772789877922392600,10.929392578125,-0.0834808349609375,0.94549560546875,-0.2932586669921875
1772789877942427600,10.949427734375,-0.0826873779296875,0.9482574462890625,-0.2917327880859375
1772789877962462700,10.969462646484375,-0.081085205078125,0.9484405517578125,-0.29052734375
1772789877982497800,10.989497802734375,-0.080291748046875,0.9459991455078125,-0.28900146484375
1772789878002533400,11.009533447265625,-0.079925537109375,0.9447174072265625,-0.2893829345703125
1772789878022567200,11.029567138671876,-0.08038330078125,0.9456634521484375,-0.291900634765625
1772789878042602200,11.049602294921876,-0.0820465087890625,0.9457550048828125,-0.293060302734375
1772789878062637300,11.06963720703125,-0.0831146240234375,0.945098876953125,-0.2924957275390625
1772789878082672400,11.08967236328125,-0.085052490234375,0.945159912109375,-0.2928466796875
1772789878102707500,11.10970751953125,-0.086334228515625,0.9470672607421875,-0.2912445068359375
1772789878122742500,11.129742431640626,-0.0876007080078125,0.9479827880859375,-0.2909393310546875
1772789878142777300,11.14977734375,-0.08502197265625,0.945892333984375,-0.2900390625
1772789878162812400,11.1698125,-0.082489013671875,0.944549560546875,-0.289794921875
1772789878182847200,11.18984716796875,-0.0830535888671875,0.944305419921875,-0.2893218994140625
1772789878202882300,11.20988232421875,-0.0825347900390625,0.9457550048828125,-0.288238525390625
1772789878222917400,11.22991748046875,-0.083648681640625,0.94744873046875,-0.2886810302734375
1772789878242951400,11.249951416015625,-0.083709716796875,0.946868896484375,-0.289215087890625
1772789878262986500,11.269986572265625,-0.08404541015625,0.9454803466796875,-0.2883148193359375
1772789878283021600,11.290021484375,-0.083160400390625,0.9470367431640625,-0.290740966796875
1772789878303056400,11.310056396484375,-0.083587646484375,0.94696044921875,-0.293792724609375
1772789878323091200,11.33009130859375,-0.0817413330078125,0.945281982421875,-0.2934722900390625
1772789878343126300,11.350126220703125,-0.082305908203125,0.9450225830078125,-0.2918853759765625
1772789878363161300,11.370161376953124,-0.0815277099609375,0.945892333984375,-0.2931976318359375
1772789878383196400,11.390196533203126,-0.0822601318359375,0.946197509765625,-0.2946929931640625
1772789878403231500,11.4102314453125,-0.08343505859375,0.945831298828125,-0.2913970947265625
1772789878423266300,11.430266357421875,-0.084564208984375,0.9448089599609375,-0.2901763916015625
1772789878443300600,11.450300537109374,-0.0847930908203125,0.9469757080078125,-0.2923431396484375
1772789878463335200,11.470335205078126,-0.0856781005859375,0.9480133056640625,-0.291046142578125
1772789878483370200,11.490370361328125,-0.0846405029296875,0.94769287109375,-0.287322998046875
1772789878503405300,11.5104052734375,-0.0829620361328125,0.9472808837890625,-0.285980224609375
1772789878523440400,11.5304404296875,-0.0819549560546875,0.94635009765625,-0.286834716796875
1772789878543475500,11.550475341796876,-0.0811309814453125,0.9445953369140625,-0.2893524169921875
1772789878563510500,11.570510498046875,-0.0813751220703125,0.944671630859375,-0.2937469482421875
1772789878583545300,11.59054541015625,-0.0824127197265625,0.9450836181640625,-0.295745849609375
1772789878603580400,11.610580322265625,-0.0833587646484375,0.9436798095703125,-0.2956390380859375
1772789878623615200,11.630615234375,-0.08428955078125,0.9467315673828125,-0.29345703125
1772789878643649300,11.650649169921875,-0.0855255126953125,0.946136474609375,-0.291961669921875
1772789878663684400,11.670684326171875,-0.08502197265625,0.9470672607421875,-0.289459228515625
1772789878683719400,11.690719482421875,-0.0847320556640625,0.949127197265625,-0.2887725830078125
1772789878703754500,11.71075439453125,-0.08282470703125,0.9470977783203125,-0.286834716796875
1772789878723789600,11.73078955078125,-0.083038330078125,0.9462738037109375,-0.28546142578125
1772789878743824400,11.750824462890625,-0.08160400390625,0.946136474609375,-0.2859039306640625
1772789878763859200,11.770859130859375,-0.08282470703125,0.9467010498046875,-0.289337158203125
1772789878783894300,11.790894287109374,-0.083465576171875,0.94732666015625,-0.29083251953125
1772789878803929300,11.810929443359376,-0.083404541015625,0.947235107421875,-0.2894134521484375
1772789878823963400,11.83096337890625,-0.085296630859375,0.9471282958984375,-0.2891998291015625
1772789878843998500,11.85099853515625,-0.085052490234375,0.9469451904296875,-0.289154052734375
1772789878864033500,11.871033447265624,-0.0848541259765625,0.945556640625,-0.2902679443359375
1772789878884068600,11.891068603515626,-0.0823516845703125,0.945648193359375,-0.292755126953125
1772789878904103200,11.911103271484375,-0.0829315185546875,0.945831298828125,-0.294281005859375
1772789878924138200,11.93113818359375,-0.0827789306640625,0.9456329345703125,-0.294189453125
1772789878944173300,11.95117333984375,-0.083587646484375,0.9453277587890625,-0.291229248046875
1772789878964208400,11.97120849609375,-0.0834808349609375,0.9458465576171875,-0.28997802734375
1772789878984243500,11.991243408203125,-0.0846405029296875,0.9476776123046875,-0.28961181640625
1772789879004278000,12.011278076171875,-0.0827484130859375,0.947357177734375,-0.2907257080078125
1772789879024312000,12.03131201171875,-0.0825042724609375,0.9443817138671875,-0.2870635986328125
1772789879044347100,12.05134716796875,-0.081695556640625,0.9459228515625,-0.287689208984375
1772789879064382000,12.0713818359375,-0.084686279296875,0.947845458984375,-0.29107666015625
1772789879084416800,12.091416748046875,-0.0831756591796875,0.94677734375,-0.2904510498046875
1772789879104451800,12.111451904296874,-0.0825958251953125,0.9459075927734375,-0.2890777587890625
1772789879124487000,12.13148681640625,-0.0821533203125,0.9454498291015625,-0.2904510498046875
1772789879144522000,12.15152197265625,-0.0838775634765625,0.9463043212890625,-0.295013427734375
1772789879164557000,12.17155712890625,-0.0831298828125,0.9441375732421875,-0.294921875
1772789879184592100,12.191592041015625,-0.083709716796875,0.9447479248046875,-0.2937469482421875
1772789879204626000,12.2116259765625,-0.0833282470703125,0.94659423828125,-0.2931976318359375
1772789879224661000,12.231660888671875,-0.0848846435546875,0.9487152099609375,-0.2923126220703125
1772789879244695800,12.25169580078125,-0.0840301513671875,0.947235107421875,-0.28594970703125
1772789879264731000,12.27173095703125,-0.08209228515625,0.947845458984375,-0.2833709716796875
1772789879284766000,12.291765869140624,-0.081024169921875,0.94818115234375,-0.28436279296875
1772789879304801000,12.311801025390626,-0.08135986328125,0.9463043212890625,-0.2893524169921875
1772789879324836000,12.331836181640625,-0.081207275390625,0.94482421875,-0.2904052734375
1772789879344871200,12.35187109375,-0.0824737548828125,0.9448394775390625,-0.291473388671875
1772789879364906000,12.371906005859374,-0.0821533203125,0.9451141357421875,-0.2917327880859375
1772789879384940800,12.39194091796875,-0.0846710205078125,0.94677734375,-0.2925262451171875
1772789879404974800,12.411974853515625,-0.0862579345703125,0.9484100341796875,-0.291595458984375
1772789879425010000,12.432010009765625,-0.0864410400390625,0.947052001953125,-0.291046142578125
1772789879445045000,12.452044921875,-0.085723876953125,0.9456939697265625,-0.292510986328125
1772789879465080000,12.472080078125,-0.0849456787109375,0.9471893310546875,-0.293670654296875
1772789879485115100,12.492115234375,-0.0831451416015625,0.9469146728515625,-0.292572021484375
1772789879505150000,12.51214990234375,-0.081756591796875,0.946990966796875,-0.2894439697265625
1772789879525184800,12.532184814453124,-0.079376220703125,0.9471282958984375,-0.286956787109375
1772789879545219800,12.5522197265625,-0.08172607421875,0.9458770751953125,-0.2879180908203125
1772789879565255000,12.5722548828125,-0.0820159912109375,0.9457550048828125,-0.2894744873046875
1772789879585289000,12.5922890625,-0.08294677734375,0.9459228515625,-0.291259765625
1772789879605324000,12.612323974609374,-0.083526611328125,0.945587158203125,-0.2929534912109375
1772789879625359000,12.632359130859374,-0.0840911865234375,0.944854736328125,-0.29266357421875
1772789879645394000,12.652393798828125,-0.0850067138671875,0.9446868896484375,-0.291595458984375
1772789879665429000,12.672428955078125,-0.083709716796875,0.94598388671875,-0.291839599609375
1772789879685463800,12.6924638671875,-0.0823211669921875,0.9460601806640625,-0.291046142578125
1772789879705499000,12.712498779296874,-0.0816802978515625,0.9447021484375,-0.291534423828125
1772789879725534000,12.732533935546876,-0.0803680419921875,0.94500732421875,-0.294952392578125
1772789879745569000,12.752569091796875,-0.07928466796875,0.946502685546875,-0.2961883544921875
1772789879765604000,12.77260400390625,-0.0789947509765625,0.9460601806640625,-0.2946624755859375
1772789879785638000,12.792637939453124,-0.078765869140625,0.94732666015625,-0.29010009765625
1772789879805673000,12.8126728515625,-0.0788726806640625,0.9484710693359375,-0.2887725830078125
1772789879825708000,12.8327080078125,-0.07867431640625,0.94757080078125,-0.2889556884765625
1772789879845742800,12.852742919921875,-0.0801239013671875,0.945526123046875,-0.2895355224609375
1772789879865778000,12.87277783203125,-0.079254150390625,0.9460601806640625,-0.290771484375
1772789879885813000,12.89281298828125,-0.0811614990234375,0.9441070556640625,-0.293304443359375
1772789879905848000,12.91284814453125,-0.0829620361328125,0.9457855224609375,-0.29541015625
1772789879925883100,12.932883056640625,-0.0826263427734375,0.94537353515625,-0.2917938232421875
1772789879945918000,12.95291796875,-0.0829925537109375,0.9455413818359375,-0.29095458984375
1772789879965952000,12.972951904296876,-0.083404541015625,0.9482269287109375,-0.2911834716796875
1772789879985987000,12.992987060546875,-0.081024169921875,0.9483184814453125,-0.2894134521484375
1772789880006022000,13.01302197265625,-0.0790252685546875,0.946563720703125,-0.2891387939453125
1772789880026057000,13.033056884765625,-0.0772857666015625,0.9458770751953125,-0.2909088134765625
1772789880046092000,13.053092041015624,-0.0746002197265625,0.9455108642578125,-0.2921295166015625
1772789880066127000,13.073127197265626,-0.0748291015625,0.9438934326171875,-0.294158935546875
1772789880086162200,13.093162109375,-0.076416015625,0.944915771484375,-0.29522705078125
1772789880106197000,13.113197021484375,-0.0785675048828125,0.94647216796875,-0.2966156005859375
1772789880126232000,13.133232177734374,-0.080963134765625,0.9454803466796875,-0.29461669921875
1772789880146265900,13.153265869140625,-0.082489013671875,0.9450225830078125,-0.2941436767578125
1772789880166301000,13.173301025390625,-0.0823516845703125,0.9459075927734375,-0.292816162109375
1772789880186336000,13.1933359375,-0.082550048828125,0.947845458984375,-0.2925262451171875
1772789880206371000,13.21337109375,-0.0798187255859375,0.947357177734375,-0.2895050048828125
1772789880226406100,13.23340625,-0.079010009765625,0.9467926025390625,-0.2890472412109375
1772789880246441200,13.253441162109375,-0.078277587890625,0.9468536376953125,-0.2897186279296875
1772789880266476000,13.27347607421875,-0.076629638671875,0.947174072265625,-0.291046142578125
1772789880286511000,13.293510986328124,-0.0755615234375,0.945709228515625,-0.2911224365234375
1772789880306546000,13.3135458984375,-0.076812744140625,0.9463958740234375,-0.292388916015625
1772789880326580000,13.333580078125,-0.0787811279296875,0.94561767578125,-0.2936553955078125
1772789880346615000,13.353614990234375,-0.080596923828125,0.9462890625,-0.293548583984375
1772789880366650000,13.373650146484374,-0.0816497802734375,0.945587158203125,-0.29443359375
1772789880386685200,13.393685302734376,-0.08209228515625,0.94610595703125,-0.290924072265625
1772789880406720300,13.41372021484375,-0.0804290771484375,0.94647216796875,-0.289794921875
1772789880426755000,13.433755126953125,-0.0805206298828125,0.9466705322265625,-0.2905731201171875
1772789880446790000,13.453789794921875,-0.0808563232421875,0.9458465576171875,-0.29180908203125
1772789880466825000,13.473824951171874,-0.079681396484375,0.9460296630859375,-0.291595458984375
1772789880486860000,13.493860107421876,-0.07891845703125,0.9468231201171875,-0.289764404296875
1772789880506894000,13.51389404296875,-0.0770111083984375,0.9468994140625,-0.291046142578125
1772789880526929200,13.53392919921875,-0.0772705078125,0.9464111328125,-0.290924072265625
1772789880546964200,13.553964111328124,-0.0767059326171875,0.94451904296875,-0.2919769287109375
1772789880566999300,13.573999267578126,-0.077178955078125,0.9444427490234375,-0.2947540283203125
1772789880587034000,13.5940341796875,-0.0780487060546875,0.9456939697265625,-0.2967071533203125
1772789880607069000,13.61406884765625,-0.0790863037109375,0.94403076171875,-0.297088623046875
1772789880627104000,13.63410400390625,-0.078582763671875,0.94281005859375,-0.29559326171875
1772789880647139000,13.65413916015625,-0.0803375244140625,0.942626953125,-0.294281005859375
1772789880667174100,13.674174072265625,-0.082000732421875,0.9449462890625,-0.293914794921875
1772789880687208200,13.694208251953125,-0.0822906494140625,0.9443511962890625,-0.2940216064453125
1772789880707243000,13.714242919921874,-0.080657958984375,0.9449005126953125,-0.2934722900390625
1772789880727278000,13.734278076171876,-0.0798797607421875,0.9471435546875,-0.2939910888671875
1772789880747313000,13.75431298828125,-0.0781097412109375,0.947906494140625,-0.2954864501953125
1772789880767348000,13.774347900390625,-0.0753936767578125,0.947174072265625,-0.2989501953125
1772789880787383000,13.794383056640624,-0.0735931396484375,0.945098876953125,-0.29962158203125
1772789880807418000,13.814418212890626,-0.0745849609375,0.9489593505859375,-0.300628662109375
1772789880827453200,13.834453125,-0.074676513671875,0.9441070556640625,-0.3004302978515625
1772789880847488300,13.85448828125,-0.076934814453125,0.9417572021484375,-0.29638671875
1772789880867522000,13.87452197265625,-0.0792083740234375,0.9436492919921875,-0.292816162109375
1772789880887557000,13.89455712890625,-0.082061767578125,0.9437408447265625,-0.2900848388671875
1772789880907592000,13.914592041015625,-0.0818023681640625,0.9434051513671875,-0.2890625
1772789880927627000,13.934626953125,-0.082611083984375,0.9440155029296875,-0.2932891845703125
1772789880947662000,13.954662109375,-0.080413818359375,0.94256591796875,-0.29974365234375
1772789880967697200,13.974697265625,-0.07806396484375,0.9418182373046875,-0.305267333984375
1772789880987732200,13.994732177734376,-0.0771331787109375,0.9416961669921875,-0.30682373046875
1772789881007767000,14.01476708984375,-0.076416015625,0.9434814453125,-0.304595947265625
1772789881027802000,14.034802001953125,-0.0780792236328125,0.9456787109375,-0.2987823486328125
1772789881047836200,14.054836181640624,-0.0772552490234375,0.947235107421875,-0.2919769287109375
1772789881067871000,14.07487109375,-0.0769195556640625,0.9472503662109375,-0.286163330078125
1772789881087906000,14.094906005859375,-0.0766448974609375,0.9469146728515625,-0.2869873046875
1772789881107941000,14.114941162109375,-0.0784759521484375,0.946044921875,-0.293243408203125
1772789881127976200,14.13497607421875,-0.07708740234375,0.9472503662109375,-0.2969512939453125
1772789881148011000,14.155010986328126,-0.07965087890625,0.9464263916015625,-0.295562744140625
1772789881168046000,14.175046142578125,-0.0806427001953125,0.9447784423828125,-0.292724609375
1772789881188081200,14.1950810546875,-0.081268310546875,0.9446258544921875,-0.293609619140625
1772789881208115200,14.215115234375,-0.0834808349609375,0.9460601806640625,-0.2915191650390625
1772789881228150000,14.23514990234375,-0.0815887451171875,0.944183349609375,-0.2910308837890625
1772789881248185000,14.25518505859375,-0.0806427001953125,0.944244384765625,-0.294342041015625
1772789881268220200,14.27522021484375,-0.079742431640625,0.9446258544921875,-0.2984771728515625
1772789881288255000,14.2952548828125,-0.0785980224609375,0.9446563720703125,-0.2985076904296875
1772789881308290000,14.3152900390625,-0.0796356201171875,0.9423675537109375,-0.298065185546875
1772789881328325000,14.3353251953125,-0.0810089111328125,0.9455718994140625,-0.297943115234375
1772789881348360000,14.35535986328125,-0.0803375244140625,0.948974609375,-0.2972564697265625
1772789881368395000,14.37539501953125,-0.0802459716796875,0.9458160400390625,-0.29046630859375
1772789881388429000,14.395428955078126,-0.0797119140625,0.9460296630859375,-0.2875518798828125
1772789881408464100,14.415464111328125,-0.0801849365234375,0.94622802734375,-0.2876739501953125
1772789881428499000,14.4354990234375,-0.080108642578125,0.94403076171875,-0.291259765625
1772789881448534000,14.455533935546875,-0.0785064697265625,0.945526123046875,-0.29473876953125
1772789881468569000,14.475569091796874,-0.0787200927734375,0.94580078125,-0.2984161376953125
1772789881488604200,14.495604248046876,-0.0791778564453125,0.9448394775390625,-0.3013916015625
1772789881508639000,14.515638916015625,-0.0801849365234375,0.943267822265625,-0.2990264892578125
1772789881528674000,14.535674072265625,-0.0803070068359375,0.9441070556640625,-0.29638671875
1772789881548709000,14.555709228515624,-0.0804290771484375,0.9467620849609375,-0.2952423095703125
1772789881568743000,14.575742919921876,-0.0804443359375,0.945770263671875,-0.29498291015625
1772789881588778000,14.595778076171875,-0.080291748046875,0.9445648193359375,-0.294281005859375
1772789881608813000,14.61581298828125,-0.0795135498046875,0.9462738037109375,-0.2946319580078125
1772789881628848000,14.63584814453125,-0.0787353515625,0.9459991455078125,-0.296112060546875
1772789881648883200,14.65588330078125,-0.0777130126953125,0.94451904296875,-0.295257568359375
1772789881668918000,14.67591796875,-0.077392578125,0.9448089599609375,-0.296112060546875
1772789881688953000,14.695953125,-0.080352783203125,0.9452056884765625,-0.2976226806640625
1772789881708988200,14.71598828125,-0.0795135498046875,0.9440460205078125,-0.2965087890625
1772789881729022000,14.73602197265625,-0.0802459716796875,0.9442901611328125,-0.295135498046875
1772789881749057000,14.75605712890625,-0.0812225341796875,0.9435577392578125,-0.294403076171875
1772789881769092000,14.776092041015625,-0.080780029296875,0.9443817138671875,-0.2935333251953125
1772789881789127200,14.796127197265625,-0.08184814453125,0.944915771484375,-0.2951507568359375
1772789881809162200,14.816162353515624,-0.0826263427734375,0.9451904296875,-0.2961273193359375
1772789881829197000,14.836197021484375,-0.0807037353515625,0.9447479248046875,-0.2940216064453125
1772789881849232100,14.856232177734375,-0.0785369873046875,0.9441986083984375,-0.2953033447265625
1772789881869267000,14.876266845703125,-0.0778656005859375,0.946563720703125,-0.2984771728515625
1772789881889302000,14.896302001953124,-0.07757568359375,0.9445648193359375,-0.2991180419921875
1772789881909336000,14.916336181640625,-0.0773773193359375,0.943206787109375,-0.29888916015625
1772789881929371100,14.93637109375,-0.0788726806640625,0.9431915283203125,-0.2995758056640625
1772789881949406200,14.95640625,-0.0792083740234375,0.94415283203125,-0.300140380859375
1772789881969441300,14.976441162109374,-0.08184814453125,0.9438934326171875,-0.2984466552734375
1772789881989475800,14.996475830078126,-0.0823211669921875,0.9444427490234375,-0.29791259765625
1772789882009511400,15.016511474609375,-0.0845184326171875,0.945037841796875,-0.2981109619140625
1772789882029546200,15.036546142578125,-0.0837860107421875,0.94708251953125,-0.2963104248046875
1772789882049581300,15.056581298828124,-0.0835723876953125,0.9459991455078125,-0.293426513671875
1772789882069615400,15.076615478515626,-0.0804290771484375,0.94683837890625,-0.292816162109375
1772789882089650400,15.096650390625,-0.0800323486328125,0.945556640625,-0.2918243408203125
1772789882109685500,15.116685546875,-0.0778045654296875,0.9459075927734375,-0.2911224365234375
1772789882129720600,15.136720458984374,-0.0750885009765625,0.94647216796875,-0.292266845703125
1772789882149755400,15.15675537109375,-0.0739898681640625,0.9465179443359375,-0.293121337890625
1772789882169790200,15.176790283203125,-0.0747528076171875,0.943878173828125,-0.295501708984375
1772789882189825300,15.1968251953125,-0.076934814453125,0.941650390625,-0.299072265625
1772789882209860400,15.2168603515625,-0.07916259765625,0.9412078857421875,-0.3023529052734375
1772789882229895400,15.2368955078125,-0.08197021484375,0.9419097900390625,-0.303375244140625
1772789882249929500,15.256929443359375,-0.0849609375,0.943359375,-0.3041229248046875
1772789882269964500,15.276964599609375,-0.08526611328125,0.9443511962890625,-0.29931640625
1772789882289999400,15.296999267578125,-0.0831451416015625,0.9464569091796875,-0.2927703857421875
1772789882310034200,15.3170341796875,-0.0799102783203125,0.946533203125,-0.2889556884765625
1772789882330069200,15.3370693359375,-0.076446533203125,0.94573974609375,-0.288665771484375
1772789882350104300,15.357104248046875,-0.0736083984375,0.9451751708984375,-0.2924346923828125
1772789882370139400,15.377139404296875,-0.0723419189453125,0.9457244873046875,-0.2984619140625
1772789882390174500,15.397174560546874,-0.072418212890625,0.943695068359375,-0.301483154296875
1772789882410208500,15.41720849609375,-0.074859619140625,0.9430389404296875,-0.30120849609375
1772789882430243300,15.437243408203125,-0.076904296875,0.9410247802734375,-0.2989349365234375
1772789882450278400,15.4572783203125,-0.079071044921875,0.940032958984375,-0.297943115234375
1772789882470313200,15.477313232421874,-0.0828704833984375,0.94268798828125,-0.2992706298828125
1772789882490348300,15.497348388671876,-0.08502197265625,0.941436767578125,-0.3025360107421875
1772789882510383400,15.51738330078125,-0.0847625732421875,0.9399261474609375,-0.3028411865234375
1772789882530418400,15.53741845703125,-0.0849456787109375,0.94207763671875,-0.301239013671875
1772789882550453500,15.55745361328125,-0.0815277099609375,0.942779541015625,-0.3015899658203125
1772789882570487300,15.5774873046875,-0.07867431640625,0.9438323974609375,-0.3020782470703125
1772789882590522400,15.5975224609375,-0.076385498046875,0.9426116943359375,-0.302886962890625
1772789882610557400,15.617557373046875,-0.0728302001953125,0.943328857421875,-0.30548095703125
1772789882630592300,15.63759228515625,-0.0730133056640625,0.9424591064453125,-0.3070220947265625
1772789882650627300,15.65762744140625,-0.0731964111328125,0.9420623779296875,-0.305877685546875
1772789882670662400,15.677662353515625,-0.0771331787109375,0.9433135986328125,-0.3031463623046875
1772789882690697500,15.697697509765625,-0.079437255859375,0.944854736328125,-0.298675537109375
1772789882710732500,15.717732666015625,-0.0826263427734375,0.945831298828125,-0.298309326171875
1772789882730767600,15.737767578125,-0.0831146240234375,0.9456024169921875,-0.2939910888671875
1772789882750801400,15.757801513671875,-0.0818634033203125,0.945709228515625,-0.2921905517578125
1772789882770836500,15.77783642578125,-0.0795135498046875,0.94586181640625,-0.2928009033203125
1772789882790871300,15.797871337890625,-0.0781707763671875,0.94476318359375,-0.293609619140625
1772789882810906400,15.81790625,-0.077117919921875,0.9440460205078125,-0.2935791015625
1772789882830941400,15.83794140625,-0.077117919921875,0.9448089599609375,-0.2979888916015625
1772789882850976500,15.8579765625,-0.07904052734375,0.9459075927734375,-0.29779052734375
1772789882871011300,15.87801123046875,-0.0801544189453125,0.9461669921875,-0.2953338623046875
1772789882891046400,15.89804638671875,-0.0791778564453125,0.94708251953125,-0.2891845703125
1772789882911080400,15.91808056640625,-0.0777435302734375,0.947113037109375,-0.2862396240234375
1772789882931115300,15.938115234375,-0.0758209228515625,0.9463043212890625,-0.2872467041015625
1772789882951150300,15.958150390625,-0.07537841796875,0.944976806640625,-0.2917327880859375
1772789882971185400,15.978185302734374,-0.0736846923828125,0.9444427490234375,-0.2975921630859375
1772789882991220500,15.998220458984376,-0.0762481689453125,0.9467620849609375,-0.29998779296875
1772789883011255800,16.018255859375,-0.078582763671875,0.94586181640625,-0.2978973388671875
1772789883031291000,16.038290771484377,-0.080352783203125,0.9435577392578125,-0.2956085205078125
1772789883051325700,16.05832568359375,-0.0815582275390625,0.945892333984375,-0.291351318359375
1772789883071359700,16.07835986328125,-0.082672119140625,0.947784423828125,-0.2873992919921875
1772789883091394600,16.09839453125,-0.0822906494140625,0.9496917724609375,-0.2855682373046875
1772789883111429600,16.1184296875,-0.079559326171875,0.95025634765625,-0.28656005859375
1772789883131464700,16.138464599609375,-0.0777435302734375,0.9495391845703125,-0.286895751953125
1772789883151499800,16.158499755859374,-0.0751953125,0.947296142578125,-0.287200927734375
1772789883171534800,16.178534912109374,-0.073211669921875,0.9485321044921875,-0.2899932861328125
1772789883191570000,16.19856982421875,-0.073638916015625,0.947113037109375,-0.294342041015625
1772789883211604500,16.2186044921875,-0.074371337890625,0.9452972412109375,-0.2955322265625
1772789883231638800,16.238638671875,-0.0772705078125,0.94586181640625,-0.2975616455078125
1772789883251673600,16.258673583984375,-0.0798187255859375,0.9484405517578125,-0.2976837158203125
1772789883271708700,16.278708740234375,-0.08251953125,0.9447174072265625,-0.29638671875
1772789883291743700,16.29874365234375,-0.0829620361328125,0.941619873046875,-0.2934417724609375
1772789883311778800,16.31877880859375,-0.0824127197265625,0.9434051513671875,-0.29217529296875
1772789883331814000,16.33881396484375,-0.0801849365234375,0.944244384765625,-0.2920074462890625
1772789883351848700,16.3588486328125,-0.0793304443359375,0.9468231201171875,-0.2919158935546875
1772789883371883500,16.378883544921877,-0.077789306640625,0.9498138427734375,-0.2917938232421875
1772789883391917800,16.398917724609376,-0.076019287109375,0.948394775390625,-0.2927398681640625
1772789883411952600,16.41895263671875,-0.0751495361328125,0.9463043212890625,-0.294158935546875
1772789883431987700,16.43898779296875,-0.0764007568359375,0.9487152099609375,-0.295562744140625
1772789883452022800,16.459022705078127,-0.07635498046875,0.94866943359375,-0.2930755615234375
1772789883472057900,16.479057861328126,-0.0753936767578125,0.945465087890625,-0.2922210693359375
1772789883492092700,16.4990927734375,-0.0790557861328125,0.9433746337890625,-0.290863037109375
1772789883512127700,16.519127685546874,-0.0802459716796875,0.945220947265625,-0.2920074462890625
1772789883532162600,16.53916259765625,-0.080841064453125,0.945465087890625,-0.294158935546875
1772789883552196900,16.55919677734375,-0.0814666748046875,0.9451751708984375,-0.295623779296875
1772789883572231700,16.579231689453124,-0.079498291015625,0.9444427490234375,-0.297760009765625
1772789883592266800,16.599266845703124,-0.07806396484375,0.941741943359375,-0.298553466796875
1772789883612301600,16.619301513671875,-0.078338623046875,0.9434356689453125,-0.2991943359375
1772789883632336600,16.639336669921875,-0.0764312744140625,0.94415283203125,-0.300811767578125
1772789883652371700,16.659371826171874,-0.0775909423828125,0.944122314453125,-0.2990570068359375
1772789883672406800,16.67940673828125,-0.0764923095703125,0.9449005126953125,-0.29888916015625
1772789883692441600,16.699441650390625,-0.07733154296875,0.94342041015625,-0.300201416015625
1772789883712476000,16.719475830078125,-0.0784454345703125,0.9425201416015625,-0.2996826171875
1772789883732510700,16.7395107421875,-0.0781402587890625,0.942230224609375,-0.3002471923828125
1772789883752545500,16.759545654296875,-0.0782470703125,0.9437713623046875,-0.3010406494140625
1772789883772580600,16.77958056640625,-0.077484130859375,0.9455718994140625,-0.3034515380859375
1772789883792615700,16.79961572265625,-0.076507568359375,0.9441375732421875,-0.302490234375
1772789883812650800,16.819650634765626,-0.0747833251953125,0.941253662109375,-0.2991180419921875
1772789883832685800,16.839685791015626,-0.0751953125,0.9409942626953125,-0.29766845703125
1772789883852720600,16.859720703125,-0.076385498046875,0.9418792724609375,-0.3012542724609375
1772789883872754700,16.879754638671876,-0.0766754150390625,0.9459228515625,-0.3026123046875
1772789883892789500,16.89978955078125,-0.075958251953125,0.9449005126953125,-0.29949951171875
1772789883912824600,16.919824462890624,-0.0743865966796875,0.9424591064453125,-0.29925537109375
1772789883932859600,16.939859619140623,-0.074127197265625,0.9432220458984375,-0.3011474609375
1772789883952894700,16.959894775390627,-0.0726776123046875,0.94219970703125,-0.302520751953125
1772789883972929800,16.9799296875,-0.0720977783203125,0.941619873046875,-0.303955078125
1772789883992964900,16.99996484375,-0.0709228515625,0.9402313232421875,-0.3045806884765625
1772789884012999200,17.019999267578125,-0.071075439453125,0.9419708251953125,-0.3072357177734375
1772789884033033200,17.040033203125,-0.072784423828125,0.9451446533203125,-0.307098388671875
1772789884053068300,17.060068359375,-0.07427978515625,0.9421844482421875,-0.3034210205078125
1772789884073103000,17.08010302734375,-0.07525634765625,0.9425811767578125,-0.3007965087890625
1772789884093138000,17.100137939453123,-0.0777435302734375,0.94482421875,-0.2987060546875
1772789884113173000,17.120173095703127,-0.07672119140625,0.9461517333984375,-0.294586181640625
1772789884133208000,17.1402080078125,-0.07611083984375,0.9470672607421875,-0.291259765625
1772789884153243100,17.1602431640625,-0.0737762451171875,0.9456024169921875,-0.290679931640625
1772789884173278200,17.1802783203125,-0.0724029541015625,0.9430694580078125,-0.2927703857421875
1772789884193312300,17.200312255859377,-0.0718231201171875,0.94403076171875,-0.297393798828125
1772789884213347000,17.22034716796875,-0.07220458984375,0.9453887939453125,-0.3005828857421875
1772789884233382000,17.2403818359375,-0.0718536376953125,0.9449310302734375,-0.3002777099609375
1772789884253417000,17.2604169921875,-0.072662353515625,0.945343017578125,-0.297454833984375
1772789884273452000,17.2804521484375,-0.073822021484375,0.9445037841796875,-0.2962646484375
1772789884293487000,17.300487060546875,-0.0744781494140625,0.9454803466796875,-0.2947845458984375
1772789884313522200,17.320522216796874,-0.0749664306640625,0.946075439453125,-0.2962799072265625
1772789884333557200,17.34055712890625,-0.073211669921875,0.9462127685546875,-0.2971343994140625
1772789884353591000,17.360591064453125,-0.072296142578125,0.9442138671875,-0.297882080078125
1772789884373626000,17.380626220703125,-0.0702362060546875,0.9445648193359375,-0.2966156005859375
1772789884393661000,17.400660888671876,-0.0699310302734375,0.945220947265625,-0.29876708984375
1772789884413696000,17.420696044921876,-0.06982421875,0.9456024169921875,-0.2978973388671875
1772789884433731000,17.44073095703125,-0.069976806640625,0.9444580078125,-0.29876708984375
1772789884453766100,17.46076611328125,-0.0694732666015625,0.945526123046875,-0.296783447265625
1772789884473801200,17.48080126953125,-0.0706329345703125,0.945831298828125,-0.2949676513671875
1772789884493836300,17.500836181640626,-0.070648193359375,0.9454803466796875,-0.2952880859375
1772789884513870000,17.5208701171875,-0.0705108642578125,0.9449462890625,-0.2979888916015625
1772789884533905200,17.5409052734375,-0.0701751708984375,0.9449920654296875,-0.300994873046875
1772789884553940000,17.56093994140625,-0.0703887939453125,0.944915771484375,-0.3031005859375
1772789884573975000,17.58097509765625,-0.069427490234375,0.9431610107421875,-0.3037872314453125
1772789884594010000,17.601010009765623,-0.0681304931640625,0.9432220458984375,-0.305145263671875
1772789884614045200,17.621045166015627,-0.0673675537109375,0.9430694580078125,-0.30718994140625
1772789884634080300,17.641080322265626,-0.066375732421875,0.9428558349609375,-0.3081207275390625
1772789884654114000,17.661114013671874,-0.06640625,0.9425811767578125,-0.31024169921875
1772789884674149000,17.681149169921873,-0.0659637451171875,0.942108154296875,-0.3089599609375
1772789884694184200,17.70118408203125,-0.0660247802734375,0.94354248046875,-0.3059234619140625
1772789884714219000,17.721218994140624,-0.06756591796875,0.9454193115234375,-0.302093505859375
1772789884734254000,17.741254150390624,-0.0687408447265625,0.9456634521484375,-0.2992706298828125
1772789884754289200,17.7612890625,-0.068572998046875,0.945556640625,-0.293670654296875
1772789884774324200,17.78132421875,-0.0695037841796875,0.9470672607421875,-0.2923736572265625
1772789884794359000,17.801359130859375,-0.0702667236328125,0.9489898681640625,-0.29119873046875
1772789884814393000,17.82139306640625,-0.068023681640625,0.947662353515625,-0.29376220703125
1772789884834428200,17.84142822265625,-0.068023681640625,0.93939208984375,-0.2966156005859375
1772789884854463000,17.861462890625,-0.0684967041015625,0.9440460205078125,-0.3064422607421875
1772789884874498000,17.881498046875,-0.0691070556640625,0.9438323974609375,-0.3101043701171875
1772789884894533000,17.901533203125,-0.0696258544921875,0.9413299560546875,-0.309783935546875
1772789884914568200,17.921568115234376,-0.0720672607421875,0.9396209716796875,-0.3056793212890625
1772789884934603000,17.94160302734375,-0.0750579833984375,0.9382476806640625,-0.3013458251953125
1772789884954638000,17.96163818359375,-0.0761260986328125,0.9383392333984375,-0.2954559326171875
1772789884974672100,17.981672119140626,-0.075408935546875,0.9459381103515625,-0.290191650390625
1772789884994707500,18.00170751953125,-0.0738067626953125,0.9521026611328125,-0.289031982421875
1772789885014742300,18.0217421875,-0.0703125,0.9473114013671875,-0.291015625
1772789885034777300,18.04177734375,-0.0660858154296875,0.942291259765625,-0.29522705078125
1772789885054812400,18.0618125,-0.0648345947265625,0.9403839111328125,-0.300445556640625
1772789885074847500,18.081847412109376,-0.066619873046875,0.9417266845703125,-0.3052215576171875
1772789885094882600,18.101882568359375,-0.0662689208984375,0.9414520263671875,-0.31097412109375
1772789885114917400,18.12191748046875,-0.0699310302734375,0.938995361328125,-0.313018798828125
1772789885134951400,18.141951416015626,-0.0696868896484375,0.9382171630859375,-0.3115997314453125
1772789885154986500,18.161986572265626,-0.0703277587890625,0.9367218017578125,-0.31060791015625
1772789885175021300,18.182021240234373,-0.0712738037109375,0.937530517578125,-0.312255859375
1772789885195056400,18.202056396484377,-0.069671630859375,0.938720703125,-0.310821533203125
1772789885215091500,18.222091552734376,-0.0674591064453125,0.9403839111328125,-0.3111572265625
1772789885235126300,18.242126220703124,-0.066497802734375,0.944000244140625,-0.31268310546875
1772789885255161300,18.262161376953124,-0.0641326904296875,0.9438629150390625,-0.311981201171875
1772789885275195400,18.2821953125,-0.0631256103515625,0.943359375,-0.3082122802734375
1772789885295230500,18.30223046875,-0.0648040771484375,0.9448089599609375,-0.3035888671875
1772789885315265500,18.322265625,-0.068359375,0.947418212890625,-0.3012237548828125
1772789885335300400,18.34230029296875,-0.0676727294921875,0.945281982421875,-0.2982177734375
1772789885355335400,18.36233544921875,-0.069061279296875,0.94268798828125,-0.29583740234375
1772789885375370200,18.382370361328125,-0.0704498291015625,0.94097900390625,-0.29803466796875
1772789885395405300,18.4024052734375,-0.0726470947265625,0.942474365234375,-0.3006744384765625
1772789885415440400,18.4224404296875,-0.0739898681640625,0.9433135986328125,-0.30218505859375
1772789885435474400,18.442474365234375,-0.07550048828125,0.942138671875,-0.3064117431640625
1772789885455509500,18.462509521484375,-0.0751800537109375,0.9395904541015625,-0.3062591552734375
1772789885475544600,18.482544677734374,-0.075439453125,0.939910888671875,-0.3054351806640625
1772789885495579400,18.502579345703126,-0.0738983154296875,0.9423980712890625,-0.3044891357421875
1772789885515614200,18.5226142578125,-0.072601318359375,0.9424896240234375,-0.3051910400390625
1772789885535649300,18.542649169921877,-0.071380615234375,0.94061279296875,-0.306060791015625
1772789885555684400,18.562684326171876,-0.0709991455078125,0.94110107421875,-0.30706787109375
1772789885575719400,18.582719482421876,-0.0726165771484375,0.943695068359375,-0.306060791015625
1772789885595753500,18.60275341796875,-0.0742034912109375,0.9438934326171875,-0.30120849609375
1772789885615788500,18.62278857421875,-0.0765228271484375,0.9450836181640625,-0.299102783203125
1772789885635823600,18.64282373046875,-0.0786895751953125,0.94744873046875,-0.3000640869140625
1772789885655858200,18.662858154296874,-0.0788116455078125,0.94757080078125,-0.3004150390625
1772789885675893200,18.682893310546874,-0.0789642333984375,0.942657470703125,-0.296630859375
1772789885695928300,18.70292822265625,-0.0795135498046875,0.943084716796875,-0.298675537109375
1772789885715963400,18.72296337890625,-0.0782928466796875,0.944671630859375,-0.3006744384765625
1772789885735997400,18.74299755859375,-0.0789642333984375,0.9464874267578125,-0.2993621826171875
1772789885756032500,18.763032470703124,-0.080230712890625,0.94451904296875,-0.294036865234375
1772789885776067300,18.7830673828125,-0.0829315185546875,0.9450531005859375,-0.2924652099609375
1772789885796102400,18.803102294921874,-0.0847930908203125,0.9467926025390625,-0.2913970947265625
1772789885816137200,18.82313720703125,-0.0837860107421875,0.9462738037109375,-0.2906646728515625
1772789885836172300,18.84317236328125,-0.08245849609375,0.943939208984375,-0.295135498046875
1772789885856207400,18.863207275390625,-0.08184814453125,0.9408111572265625,-0.299774169921875
1772789885876242400,18.883242431640625,-0.0824432373046875,0.941802978515625,-0.302276611328125
1772789885896276500,18.9032763671875,-0.0819854736328125,0.9440460205078125,-0.30413818359375
1772789885916311300,18.923311279296875,-0.0810699462890625,0.944000244140625,-0.3061370849609375
1772789885936346400,18.943346435546875,-0.081817626953125,0.94207763671875,-0.3056182861328125
1772789885956381400,18.96338134765625,-0.0828857421875,0.9420013427734375,-0.301544189453125
1772789885976416300,18.983416259765626,-0.0828704833984375,0.94451904296875,-0.2975921630859375
1772789885996451000,19.003451171875,-0.082183837890625,0.94512939453125,-0.2943115234375
1772789886016486100,19.023486083984373,-0.0822601318359375,0.9471893310546875,-0.2919158935546875
1772789886036521200,19.043521240234377,-0.0807342529296875,0.94732666015625,-0.2904510498046875
1772789886056555000,19.063554931640624,-0.081268310546875,0.946380615234375,-0.293121337890625
1772789886076590000,19.083590087890624,-0.07928466796875,0.943603515625,-0.295135498046875
1772789886096625200,19.103625244140623,-0.0784912109375,0.9443359375,-0.2990264892578125
1772789886116660200,19.12366015625,-0.080810546875,0.944366455078125,-0.3013763427734375
1772789886136695000,19.143695068359374,-0.0818939208984375,0.9448699951171875,-0.3004913330078125
1772789886156730000,19.163730224609374,-0.0841217041015625,0.943817138671875,-0.2983245849609375
1772789886176765000,19.183764892578125,-0.085540771484375,0.9429931640625,-0.29705810546875
1772789886196799000,19.203799072265625,-0.086090087890625,0.943389892578125,-0.296630859375
1772789886216834000,19.223833984375,-0.0850830078125,0.9441070556640625,-0.2988739013671875
1772789886236869000,19.243869140625,-0.0837249755859375,0.946258544921875,-0.3002777099609375
1772789886256904200,19.263904296875,-0.0822296142578125,0.9450836181640625,-0.2973785400390625
1772789886276939300,19.283939208984375,-0.0824432373046875,0.9433135986328125,-0.2950897216796875
1772789886296974000,19.30397412109375,-0.081512451171875,0.9445037841796875,-0.294342041015625
1772789886317009000,19.3240087890625,-0.0822296142578125,0.94610595703125,-0.2978668212890625
1772789886337043000,19.34404296875,-0.082733154296875,0.9449462890625,-0.2996673583984375
1772789886357078000,19.364078125,-0.083038330078125,0.9418487548828125,-0.2984619140625
1772789886377113000,19.384113037109376,-0.0838623046875,0.9416046142578125,-0.2978057861328125
1772789886397148200,19.404148193359376,-0.086639404296875,0.94366455078125,-0.29876708984375
1772789886417183200,19.424183349609375,-0.0865478515625,0.94305419921875,-0.299224853515625
1772789886437218300,19.44421826171875,-0.085052490234375,0.9400787353515625,-0.296295166015625
1772789886457252900,19.4642529296875,-0.083343505859375,0.9397125244140625,-0.296295166015625
1772789886477288000,19.484287841796874,-0.0821075439453125,0.942413330078125,-0.2999420166015625
1772789886497322000,19.504322021484374,-0.080596923828125,0.9420318603515625,-0.3008270263671875
1772789886517357000,19.524357177734377,-0.07830810546875,0.9408111572265625,-0.3018341064453125
1772789886537392000,19.54439208984375,-0.0757293701171875,0.938720703125,-0.308013916015625
1772789886557427200,19.56442724609375,-0.0770111083984375,0.9369049072265625,-0.3133392333984375
1772789886577462300,19.584462158203124,-0.078887939453125,0.937744140625,-0.314605712890625
1772789886597497000,19.6044970703125,-0.081085205078125,0.9399566650390625,-0.314178466796875
1772789886617532000,19.624531982421875,-0.084869384765625,0.9437408447265625,-0.3101348876953125
1772789886637566200,19.644566162109374,-0.086700439453125,0.9451446533203125,-0.30145263671875
1772789886657601000,19.66460107421875,-0.0877227783203125,0.946746826171875,-0.29010009765625
1772789886677636000,19.684635986328125,-0.0854949951171875,0.9522857666015625,-0.2829742431640625
1772789886697671200,19.704671142578125,-0.080780029296875,0.9488677978515625,-0.2818145751953125
1772789886717706000,19.7247060546875,-0.0773162841796875,0.940216064453125,-0.2829132080078125
1772789886737741000,19.744740966796876,-0.0751190185546875,0.935455322265625,-0.293212890625
1772789886757776100,19.764776123046875,-0.0750274658203125,0.9411773681640625,-0.3129730224609375
1772789886777810200,19.78481005859375,-0.080780029296875,0.944000244140625,-0.328399658203125
1772789886797845200,19.80484521484375,-0.0846099853515625,0.9390411376953125,-0.3240203857421875
1772789886817880000,19.824880126953126,-0.093719482421875,0.9410552978515625,-0.3117828369140625
1772789886837915100,19.8449150390625,-0.1011810302734375,0.946044921875,-0.2966766357421875
1772789886857950000,19.864949951171877,-0.1049346923828125,0.9461517333984375,-0.283447265625
1772789886877985000,19.884985107421876,-0.105499267578125,0.94580078125,-0.2720947265625
1772789886898020000,19.90502001953125,-0.100494384765625,0.943206787109375,-0.2685699462890625
1772789886918054100,19.92505419921875,-0.092010498046875,0.9376220703125,-0.2675018310546875
1772789886938089200,19.945089111328127,-0.08587646484375,0.9338531494140625,-0.2741241455078125
1772789886958124300,19.965124267578126,-0.080596923828125,0.932891845703125,-0.289703369140625
1772789886978159000,19.9851591796875,-0.0795440673828125,0.9312286376953125,-0.3148345947265625
1772789886998194700,20.005194580078125,-0.079437255859375,0.932403564453125,-0.3401947021484375
1772789887018229500,20.0252294921875,-0.0868682861328125,0.9390106201171875,-0.348480224609375
1772789887038264600,20.0452646484375,-0.1007843017578125,0.9501953125,-0.3409576416015625
1772789887058299600,20.065299560546876,-0.115570068359375,0.9627685546875,-0.3177032470703125
1772789887078333700,20.085333740234375,-0.1227569580078125,0.9652099609375,-0.28582763671875
1772789887098368800,20.10536865234375,-0.1221771240234375,0.960662841796875,-0.2579498291015625
1772789887118403600,20.125403564453126,-0.1139068603515625,0.9515533447265625,-0.234466552734375
1772789887138438400,20.1454384765625,-0.10479736328125,0.9448394775390625,-0.2188720703125
1772789887158473500,20.165473388671874,-0.09857177734375,0.942138671875,-0.2129058837890625
1772789887178508500,20.185508544921873,-0.0946807861328125,0.9493560791015625,-0.2308197021484375
1772789887198543600,20.205543701171877,-0.08905029296875,0.9590301513671875,-0.2642974853515625
1772789887218577700,20.22557763671875,-0.0806427001953125,0.9557037353515625,-0.30035400390625
1772789887238612700,20.24561279296875,-0.0740814208984375,0.94708251953125,-0.32928466796875
1772789887258647800,20.265647705078123,-0.07452392578125,0.9399566650390625,-0.344818115234375
1772789887278682400,20.285682373046875,-0.0794830322265625,0.940673828125,-0.34991455078125
1772789887298717400,20.305717529296874,-0.08587646484375,0.9465484619140625,-0.3428497314453125
1772789887318752500,20.32575244140625,-0.092132568359375,0.949615478515625,-0.3280029296875
1772789887338787600,20.34578759765625,-0.0988616943359375,0.94635009765625,-0.3104705810546875
1772789887358821600,20.365821533203125,-0.103759765625,0.942596435546875,-0.2937164306640625
1772789887378856700,20.385856689453124,-0.1065216064453125,0.947296142578125,-0.281097412109375
1772789887398891800,20.405891845703124,-0.10565185546875,0.9512481689453125,-0.2679443359375
1772789887418926600,20.425926513671875,-0.1053009033203125,0.9508209228515625,-0.2580718994140625
1772789887438961400,20.44596142578125,-0.10198974609375,0.9503936767578125,-0.260772705078125
1772789887458996500,20.46599658203125,-0.0978851318359375,0.9442138671875,-0.27020263671875
1772789887479031600,20.486031494140626,-0.0954437255859375,0.936309814453125,-0.2861785888671875
1772789887499065600,20.506065673828125,-0.09710693359375,0.928863525390625,-0.303070068359375
1772789887519100700,20.5261005859375,-0.098297119140625,0.9268035888671875,-0.315948486328125
1772789887539135700,20.5461357421875,-0.1036834716796875,0.9307098388671875,-0.322967529296875
1772789887559170600,20.566170654296876,-0.109466552734375,0.93505859375,-0.3220062255859375
1772789887579205600,20.58620556640625,-0.1115875244140625,0.9365081787109375,-0.313568115234375
1772789887599240400,20.606240478515623,-0.1104736328125,0.9406280517578125,-0.307220458984375
1772789887619275500,20.626275634765626,-0.1054840087890625,0.9461669921875,-0.2988433837890625
1772789887639309600,20.6463095703125,-0.098297119140625,0.94610595703125,-0.29339599609375
1772789887659344600,20.6663447265625,-0.0923309326171875,0.9469451904296875,-0.2920989990234375
1772789887679379500,20.68637939453125,-0.0838775634765625,0.9486846923828125,-0.2943572998046875
1772789887699414500,20.70641455078125,-0.0775909423828125,0.947235107421875,-0.2942962646484375
1772789887719449600,20.72644970703125,-0.07623291015625,0.9434661865234375,-0.2918701171875
1772789887739484700,20.746484619140624,-0.07879638671875,0.9456329345703125,-0.292236328125
1772789887759519500,20.76651953125,-0.0843353271484375,0.9457244873046875,-0.2891082763671875
1772789887779554600,20.786554443359375,-0.0922088623046875,0.94549560546875,-0.2914581298828125
1772789887799588600,20.806588623046874,-0.099029541015625,0.945465087890625,-0.2977294921875
1772789887819623400,20.82662353515625,-0.1068267822265625,0.9471893310546875,-0.3013153076171875
1772789887839658500,20.846658447265625,-0.11126708984375,0.944610595703125,-0.30059814453125
1772789887859693600,20.866693603515625,-0.1135406494140625,0.9406890869140625,-0.3003997802734375
1772789887879728600,20.886728759765624,-0.1125946044921875,0.9400787353515625,-0.2993316650390625
1772789887899763700,20.906763671875,-0.1072540283203125,0.940216064453125,-0.296844482421875
1772789887919798500,20.926798583984375,-0.1002960205078125,0.9453277587890625,-0.29522705078125
1772789887939832600,20.94683251953125,-0.09466552734375,0.9491119384765625,-0.28802490234375
1772789887959867400,20.966867431640626,-0.0898284912109375,0.9522857666015625,-0.2815704345703125
1772789887979902500,20.98690234375,-0.0849609375,0.95318603515625,-0.27996826171875
1772789887999937300,21.006937255859373,-0.083251953125,0.94879150390625,-0.2822113037109375
1772789888019972000,21.02697216796875,-0.0864105224609375,0.9527435302734375,-0.2872772216796875
1772789888040007200,21.047007080078124,-0.0920562744140625,0.9561920166015625,-0.2910308837890625
1772789888060042200,21.067042236328124,-0.0955810546875,0.946990966796875,-0.2806396484375
1772789888080076300,21.087076171875,-0.0996246337890625,0.9447479248046875,-0.27099609375
1772789888100111400,21.107111328125,-0.102874755859375,0.9491729736328125,-0.269683837890625
1772789888120146200,21.127146240234374,-0.10369873046875,0.945953369140625,-0.2771148681640625
1772789888140181200,21.14718115234375,-0.102264404296875,0.9432220458984375,-0.2819366455078125
1772789888160216000,21.167216064453125,-0.1003570556640625,0.9438323974609375,-0.288116455078125
1772789888180251100,21.187251220703125,-0.099884033203125,0.944122314453125,-0.2959136962890625
1772789888200286200,21.2072861328125,-0.1002960205078125,0.9409332275390625,-0.2984161376953125
1772789888220320300,21.2273203125,-0.098541259765625,0.9400482177734375,-0.2998809814453125
1772789888240355300,21.247355224609375,-0.0970611572265625,0.93780517578125,-0.2984161376953125
1772789888260390400,21.267390380859375,-0.0962371826171875,0.9429931640625,-0.29742431640625
1772789888280425200,21.28742529296875,-0.095916748046875,0.9498748779296875,-0.2989959716796875
1772789888300460000,21.3074599609375,-0.09210205078125,0.9482269287109375,-0.297576904296875
1772789888320495000,21.3274951171875,-0.09002685546875,0.945648193359375,-0.2872161865234375
1772789888340530200,21.3475302734375,-0.088775634765625,0.9443359375,-0.2802581787109375
1772789888360564200,21.367564208984376,-0.0899658203125,0.9474334716796875,-0.27996826171875
1772789888380599300,21.387599365234376,-0.088714599609375,0.9535675048828125,-0.2844085693359375
1772789888400634400,21.40763427734375,-0.0864715576171875,0.9510650634765625,-0.283233642578125
1772789888420669400,21.42766943359375,-0.084197998046875,0.94671630859375,-0.2801361083984375
1772789888440704000,21.4477041015625,-0.087646484375,0.9477081298828125,-0.2800750732421875
1772789888460739000,21.467739013671874,-0.090911865234375,0.950286865234375,-0.28460693359375
1772789888480774100,21.487774169921874,-0.093505859375,0.945098876953125,-0.2840423583984375
1772789888500808200,21.50780810546875,-0.0935821533203125,0.942474365234375,-0.2847442626953125
1772789888520843300,21.52784326171875,-0.0931243896484375,0.945831298828125,-0.286224365234375
1772789888540878300,21.54787841796875,-0.092926025390625,0.95050048828125,-0.286773681640625
1772789888560913200,21.5679130859375,-0.087921142578125,0.9502105712890625,-0.2802734375
1772789888580948200,21.5879482421875,-0.0840911865234375,0.944671630859375,-0.2775726318359375
1772789888600983000,21.607983154296875,-0.083160400390625,0.9423828125,-0.2831268310546875
1772789888621017300,21.628017333984374,-0.085601806640625,0.9405059814453125,-0.293731689453125
1772789888641052200,21.64805224609375,-0.0897979736328125,0.9398193359375,-0.304779052734375
1772789888661087200,21.668087158203125,-0.0924530029296875,0.9411773681640625,-0.31195068359375
1772789888681122300,21.688122314453125,-0.09783935546875,0.9426727294921875,-0.313751220703125
1772789888701157000,21.7081572265625,-0.101348876953125,0.941741943359375,-0.3022308349609375
1772789888721192200,21.728192138671876,-0.1016845703125,0.939117431640625,-0.282623291015625
1772789888741227300,21.748227294921875,-0.1019134521484375,0.944976806640625,-0.2706756591796875
1772789888761262000,21.768261962890627,-0.098052978515625,0.950042724609375,-0.2689971923828125
1772789888781296000,21.788296142578126,-0.087554931640625,0.9560089111328125,-0.2747955322265625
1772789888801331200,21.808331298828126,-0.077850341796875,0.9537353515625,-0.2796173095703125
1772789888821366300,21.8283662109375,-0.0719757080078125,0.94573974609375,-0.28704833984375
1772789888841401000,21.848401123046877,-0.075958251953125,0.9389190673828125,-0.3009033203125
1772789888861436200,21.868436279296876,-0.08251953125,0.9329376220703125,-0.3114471435546875
1772789888881471200,21.88847119140625,-0.0900115966796875,0.93475341796875,-0.3163299560546875
1772789888901506300,21.90850634765625,-0.0997314453125,0.9382781982421875,-0.3123931884765625
1772789888921540400,21.928540283203127,-0.1093902587890625,0.9415283203125,-0.30047607421875
1772789888941575200,21.9485751953125,-0.1139068603515625,0.9424896240234375,-0.2859039306640625
1772789888961610200,21.9686103515625,-0.11065673828125,0.9449615478515625,-0.275238037109375
1772789888981645000,21.98864501953125,-0.1063385009765625,0.9503021240234375,-0.281951904296875
1772789889001680600,22.0086806640625,-0.09759521484375,0.9461669921875,-0.293731689453125
1772789889021715700,22.0287158203125,-0.0870208740234375,0.94390869140625,-0.2936859130859375
1772789889041749800,22.048749755859376,-0.0802459716796875,0.9477691650390625,-0.29241943359375
1772789889061784800,22.068784912109376,-0.0766143798828125,0.947662353515625,-0.2926025390625
1772789889081819600,22.088819580078123,-0.076904296875,0.945953369140625,-0.2877197265625
1772789889101854700,22.108854736328126,-0.081451416015625,0.9463653564453125,-0.28582763671875
1772789889121889500,22.1288896484375,-0.08978271484375,0.9466705322265625,-0.2829742431640625
1772789889141924600,22.148924560546874,-0.098236083984375,0.9444122314453125,-0.2799835205078125
1772789889161959700,22.168959716796873,-0.10614013671875,0.9408416748046875,-0.278076171875
1772789889181993700,22.18899365234375,-0.11053466796875,0.9383392333984375,-0.278045654296875
1772789889202028800,22.20902880859375,-0.112091064453125,0.9347991943359375,-0.2838134765625
1772789889222063900,22.22906396484375,-0.111083984375,0.9427947998046875,-0.2979888916015625
1772789889242098700,22.2490986328125,-0.1104583740234375,0.9534149169921875,-0.3090057373046875
1772789889262133500,22.269133544921875,-0.107635498046875,0.94891357421875,-0.2950897216796875
1772789889282168600,22.28916845703125,-0.1018524169921875,0.945953369140625,-0.273468017578125
1772789889302203600,22.30920361328125,-0.0952606201171875,0.95513916015625,-0.2652587890625
1772789889322237700,22.32923779296875,-0.0869598388671875,0.9643707275390625,-0.2666778564453125
1772789889342272800,22.349272705078125,-0.0767364501953125,0.9671783447265625,-0.26611328125
1772789889362307800,22.369307861328124,-0.065673828125,0.9580078125,-0.2628173828125
1772789889382343000,22.389343017578124,-0.0659942626953125,0.954132080078125,-0.263092041015625
1772789889402377700,22.409377685546875,-0.074981689453125,0.9503936767578125,-0.274078369140625
1772789889422412500,22.42941259765625,-0.08880615234375,0.939239501953125,-0.2893524169921875
1772789889442447600,22.449447509765626,-0.1058502197265625,0.9278411865234375,-0.304443359375
1772789889462481700,22.469481689453126,-0.119598388671875,0.9337310791015625,-0.313018798828125
1772789889482516700,22.489516845703125,-0.1292877197265625,0.943695068359375,-0.3093719482421875
1772789889502551800,22.5095517578125,-0.1307373046875,0.9532928466796875,-0.2823944091796875
1772789889522587000,22.5295869140625,-0.1284637451171875,0.9632110595703125,-0.247344970703125
1772789889542621700,22.54962158203125,-0.1182708740234375,0.96746826171875,-0.2244110107421875
1772789889562656800,22.56965673828125,-0.1031494140625,0.965972900390625,-0.2225799560546875
1772789889582691600,22.589691650390623,-0.082855224609375,0.9545135498046875,-0.2472991943359375
1772789889602725600,22.6097255859375,-0.0691375732421875,0.9445037841796875,-0.282684326171875
1772789889622760700,22.6297607421875,-0.0672454833984375,0.938568115234375,-0.312042236328125
1772789889642795800,22.649795654296874,-0.0752410888671875,0.9396209716796875,-0.327728271484375
1772789889662830600,22.66983056640625,-0.0909423828125,0.9416656494140625,-0.319732666015625
1772789889682865700,22.68986572265625,-0.1065826416015625,0.946136474609375,-0.295379638671875
1772789889702900700,22.709900634765624,-0.1181488037109375,0.9507293701171875,-0.2714691162109375
1772789889722934800,22.729934814453124,-0.124176025390625,0.954498291015625,-0.2546844482421875
1772789889742969900,22.749969970703123,-0.1233978271484375,0.952728271484375,-0.2490692138671875
1772789889763004700,22.770004638671875,-0.116912841796875,0.94879150390625,-0.25628662109375
1772789889783039700,22.790039794921874,-0.109039306640625,0.945526123046875,-0.273590087890625
1772789889803074600,22.810074462890626,-0.10089111328125,0.946929931640625,-0.2942657470703125
1772789889823109600,22.830109619140625,-0.0948333740234375,0.9474029541015625,-0.30718994140625
1772789889843144700,22.850144775390625,-0.0893096923828125,0.939666748046875,-0.309600830078125
1772789889863178800,22.8701787109375,-0.0885772705078125,0.9345245361328125,-0.303802490234375
1772789889883213800,22.8902138671875,-0.0943145751953125,0.9444580078125,-0.2914886474609375
1772789889903249000,22.910248779296875,-0.1009368896484375,0.9547271728515625,-0.27703857421875
1772789889923283700,22.93028369140625,-0.10137939453125,0.9561767578125,-0.2608489990234375
1772789889943318500,22.950318603515626,-0.1023406982421875,0.956939697265625,-0.25335693359375
1772789889963353600,22.970353515625,-0.102783203125,0.956268310546875,-0.2539215087890625
1772789889983388700,22.990388671875,-0.09814453125,0.9495086669921875,-0.2703399658203125
1772789890003422700,23.010422607421877,-0.095550537109375,0.943511962890625,-0.2896881103515625
1772789890023457500,23.03045751953125,-0.095977783203125,0.9409027099609375,-0.3028564453125
1772789890043492600,23.05049267578125,-0.0985260009765625,0.940521240234375,-0.30621337890625
1772789890063527700,23.070527587890624,-0.10589599609375,0.9427337646484375,-0.2951507568359375
1772789890083562500,23.0905625,-0.110504150390625,0.9496002197265625,-0.27557373046875
1772789890103597600,23.11059765625,-0.11224365234375,0.9541473388671875,-0.2589111328125
1772789890123631600,23.130631591796874,-0.1100921630859375,0.955810546875,-0.25323486328125
1772789890143666400,23.15066650390625,-0.1043243408203125,0.9557342529296875,-0.258544921875
1772789890163701500,23.170701416015625,-0.09552001953125,0.9521942138671875,-0.2709808349609375
1772789890183736600,23.190736572265624,-0.089630126953125,0.946319580078125,-0.2842559814453125
1772789890203771600,23.210771728515624,-0.08837890625,0.9437408447265625,-0.2918853759765625
1772789890223806700,23.230806640625,-0.0916595458984375,0.9453887939453125,-0.29833984375
1772789890243840800,23.2508408203125,-0.096343994140625,0.9444427490234375,-0.297454833984375
1772789890263875800,23.270875732421874,-0.1012725830078125,0.9452972412109375,-0.285919189453125
1772789890283910400,23.290910400390626,-0.10675048828125,0.9505462646484375,-0.2728271484375
1772789890303945500,23.310945556640625,-0.10980224609375,0.95550537109375,-0.2651824951171875
1772789890323980500,23.33098046875,-0.107696533203125,0.9544219970703125,-0.2628021240234375
1772789890344015600,23.351015625,-0.102752685546875,0.9510498046875,-0.2647857666015625
1772789890364050700,23.37105078125,-0.097808837890625,0.9485015869140625,-0.276702880859375
1772789890384084700,23.391084716796875,-0.0934295654296875,0.944549560546875,-0.2846221923828125
1772789890404119800,23.411119873046875,-0.09381103515625,0.94384765625,-0.285400390625
1772789890424154600,23.431154541015626,-0.0952606201171875,0.9470367431640625,-0.2840576171875
1772789890444189400,23.451189453125,-0.0980682373046875,0.95013427734375,-0.2850494384765625
1772789890464224500,23.471224609375,-0.0980987548828125,0.9481964111328125,-0.28582763671875
1772789890484259600,23.491259521484373,-0.100128173828125,0.9454345703125,-0.2829132080078125
1772789890504294700,23.511294677734377,-0.101043701171875,0.944915771484375,-0.28045654296875
1772789890524328700,23.53132861328125,-0.0993499755859375,0.9455718994140625,-0.2814788818359375
1772789890544363800,23.55136376953125,-0.097930908203125,0.94622802734375,-0.2859954833984375
1772789890564398600,23.571398681640623,-0.096343994140625,0.946807861328125,-0.2911224365234375
1772789890584433700,23.59143359375,-0.096527099609375,0.945770263671875,-0.28875732421875
1772789890604468500,23.611468505859374,-0.09698486328125,0.9460906982421875,-0.2839202880859375
1772789890624503600,23.631503662109374,-0.097412109375,0.9462738037109375,-0.2806854248046875
1772789890644537600,23.65153759765625,-0.0973052978515625,0.9473419189453125,-0.280059814453125
1772789890664572700,23.67157275390625,-0.096923828125,0.947174072265625,-0.2823944091796875
1772789890684607500,23.691607421875,-0.09747314453125,0.9470977783203125,-0.2841033935546875
1772789890704642600,23.711642578125,-0.09613037109375,0.9489288330078125,-0.28729248046875
1772789890724677600,23.731677734375,-0.09454345703125,0.94830322265625,-0.2891998291015625
1772789890744712700,23.751712646484375,-0.0924072265625,0.9443511962890625,-0.2879180908203125
1772789890764746800,23.771746826171874,-0.0914306640625,0.9446868896484375,-0.2905426025390625
1772789890784781600,23.791781494140626,-0.0901641845703125,0.9476318359375,-0.2931060791015625
1772789890804816600,23.811816650390625,-0.09136962890625,0.94915771484375,-0.2909698486328125
1772789890824851500,23.8318515625,-0.0930938720703125,0.9502410888671875,-0.2862396240234375
1772789890844886500,23.851886474609376,-0.094451904296875,0.9505767822265625,-0.2837677001953125
1772789890864921600,23.871921630859376,-0.0953521728515625,0.946868896484375,-0.282470703125
1772789890884956700,23.891956787109375,-0.09515380859375,0.9449920654296875,-0.2831268310546875
1772789890904990700,23.91199072265625,-0.0960540771484375,0.9461822509765625,-0.284149169921875
1772789890925025800,23.93202587890625,-0.0945587158203125,0.947784423828125,-0.2851715087890625
1772789890945060600,23.952060546875,-0.095672607421875,0.9499969482421875,-0.2886962890625
1772789890965095400,23.972095458984374,-0.09344482421875,0.9458770751953125,-0.290435791015625
1772789890985130500,23.992130615234377,-0.09442138671875,0.93878173828125,-0.292999267578125
1772789891005165000,24.0121650390625,-0.095184326171875,0.9366302490234375,-0.2964019775390625
1772789891025198800,24.03219873046875,-0.09820556640625,0.9407958984375,-0.294464111328125
1772789891045234000,24.05223388671875,-0.1010589599609375,0.9502410888671875,-0.2910003662109375
1772789891065269000,24.07226904296875,-0.1008148193359375,0.95404052734375,-0.2861480712890625
1772789891085304000,24.092303955078126,-0.097747802734375,0.9498443603515625,-0.28082275390625
1772789891105339100,24.112339111328126,-0.0959014892578125,0.9478302001953125,-0.2818756103515625
1772789891125374000,24.1323740234375,-0.093719482421875,0.9459686279296875,-0.2835845947265625
1772789891145409000,24.152408935546877,-0.091796875,0.9434356689453125,-0.282073974609375
1772789891165442800,24.17244287109375,-0.0914459228515625,0.942474365234375,-0.2839202880859375
1772789891185478000,24.192477783203124,-0.0905303955078125,0.94189453125,-0.286834716796875
1772789891205513000,24.212512939453124,-0.0928802490234375,0.9440765380859375,-0.2918243408203125
1772789891225548000,24.232548095703127,-0.09521484375,0.94775390625,-0.295196533203125
1772789891245583000,24.2525830078125,-0.0948333740234375,0.9468841552734375,-0.293914794921875
1772789891265618200,24.2726181640625,-0.095306396484375,0.94677734375,-0.29473876953125
1772789891285652000,24.29265185546875,-0.0941162109375,0.9459381103515625,-0.29388427734375
1772789891305687000,24.31268701171875,-0.0946502685546875,0.9473876953125,-0.2922515869140625
1772789891325721900,24.332721923828124,-0.0922698974609375,0.9503173828125,-0.289154052734375
1772789891345757000,24.3527568359375,-0.0902252197265625,0.9497222900390625,-0.2836761474609375
1772789891365792000,24.3727919921875,-0.088775634765625,0.946533203125,-0.281768798828125
1772789891385827000,24.3928271484375,-0.0903167724609375,0.94482421875,-0.282012939453125
1772789891405860900,24.41286083984375,-0.0916595458984375,0.9478912353515625,-0.2843475341796875
1772789891425896000,24.43289599609375,-0.094940185546875,0.94818115234375,-0.285614013671875
1772789891445931000,24.452930908203125,-0.096160888671875,0.94671630859375,-0.2856292724609375
1772789891465966000,24.472966064453125,-0.099853515625,0.947296142578125,-0.2830047607421875
1772789891486001000,24.4930009765625,-0.1008148193359375,0.9476776123046875,-0.2817230224609375
1772789891506036000,24.513035888671876,-0.09814453125,0.9481048583984375,-0.2837371826171875
1772789891526071000,24.533071044921876,-0.0938568115234375,0.948974609375,-0.292449951171875
1772789891546104800,24.553104736328127,-0.09149169921875,0.944854736328125,-0.295989990234375
1772789891566140000,24.573139892578126,-0.0882110595703125,0.9442291259765625,-0.2919921875
1772789891586175000,24.593175048828126,-0.0890960693359375,0.945159912109375,-0.2879638671875
1772789891606210000,24.6132099609375,-0.0903778076171875,0.944427490234375,-0.286773681640625
1772789891626245000,24.6332451171875,-0.0921173095703125,0.9425048828125,-0.2869110107421875
1772789891646280000,24.653280029296877,-0.0930328369140625,0.9452667236328125,-0.2921142578125
1772789891666314000,24.67331396484375,-0.0929718017578125,0.946929931640625,-0.2954254150390625
1772789891686348800,24.693348876953124,-0.092498779296875,0.9468231201171875,-0.29437255859375
1772789891706384000,24.7133837890625,-0.0903778076171875,0.9452667236328125,-0.298095703125
1772789891726419000,24.7334189453125,-0.0877227783203125,0.940185546875,-0.298095703125
1772789891746454000,24.7534541015625,-0.0847625732421875,0.9402313232421875,-0.29815673828125
1772789891766489000,24.773489013671874,-0.085662841796875,0.943115234375,-0.3009796142578125
1772789891786523100,24.793523193359373,-0.087921142578125,0.943695068359375,-0.298614501953125
1772789891806558000,24.813557861328125,-0.089599609375,0.943634033203125,-0.2945556640625
1772789891826593000,24.833593017578124,-0.091888427734375,0.9439239501953125,-0.292327880859375
1772789891846627800,24.8536279296875,-0.0929718017578125,0.94488525390625,-0.2911376953125
1772789891866663000,24.873662841796875,-0.0914306640625,0.9452056884765625,-0.2920074462890625
1772789891886698000,24.893697998046875,-0.0894012451171875,0.948577880859375,-0.29583740234375
1772789891906733000,24.913733154296875,-0.0886688232421875,0.9489593505859375,-0.2958221435546875
1772789891926767000,24.93376708984375,-0.0864105224609375,0.9431915283203125,-0.29400634765625
1772789891946802000,24.953802001953125,-0.085113525390625,0.9412078857421875,-0.29327392578125
1772789891966837000,24.9738369140625,-0.086212158203125,0.937347412109375,-0.289459228515625
1772789891986872000,24.9938720703125,-0.08795166015625,0.942138671875,-0.2904815673828125
1772789892006907000,25.013906982421876,-0.08868408203125,0.9477081298828125,-0.290374755859375
1772789892026941700,25.033941650390624,-0.089202880859375,0.9499053955078125,-0.293701171875
1772789892046975700,25.053975830078127,-0.08758544921875,0.94573974609375,-0.294464111328125
1772789892067010800,25.0740107421875,-0.085205078125,0.942169189453125,-0.29547119140625
1772789892087046000,25.0940458984375,-0.085845947265625,0.94427490234375,-0.2940673828125
1772789892107081000,25.1140810546875,-0.0872344970703125,0.9457550048828125,-0.289581298828125
1772789892127116000,25.134115966796877,-0.0884552001953125,0.945587158203125,-0.2891693115234375
1772789892147150800,25.15415087890625,-0.089569091796875,0.9486846923828125,-0.2881317138671875
1772789892167185000,25.174184814453124,-0.08984375,0.9467620849609375,-0.2854156494140625
1772789892187220000,25.194219970703124,-0.0899200439453125,0.9416961669921875,-0.289306640625
1772789892207254800,25.2142548828125,-0.088348388671875,0.9362640380859375,-0.2981719970703125
1772789892227289900,25.234289794921875,-0.088165283203125,0.940948486328125,-0.3032989501953125
1772789892247325000,25.254324951171874,-0.089996337890625,0.9420166015625,-0.3040771484375
1772789892267360000,25.274360107421874,-0.089508056640625,0.940673828125,-0.30255126953125
1772789892287393800,25.294393798828125,-0.091400146484375,0.9428253173828125,-0.298126220703125
1772789892307428900,25.314428955078125,-0.0924835205078125,0.9464263916015625,-0.2942962646484375
1772789892327464000,25.3344638671875,-0.093170166015625,0.9504852294921875,-0.29144287109375
1772789892347499000,25.3544990234375,-0.093475341796875,0.952911376953125,-0.28985595703125
1772789892367533800,25.374533935546875,-0.0936431884765625,0.9461669921875,-0.2902374267578125
1772789892387569000,25.39456884765625,-0.0947418212890625,0.9402923583984375,-0.2900390625
1772789892407602700,25.414602783203126,-0.09417724609375,0.940399169921875,-0.2863922119140625
1772789892427637800,25.4346376953125,-0.0957489013671875,0.9407806396484375,-0.2875213623046875
1772789892447672800,25.4546728515625,-0.0953369140625,0.9427642822265625,-0.292449951171875
1772789892467708000,25.4747080078125,-0.094757080078125,0.9445953369140625,-0.29290771484375
1772789892487743000,25.494742919921876,-0.0947265625,0.9458465576171875,-0.2915496826171875
1772789892507778000,25.514778076171876,-0.09405517578125,0.945068359375,-0.292449951171875
1772789892527811800,25.534811767578127,-0.0917816162109375,0.941680908203125,-0.29449462890625
1772789892547847000,25.554846923828126,-0.0920257568359375,0.9407958984375,-0.296722412109375
1772789892567881700,25.5748818359375,-0.0915985107421875,0.9432525634765625,-0.2957305908203125
1772789892587916800,25.594916748046874,-0.09332275390625,0.9442138671875,-0.2906494140625
1772789892607952000,25.614951904296873,-0.093048095703125,0.945343017578125,-0.2838897705078125
1772789892627987000,25.634987060546877,-0.09478759765625,0.944854736328125,-0.275146484375
1772789892648022000,25.65502197265625,-0.0984954833984375,0.943756103515625,-0.2664337158203125
1772789892668055800,25.675055908203124,-0.099639892578125,0.94781494140625,-0.2631988525390625
1772789892688091000,25.6950908203125,-0.1000518798828125,0.9529266357421875,-0.263275146484375
