time,seconds_elapsed,z,y,x
1772789867049687000,0.05668701171875,-0.060983914881944656,-0.29821211099624634,-0.26414647698402405
1772789867069722000,0.07672216796875,-0.08092332631349564,-0.384721964597702,-0.1284669041633606
1772789867089757200,0.096757080078125,-0.009587008506059647,-0.518121600151062,-0.03821273893117905
1772789867109792300,0.116792236328125,0.19047243893146515,-0.3315041661262512,0.019045375287532806
1772789867129827300,0.136827392578125,0.471916139125824,0.29604673385620117,-0.08084182441234589
1772789867149862400,0.1568623046875,0.6911589503288269,0.6963931918144226,-0.12886445224285126
1772789867169897200,0.176897216796875,0.8264156579971313,0.8814830183982849,-0.19066163897514343
1772789867189932000,0.19693212890625,0.928943395614624,0.4428495764732361,-0.2938109338283539
1772789867209967000,0.216967041015625,0.8193696737289429,0.052179932594299316,-0.2387017160654068
1772789867230002200,0.237002197265625,0.4970248341560364,0.0156872421503067,-0.06479595601558685
1772789867250037200,0.257037353515625,0.06857192516326904,0.1563916802406311,0.21033693850040436
1772789867270072300,0.277072265625,-0.49304354190826416,-0.7572942972183228,0.34422367811203003
1772789867290107100,0.297107177734375,-0.6402124166488647,-2.6294751167297363,0.7563306093215942
1772789867310142200,0.31714208984375,-0.632474958896637,-2.607296943664551,0.29743173718452454
1772789867330177300,0.33717724609375,-0.550177812576294,-2.1926205158233643,0.030797751620411873
1772789867350211000,0.357211181640625,-0.006635808851569891,-2.212744951248169,0.3985537886619568
1772789867370246100,0.37724609375,0.3045092523097992,-1.960967779159546,1.1191093921661377
1772789867390281200,0.39728125,0.3959697186946869,-1.3793836832046509,1.2724032402038574
1772789867410316300,0.41731640625,0.316901832818985,-1.428024172782898,0.7704808712005615
1772789867430351400,0.437351318359375,0.2914348542690277,-1.255336046218872,0.7428301572799683
1772789867450386200,0.45738623046875,0.43605589866638184,-1.2724584341049194,0.6303238868713379
1772789867470421200,0.477421142578125,0.05664008855819702,-0.9214618802070618,0.050922855734825134
1772789867490456000,0.4974560546875,-0.25142839550971985,-0.7994155883789062,-0.5294759273529053
1772789867510491100,0.5174912109375,0.7587882280349731,-0.946158766746521,-0.47913336753845215
1772789867530526200,0.537526123046875,1.5203253030776978,-1.4936816692352295,-0.13814525306224823
1772789867550561300,0.557561279296875,1.770260214805603,-2.8498406410217285,0.22556966543197632
1772789867570596000,0.57759619140625,1.5853146314620972,-3.9017815589904785,0.5284174084663391
1772789867590631200,0.597631103515625,1.4021453857421875,-4.195483207702637,0.4705759286880493
1772789867610666200,0.617666259765625,1.7877994775772095,-3.625918388366699,0.22474023699760437
1772789867630701300,0.637701416015625,2.3911290168762207,-3.3553545475006104,0.27353888750076294
1772789867650736000,0.657736083984375,2.7881789207458496,-3.547051191329956,0.8648061156272888
1772789867670771200,0.677771240234375,3.104163408279419,-3.2241718769073486,1.1525572538375854
1772789867690806300,0.69780615234375,3.198345184326172,-2.3947925567626953,0.9903465509414673
1772789867710841000,0.717841064453125,3.080191135406494,-1.9833844900131226,0.5962998867034912
1772789867730876200,0.737876220703125,3.051032304763794,-2.2486658096313477,0.1927182674407959
1772789867750911200,0.7579111328125,3.39005708694458,-2.620537042617798,0.2600054144859314
1772789867770946300,0.7779462890625,4.0386481285095215,-3.0437352657318115,1.4166029691696167
1772789867790981400,0.7979814453125,4.054232597351074,-2.790438652038574,2.5621495246887207
1772789867811016400,0.818016357421875,4.0110039710998535,-2.6913440227508545,2.4652841091156006
1772789867831051000,0.838051025390625,4.070240497589111,-2.505535364151001,2.1807329654693604
1772789867851086000,0.858086181640625,4.297338008880615,-2.7780938148498535,2.438213348388672
1772789867871121200,0.87812109375,4.163886547088623,-2.8482038974761963,2.9239041805267334
1772789867891156200,0.89815625,3.8130221366882324,-2.429861545562744,2.844247817993164
1772789867911191300,0.91819140625,3.8258798122406006,-2.2438855171203613,2.6029796600341797
1772789867931225300,0.938225341796875,3.4525954723358154,-1.8666547536849976,2.4575319290161133
1772789867951261200,0.95826123046875,2.711749315261841,-1.7166721820831299,2.4583938121795654
1772789867971295200,0.978295166015625,1.8895151615142822,-1.1108872890472412,2.0304672718048096
1772789867991330800,0.998330810546875,0.8937849402427673,-0.5110189914703369,1.1880218982696533
1772789868011366000,1.018365966796875,0.01665659062564373,-0.1795450747013092,0.8835610747337341
1772789868031401000,1.03840087890625,-0.4510459899902344,0.03645975887775421,1.0062674283981323
1772789868051436000,1.05843603515625,-0.6864656209945679,0.41443508863449097,1.0339680910110474
1772789868071470800,1.078470947265625,-0.43718189001083374,0.9321386218070984,0.6289409399032593
1772789868091506000,1.098505859375,-0.30396541953086853,0.5992717146873474,0.0977770984172821
1772789868111541000,1.118541015625,-0.36034321784973145,0.12299110740423203,0.07337348908185959
1772789868131576000,1.138576171875,-0.03961329907178879,-0.4559776782989502,0.01987713761627674
1772789868151611000,1.15861083984375,-0.24759776890277863,-0.6224735975265503,-0.058147501200437546
1772789868171646000,1.17864599609375,-0.42710742354393005,-0.8469889760017395,-0.018509482964873314
1772789868191681000,1.198680908203125,-0.43564170598983765,-0.7354454398155212,-0.12097331881523132
1772789868211715800,1.2187158203125,-0.35904401540756226,-0.5663470029830933,-0.24483521282672882
1772789868231751000,1.2387509765625,-0.5996724367141724,-0.8282631039619446,0.021419750526547432
1772789868251786000,1.258785888671875,-0.5116826295852661,-0.6690928936004639,0.43194836378097534
1772789868271821000,1.278821044921875,-0.19732066988945007,-0.542986273765564,0.8100370168685913
1772789868291856100,1.298856201171875,-0.18361181020736694,-0.32320383191108704,0.8955280184745789
1772789868311891000,1.318890869140625,-0.2611798942089081,-0.3024044930934906,0.6154048442840576
1772789868331925800,1.33892578125,-0.38352999091148376,0.028236785903573036,0.33190327882766724
1772789868351960800,1.3589609375,-0.01683906279504299,0.44344836473464966,0.6118749976158142
1772789868371996000,1.378995849609375,-0.05105208232998848,1.15606689453125,0.8499820232391357
1772789868392031000,1.399031005859375,-0.3435003161430359,1.576375126838684,0.43352314829826355
1772789868412065000,1.41906494140625,-0.8875682950019836,1.6979143619537354,-0.12000006437301636
1772789868432100000,1.43910009765625,-1.5404845476150513,1.7749640941619873,-0.3118886351585388
1772789868452135000,1.459135009765625,-1.606406807899475,2.182572603225708,-0.04355592653155327
1772789868472170000,1.479169921875,-1.1938550472259521,2.2660086154937744,0.5685083866119385
1772789868492204800,1.499204833984375,-1.008755087852478,1.9401994943618774,0.7482060790061951
1772789868512239900,1.519239990234375,-0.785730242729187,1.4823601245880127,0.5344690084457397
1772789868532275000,1.53927490234375,-0.3009299337863922,0.9206213355064392,0.38407060503959656
1772789868552310000,1.55931005859375,0.44576823711395264,0.9593559503555298,0.5033261775970459
1772789868572345000,1.579344970703125,1.1954010725021362,1.3769919872283936,0.6396681666374207
1772789868592380200,1.599380126953125,0.7863202691078186,0.39197462797164917,0.3667626678943634
1772789868612414700,1.619414794921875,0.4414803087711334,-0.3769835829734802,0.3085055351257324
1772789868632449800,1.63944970703125,0.7204886674880981,-0.5607055425643921,0.9361887574195862
1772789868652484900,1.65948486328125,1.063880205154419,-0.10685942322015762,1.2997684478759766
1772789868672520000,1.67952001953125,0.9368032813072205,0.8352547883987427,0.8491641879081726
1772789868692555000,1.699554931640625,0.8341435194015503,1.0298808813095093,0.5158205032348633
1772789868712590000,1.719590087890625,0.9472604990005493,0.546874463558197,0.23625601828098297
1772789868732625000,1.739625,1.0226449966430664,-0.055680304765701294,0.36857542395591736
1772789868752660000,1.759659912109375,1.0257320404052734,-0.5360764861106873,0.7976304292678833
1772789868772695000,1.779695068359375,1.1233396530151367,-0.3942406177520752,0.5117301940917969
1772789868792729900,1.799729736328125,0.9964271783828735,-0.2691098749637604,-0.25758689641952515
1772789868812765000,1.819764892578125,0.6422134041786194,-0.3279176950454712,-0.11293383687734604
1772789868832799000,1.839799072265625,0.6443029046058655,-0.6834020614624023,0.07126480340957642
1772789868852834000,1.859833984375,0.7191578149795532,-0.7424898743629456,0.011278323829174042
1772789868872869000,1.879869140625,0.9087331891059875,-0.48749494552612305,-0.4631056487560272
1772789868892904000,1.899904052734375,0.6581106781959534,-0.46840614080429077,-1.02731454372406
1772789868912939000,1.91993896484375,0.2674158215522766,-0.9410930871963501,-0.5823713541030884
1772789868932973800,1.939973876953125,0.09981203079223633,-1.429491400718689,-0.5566131472587585
1772789868953009000,1.9600087890625,-0.0322386771440506,-1.907739520072937,-1.2038795948028564
1772789868973044000,1.9800439453125,0.36211273074150085,-1.9053962230682373,-1.7431652545928955
1772789868993078500,2.00007861328125,0.7409811019897461,-1.804223656654358,-2.186793804168701
1772789869013113600,2.020113525390625,0.9067896604537964,-2.2379064559936523,-2.5191574096679688
1772789869033148400,2.0401484375,0.9061155915260315,-2.9089043140411377,-2.314410924911499
1772789869053183500,2.06018359375,0.8056185841560364,-3.2019810676574707,-1.745766043663025
1772789869073218600,2.080218505859375,0.8900871276855469,-3.370554208755493,-1.4578142166137695
1772789869093253600,2.100253662109375,1.1222174167633057,-3.4596288204193115,-1.3205913305282593
1772789869113288700,2.120288818359375,1.4328140020370483,-3.4791665077209473,-1.317993402481079
1772789869133323800,2.14032373046875,2.0684995651245117,-3.142544984817505,-1.4565470218658447
1772789869153358600,2.160358642578125,2.985877275466919,-2.904026746749878,-1.088127613067627
1772789869173393400,2.180393310546875,2.887009382247925,-1.4929742813110352,-0.6022647619247437
1772789869193428500,2.200428466796875,2.3392651081085205,-0.3126543462276459,0.22636906802654266
1772789869213462500,2.220462646484375,1.8882840871810913,0.9922268986701965,0.3210831582546234
1772789869233497600,2.24049755859375,1.6297880411148071,3.0351057052612305,0.2271909862756729
1772789869253532700,2.26053271484375,1.6035677194595337,4.74069356918335,0.29045218229293823
1772789869273567700,2.280567626953125,1.4481487274169922,6.443344593048096,0.31656137108802795
1772789869293602600,2.3006025390625,1.189907193183899,7.351335048675537,0.31974002718925476
1772789869313637400,2.320637451171875,0.9007633924484253,7.257582187652588,0.35071271657943726
1772789869333672400,2.34067236328125,0.20239950716495514,6.971090316772461,0.6063529849052429
1772789869353707500,2.36070751953125,-0.42203861474990845,6.348666191101074,0.6862438917160034
1772789869373742600,2.38074267578125,-1.271195888519287,6.4303975105285645,1.1202061176300049
1772789869393777700,2.400777587890625,-1.5225454568862915,5.097983360290527,0.5417821407318115
1772789869413812700,2.420812744140625,-1.8958014249801636,3.8398330211639404,-1.0227644443511963
1772789869433847600,2.44084765625,-2.283226490020752,3.074890375137329,-2.3111956119537354
1772789869453882600,2.460882568359375,-2.8571486473083496,2.4533987045288086,-3.274547576904297
1772789869473917400,2.48091748046875,-3.3031980991363525,1.129331111907959,-3.7427542209625244
1772789869493952500,2.500952392578125,-3.173990249633789,-0.47609615325927734,-3.520186424255371
1772789869513987600,2.520987548828125,-1.9988150596618652,-2.499528408050537,-2.765740156173706
1772789869534022700,2.541022705078125,-0.9513619542121887,-2.975292205810547,-1.599057912826538
1772789869554056700,2.561056640625,-0.5000024437904358,-2.79025936126709,-0.5843188166618347
1772789869574091800,2.581091796875,-0.03071892447769642,-3.3859786987304688,0.05983339622616768
1772789869594126300,2.601126220703125,0.2559502124786377,-4.356705665588379,0.2142266035079956
1772789869614161400,2.621161376953125,0.032386112958192825,-3.920572519302368,0.04818115755915642
1772789869634196500,2.641196533203125,0.04741682484745979,-2.8595309257507324,-0.5615280866622925
1772789869654231600,2.6612314453125,0.9367757439613342,-1.7643638849258423,-1.3041425943374634
1772789869674266600,2.6812666015625,1.9520463943481445,-0.5086639523506165,-1.446209192276001
1772789869694301700,2.7013017578125,2.1153130531311035,-0.09736302495002747,-1.2778044939041138
1772789869714336500,2.72133642578125,1.6548982858657837,-0.4163399934768677,-1.0209341049194336
1772789869734371600,2.74137158203125,0.7926236987113953,-1.012580156326294,-0.8382005095481873
1772789869754406700,2.76140673828125,0.1839040070772171,-1.3771907091140747,-0.5648564100265503
1772789869774441500,2.78144140625,-0.0023670634254813194,-1.5734349489212036,-0.13241206109523773
1772789869794476500,2.8014765625,0.2490798979997635,-1.9134712219238281,0.45971348881721497
1772789869814511600,2.82151171875,0.4441353976726532,-1.5714505910873413,1.1597254276275635
1772789869834546700,2.841546630859375,0.4471292495727539,-0.7124308943748474,1.2944395542144775
1772789869854581500,2.86158154296875,0.19812677800655365,-0.2708316743373871,0.9439941048622131
1772789869874616600,2.881616455078125,0.0637858435511589,-0.15991391241550446,0.5080273151397705
1772789869894650600,2.901650634765625,0.232466921210289,-0.05950615555047989,0.13775931298732758
1772789869914685400,2.921685546875,0.4279761016368866,-0.015767719596624374,-0.08623981475830078
1772789869934720500,2.941720458984375,0.24948076903820038,0.2047490030527115,-0.12256572395563126
1772789869954755600,2.961755615234375,0.25403228402137756,0.06170700490474701,0.09762722998857498
1772789869974790700,2.981790771484375,0.038446858525276184,0.2853050231933594,0.3915543258190155
1772789869994825700,3.00182568359375,0.00307430699467659,0.5008606314659119,0.36741214990615845
1772789870014860500,3.021860595703125,0.06220737099647522,0.6132564544677734,0.26031583547592163
1772789870034895600,3.0418955078125,0.11033041775226593,0.7043578028678894,0.13811907172203064
1772789870054930700,3.0619306640625,-0.01605342887341976,0.536880612373352,0.07664912939071655
1772789870074965800,3.0819658203125,-0.19465021789073944,0.37375712394714355,0.19534610211849213
1772789870095000800,3.102000732421875,-0.18478822708129883,0.13526302576065063,0.25261998176574707
1772789870115035600,3.12203564453125,0.2272430658340454,-0.30156710743904114,0.3024314343929291
1772789870135070700,3.14207080078125,0.5138580203056335,-0.617379367351532,0.44251060485839844
1772789870155105500,3.16210546875,0.5730277299880981,-0.6788033843040466,0.5739738941192627
1772789870175140600,3.182140625,0.5941352248191833,-0.6733327507972717,0.4489261507987976
1772789870195175700,3.20217578125,0.647431492805481,-0.6231266856193542,0.058858782052993774
1772789870215209700,3.222209716796875,0.552114725112915,-0.6016378998756409,-0.3204551935195923
1772789870235244800,3.242244873046875,0.1267581433057785,-0.41603824496269226,-0.35203757882118225
1772789870255279900,3.26227978515625,-0.34220245480537415,-0.1684228628873825,-0.040031999349594116
1772789870275314700,3.282314697265625,-0.4589899480342865,-0.02779398486018181,0.39467406272888184
1772789870295349500,3.302349609375,-0.2709614038467407,0.12935900688171387,0.6535114049911499
1772789870315384600,3.322384521484375,-0.12426617741584778,0.13981980085372925,0.6223055124282837
1772789870335419600,3.342419677734375,-0.08794917911291122,0.1335071474313736,0.3289828300476074
1772789870355454700,3.362454833984375,0.003610465209931135,-0.06295108050107956,0.12491607666015625
1772789870375489800,3.38248974609375,0.08819185197353363,-0.0888431966304779,0.04253925010561943
1772789870395524900,3.40252490234375,0.07273632287979126,-0.08373717218637466,-0.0928911343216896
1772789870415559700,3.4225595703125,0.09573199599981308,-0.02448389306664467,-0.13643230497837067
1772789870435594800,3.4425947265625,-0.08878311514854431,0.14942562580108643,0.04435998201370239
1772789870455629600,3.462629638671875,-0.13758334517478943,0.029023297131061554,0.1710534244775772
1772789870475664600,3.48266455078125,-0.14429287612438202,0.0026996955275535583,0.08559411764144897
1772789870495699700,3.50269970703125,-0.09461889415979385,-0.00497379619628191,-0.040042515844106674
1772789870515734800,3.52273486328125,-0.03599702566862106,-0.023549048230051994,-0.08873266726732254
1772789870535768800,3.542768798828125,-0.02226223237812519,0.034918323159217834,-0.09228938817977905
1772789870555803600,3.5628037109375,0.005157229024916887,0.0862562507390976,-0.1168062686920166
1772789870575838700,3.582838623046875,0.05673885717988014,0.1202506273984909,-0.1467483788728714
1772789870595873500,3.60287353515625,0.10159361362457275,0.10687040537595749,-0.12403315305709839
1772789870615908600,3.62290869140625,0.0894087627530098,0.1551690250635147,-0.056010060012340546
1772789870635943700,3.642943603515625,-0.08481007069349289,0.19736285507678986,0.0845264345407486
1772789870655978800,3.662978759765625,-0.1938384473323822,0.011983160860836506,0.17407380044460297
1772789870676013800,3.683013916015625,-0.14161831140518188,-0.26007890701293945,0.15339292585849762
1772789870696048600,3.703048583984375,-0.04894978553056717,-0.29338884353637695,0.08264516294002533
1772789870716083700,3.723083740234375,-0.005239549092948437,-0.17389382421970367,0.053254470229148865
1772789870736118800,3.743118896484375,-0.004020729102194309,-0.04831254482269287,0.048579927533864975
1772789870756153900,3.76315380859375,0.00814671441912651,-0.012034735642373562,0.053189076483249664
1772789870776188700,3.783188720703125,0.027392204850912094,-0.03688584640622139,0.04679759219288826
1772789870796223700,3.8032236328125,0.010266619734466076,-0.04248509556055069,0.027651457116007805
1772789870816258600,3.823258544921875,-0.02261863648891449,-0.1178521141409874,0.006768288556486368
1772789870836292900,3.84329296875,-0.009863948449492455,-0.21047623455524445,0.0001628408208489418
1772789870856327700,3.86332763671875,0.018435824662446976,-0.2887313961982727,0.036969635635614395
1772789870876362800,3.88336279296875,0.06383368372917175,-0.3144584596157074,0.08510171622037888
1772789870896397600,3.9033974609375,0.16341058909893036,-0.5252044200897217,0.09947003424167633
1772789870916432600,3.9234326171875,0.17084994912147522,-0.4654495418071747,0.08835311233997345
1772789870936467700,3.9434677734375,0.059712447226047516,-0.3335716724395752,0.33444684743881226
1772789870956502800,3.963502685546875,-0.06581452488899231,-0.3630702495574951,0.36774054169654846
1772789870976537600,3.98353759765625,-0.16235022246837616,-0.20978058874607086,0.17688706517219543
1772789870996572700,4.00357275390625,-0.07572343200445175,-0.10323883593082428,-0.009731298312544823
1772789871016607500,4.023607421875,0.06792324781417847,0.06432648003101349,0.05058740824460983
1772789871036642600,4.043642578125,0.07091844081878662,0.1833397001028061,0.17764022946357727
1772789871056677600,4.063677734375,0.037740558385849,0.14750853180885315,0.19078314304351807
1772789871076712700,4.083712646484375,-0.008157267235219479,0.0741591826081276,0.1169218197464943
1772789871096747500,4.10374755859375,-0.04335087910294533,0.08626163005828857,0.03201858326792717
1772789871116782600,4.123782470703125,-0.0550818145275116,0.10037044435739517,-0.046172112226486206
1772789871136816600,4.143816650390625,-0.014086252078413963,0.17031429708003998,-0.07137219607830048
1772789871156851500,4.1638515625,0.02637418918311596,0.14713680744171143,-0.08506680279970169
1772789871176886500,4.183886474609375,0.002696150215342641,0.08445154130458832,-0.1215335950255394
1772789871196921600,4.203921630859375,-0.04022925719618797,0.01955632120370865,-0.1465507447719574
1772789871216956700,4.223956787109375,-0.038323692977428436,-0.07321561872959137,-0.13487713038921356
1772789871236991700,4.24399169921875,0.010169106535613537,-0.042640943080186844,-0.12803024053573608
1772789871257026600,4.264026611328125,0.02455776184797287,0.012604955583810806,-0.13350743055343628
1772789871277061600,4.2840615234375,-0.000005597714334726334,0.03471723571419716,-0.12450012564659119
1772789871297096700,4.3040966796875,-0.013593086041510105,0.06020922213792801,-0.10093563050031662
1772789871317131500,4.324131591796875,-0.024123981595039368,0.002700977958738804,-0.11003436893224716
1772789871337166600,4.34416650390625,-0.02259889617562294,-0.057095006108284,-0.08590815216302872
1772789871357201700,4.36420166015625,-0.014256213791668415,-0.1954188197851181,-0.03611695393919945
1772789871377236500,4.384236572265625,0.03504682332277298,-0.29334351420402527,-0.006569915451109409
1772789871397271600,4.404271484375,0.09894958883523941,-0.28731805086135864,-0.03398551419377327
1772789871417305600,4.4243056640625,0.11855627596378326,-0.2516888976097107,-0.008446029387414455
1772789871437340700,4.444340576171875,0.0410771369934082,-0.21111588180065155,0.08327730000019073
1772789871457375500,4.46437548828125,-0.02437499165534973,-0.22861191630363464,0.10574760288000107
1772789871477410600,4.48441064453125,-0.03995662182569504,-0.23024579882621765,0.0496491938829422
1772789871497445600,4.504445556640625,-0.005215493496507406,-0.24820570647716522,0.03286043554544449
1772789871517480700,4.524480712890625,0.00031446130014956,-0.14765378832817078,0.0016823667101562023
1772789871537515500,4.544515625,-0.05432291328907013,-0.15390872955322266,-0.024658720940351486
1772789871557550600,4.564550537109375,-0.06934402883052826,-0.32407164573669434,0.04663604125380516
1772789871577585700,4.584585693359375,-0.08799099922180176,-0.4273562431335449,0.03424812853336334
1772789871597620700,4.604620849609375,-0.11395265907049179,-0.3812239468097687,-0.03287434205412865
1772789871617655600,4.624655517578125,-0.13137896358966827,-0.20811448991298676,-0.1311807632446289
1772789871637690600,4.644690673828125,-0.13054275512695312,0.14288301765918732,-0.08028454333543777
1772789871657725700,4.6647255859375,-0.07367438822984695,0.13776588439941406,0.048426005989313126
1772789871677760500,4.684760498046875,-0.01446959562599659,0.00814871210604906,0.07989386469125748
1772789871697794600,4.704794677734375,0.012771346606314182,-0.11035050451755524,0.007307284511625767
1772789871717829600,4.72482958984375,0.07993818074464798,-0.12093934416770935,-0.04501616209745407
1772789871737864700,4.74486474609375,0.06599076092243195,-0.04315384477376938,-0.04004838317632675
1772789871757899500,4.7648994140625,0.022538114339113235,0.00797604862600565,-0.013954758644104004
1772789871777934600,4.7849345703125,0.04167063906788826,-0.015675928443670273,-0.040085531771183014
1772789871797969700,4.8049697265625,0.0765681192278862,0.00606091134250164,-0.07883686572313309
1772789871818004700,4.825004638671875,0.05658959969878197,0.12605001032352448,-0.09714823216199875
1772789871838039600,4.84503955078125,-0.003535328432917595,0.14657393097877502,-0.10460180044174194
1772789871858074600,4.86507470703125,-0.018629765138030052,0.06270477920770645,-0.0938456654548645
1772789871878109700,4.885109619140625,-0.001637965440750122,-0.11820798367261887,-0.08047076314687729
1772789871898144800,4.905144775390625,-0.014253295958042145,-0.23200514912605286,-0.08700995147228241
1772789871918179600,4.9251796875,-0.05663199722766876,-0.16634880006313324,-0.02862485684454441
1772789871938214700,4.945214599609375,-0.049220141023397446,-0.11052166670560837,0.054377079010009766
1772789871958249500,4.96524951171875,-0.06651881337165833,-0.11567171663045883,0.08720143884420395
1772789871978283500,4.985283447265625,-0.09294836223125458,-0.12926296889781952,0.07316772639751434
1772789871998318600,5.005318603515625,-0.11312102526426315,-0.19148248434066772,0.07503221184015274
1772789872018353400,5.025353515625,-0.09291109442710876,-0.30279144644737244,0.15010832250118256
1772789872038388500,5.045388427734375,-0.03869490697979927,-0.407979816198349,0.22350150346755981
1772789872058423600,5.065423583984375,-0.02116324193775654,-0.46725717186927795,0.28221774101257324
1772789872078458600,5.085458740234375,-0.04713074490427971,-0.42185649275779724,0.32334500551223755
1772789872098493700,5.10549365234375,-0.0816507562994957,-0.3866842985153198,0.35772815346717834
1772789872118528500,5.125528564453125,-0.07851596921682358,-0.35715699195861816,0.35547003149986267
1772789872138563600,5.1455634765625,0.03828700631856918,-0.4318927526473999,0.34767428040504456
1772789872158598700,5.1655986328125,0.12288271635770798,-0.4997497797012329,0.2950117290019989
1772789872178633700,5.1856337890625,0.08185966312885284,-0.5209721922874451,0.25193774700164795
1772789872198668500,5.20566845703125,0.03013073280453682,-0.446736216545105,0.2418866604566574
1772789872218703600,5.22570361328125,0.04631895199418068,-0.3526119291782379,0.24096448719501495
1772789872238737700,5.245737548828125,0.05079248547554016,-0.29139095544815063,0.22916218638420105
1772789872258772700,5.265772705078125,-0.0034958503674715757,-0.25521960854530334,0.1973646581172943
1772789872278807600,5.2858076171875,-0.11315372586250305,-0.27873310446739197,0.16931286454200745
1772789872298842600,5.305842529296875,-0.18012480437755585,-0.22372636198997498,0.15975826978683472
1772789872318877700,5.325877685546875,-0.12722407281398773,-0.14831648766994476,0.19611604511737823
1772789872338912500,5.34591259765625,-0.08185053616762161,-0.12498725950717926,0.2089642733335495
1772789872358947600,5.365947509765625,-0.061838626861572266,-0.17277756333351135,0.19776874780654907
1772789872378982700,5.385982666015625,-0.07434821873903275,-0.21669140458106995,0.20569130778312683
1772789872399017500,5.406017578125,-0.12274348735809326,-0.20075272023677826,0.2227875292301178
1772789872419052500,5.426052490234375,-0.1811935305595398,-0.14504273235797882,0.2455378919839859
1772789872439087600,5.446087646484375,-0.22854453325271606,-0.0425429493188858,0.2642202079296112
1772789872459122700,5.466122802734375,-0.26376059651374817,0.07843047380447388,0.28285253047943115
1772789872479157800,5.48615771484375,-0.27050232887268066,0.1779722273349762,0.28076136112213135
1772789872499192600,5.506192626953125,-0.3163544535636902,0.21409539878368378,0.27391934394836426
1772789872519226600,5.5262265625,-0.4518619477748871,0.24116316437721252,0.30687013268470764
1772789872539261700,5.54626171875,-0.5572174787521362,0.38175639510154724,0.35353541374206543
1772789872559296500,5.566296630859375,-0.6485453248023987,0.5792732238769531,0.4710320830345154
1772789872579331600,5.58633154296875,-0.6722341775894165,0.7953991293907166,0.6160483956336975
1772789872599366700,5.60636669921875,-0.6825960278511047,0.9580966234207153,0.7694627642631531
1772789872619401700,5.626401611328125,-0.7546425461769104,0.9206971526145935,0.986384928226471
1772789872639436500,5.6464365234375,-0.9916250705718994,1.097145438194275,1.306475043296814
1772789872659471600,5.6664716796875,-1.1415445804595947,1.214589238166809,1.668420672416687
1772789872679506400,5.68650634765625,-1.0154567956924438,1.116519808769226,1.9523361921310425
1772789872699541500,5.70654150390625,-0.6207038760185242,1.7962011098861694,2.2650163173675537
1772789872719576600,5.72657666015625,-0.16445082426071167,2.7793874740600586,2.4203338623046875
1772789872739611600,5.746611572265625,0.12320420145988464,2.484297275543213,1.777894377708435
1772789872759646700,5.766646728515625,0.038396891206502914,0.4021349847316742,0.47088685631752014
1772789872779680500,5.786680419921875,-0.03888532146811485,-1.7800720930099487,-0.6982464790344238
1772789872799715600,5.806715576171875,0.07769162952899933,-2.917781114578247,-1.3457145690917969
1772789872819750700,5.826750732421875,0.2839498221874237,-2.4770030975341797,-1.5540739297866821
1772789872839785500,5.846785400390625,0.3694879412651062,-1.0888891220092773,-1.5121816396713257
1772789872859820500,5.866820556640625,0.21239347755908966,0.04808623343706131,-1.270126461982727
1772789872879855600,5.886855712890625,-0.06413604319095612,0.5546725988388062,-0.8879908919334412
1772789872899890700,5.906890625,-0.24536965787410736,0.4881182610988617,-0.37358760833740234
1772789872919925800,5.92692578125,-0.21508066356182098,0.1076086014509201,0.09310176223516464
1772789872939960600,5.946960693359375,-0.05709156394004822,-0.2632429301738739,0.4195200800895691
1772789872959995400,5.966995361328125,0.10263889282941818,-0.25230515003204346,0.627437174320221
1772789872980030500,5.987030517578125,0.059235673397779465,0.17954933643341064,0.7514398097991943
1772789873000065300,6.007065185546875,-0.06722808629274368,0.6999865174293518,0.7826431393623352
1772789873020100400,6.027100341796875,-0.14447593688964844,1.0055357217788696,0.7391432523727417
1772789873040134400,6.047134521484375,-0.12213054299354553,0.9651007652282715,0.6082159876823425
1772789873060169200,6.067169189453125,-0.05230008065700531,0.6439788341522217,0.4222240447998047
1772789873080204300,6.087204345703125,0.020445499569177628,0.216401144862175,0.19671955704689026
1772789873100239400,6.1072392578125,0.07174452394247055,-0.15342634916305542,-0.030828261747956276
1772789873120274400,6.1272744140625,0.09150120615959167,-0.3619474172592163,-0.23755961656570435
1772789873140309200,6.147309326171875,0.11259109526872635,-0.43297138810157776,-0.40949493646621704
1772789873160344300,6.16734423828125,0.130480095744133,-0.4234379529953003,-0.5219914317131042
1772789873180379400,6.18737939453125,0.13125593960285187,-0.3599623441696167,-0.5736805200576782
1772789873200414500,6.20741455078125,0.10198928415775299,-0.26552826166152954,-0.551546037197113
1772789873220449500,6.227449462890625,0.055094052106142044,-0.1562664657831192,-0.4526459574699402
1772789873240484400,6.247484375,-0.0007393513806164265,-0.0861576646566391,-0.29141342639923096
1772789873260519200,6.267519287109375,-0.025468427687883377,-0.06450080126523972,-0.07357373833656311
1772789873280553200,6.28755322265625,-0.0034204102121293545,-0.07497872412204742,0.1150454580783844
1772789873300588300,6.30758837890625,0.027678387239575386,-0.058919601142406464,0.23379288613796234
1772789873320623400,6.327623291015625,0.026625001803040504,0.0276339054107666,0.2944374084472656
1772789873340658400,6.347658447265625,-0.005472077056765556,0.14217624068260193,0.3153737485408783
1772789873360693200,6.367693359375,-0.03131236508488655,0.178968608379364,0.30705365538597107
1772789873380728300,6.387728271484375,-0.043828126043081284,0.10072436183691025,0.26356738805770874
1772789873400763400,6.407763427734375,-0.032218385487794876,-0.023156888782978058,0.19421420991420746
1772789873420798200,6.427798095703125,-0.0024169799871742725,-0.1000700518488884,0.09847213327884674
1772789873440833300,6.447833251953125,0.02032470703125,-0.11550501734018326,0.003886610735207796
1772789873460868400,6.467868408203125,0.018095385283231735,-0.14918991923332214,-0.07837045192718506
1772789873480903400,6.4879033203125,-0.02115466631948948,-0.21569083631038666,-0.15166985988616943
1772789873500938500,6.5079384765625,-0.0653207004070282,-0.2868712842464447,-0.21198149025440216
1772789873520973600,6.5279736328125,-0.07460000365972519,-0.31217092275619507,-0.24772398173809052
1772789873541007400,6.54800732421875,-0.04173346236348152,-0.2721654772758484,-0.23782044649124146
1772789873561042400,6.56804248046875,-0.021495018154382706,-0.19547344744205475,-0.14391206204891205
1772789873581077200,6.5880771484375,-0.0471012257039547,-0.13037312030792236,-0.02011697366833687
1772789873601112300,6.6081123046875,-0.058826908469200134,-0.05831477791070938,0.0874558761715889
1772789873621147400,6.6281474609375,-0.02776442840695381,0.0427900105714798,0.15711893141269684
1772789873641182500,6.648182373046875,0.006690089125186205,0.12782080471515656,0.19851204752922058
1772789873661217300,6.66821728515625,0.020665911957621574,0.13450443744659424,0.21866384148597717
1772789873681252400,6.68825244140625,0.011956894770264626,0.07595844566822052,0.2159436196088791
1772789873701287200,6.708287109375,-0.01090601272881031,0.04598400741815567,0.18843044340610504
1772789873721322200,6.728322265625,-0.04235353320837021,0.07791732251644135,0.13299234211444855
1772789873741357300,6.748357421875,-0.050983719527721405,0.09482827037572861,0.04009164497256279
1772789873761392400,6.768392333984375,-0.017573215067386627,0.05077788978815079,-0.06158606708049774
1772789873781426400,6.788426513671875,0.02455008029937744,-0.02130635268986225,-0.14484401047229767
1772789873801461200,6.808461181640625,0.023485910147428513,-0.08678048104047775,-0.17181149125099182
1772789873821496300,6.828496337890625,0.005180537700653076,-0.10002676397562027,-0.15157397091388702
1772789873841531400,6.848531494140625,0.006555366329848766,-0.05987798050045967,-0.11057765036821365
1772789873861566200,6.868566162109375,0.006968400441110134,-0.010192373767495155,-0.06629431992769241
1772789873881601300,6.888601318359375,-0.005816914141178131,0.026101889088749886,-0.02509947121143341
1772789873901636400,6.90863623046875,-0.015972740948200226,0.05857918784022331,0.031085100024938583
1772789873921671400,6.92867138671875,-0.02247493341565132,0.07963583618402481,0.08254677802324295
1772789873941706500,6.94870654296875,-0.01768644154071808,0.08746527880430222,0.09263231605291367
1772789873961741600,6.968741455078125,-0.0005239346064627171,0.07598301023244858,0.07431505620479584
1772789873981776100,6.988776123046875,-0.0039089820347726345,0.051783062517642975,0.04656241834163666
1772789874001811200,7.008811279296875,-0.014183137565851212,0.040105320513248444,0.026679478585720062
1772789874021845200,7.02884521484375,-0.02022375352680683,0.044992998242378235,0.010597740299999714
1772789874041880000,7.048880126953125,-0.019963359460234642,0.040131159126758575,-0.007026728708297014
1772789874061915100,7.0689150390625,-0.011752855032682419,-0.0001661265268921852,-0.025785483419895172
1772789874081950200,7.0889501953125,-0.006109115667641163,-0.06665509194135666,-0.0527784526348114
1772789874101985300,7.1089853515625,-0.006812659557908773,-0.08650179207324982,-0.06474995613098145
1772789874122020400,7.129020263671875,0.0010167260188609362,-0.032515108585357666,-0.06377600133419037
1772789874142055200,7.14905517578125,0.0030853089410811663,0.028429830446839333,-0.042345643043518066
1772789874162090200,7.16909033203125,-0.008911543525755405,0.04690863937139511,-0.0005184430629014969
1772789874182125300,7.189125244140625,-0.00725230248644948,0.04483051225543022,0.04135860130190849
1772789874202160400,7.209160400390625,0.0077988700941205025,0.057904645800590515,0.06589531153440475
1772789874222195200,7.2291953125,0.012991491705179214,0.07018598914146423,0.06803437322378159
1772789874242230300,7.249230224609375,0.008820257149636745,0.07584761083126068,0.05292884260416031
1772789874262264300,7.269264404296875,0.009835474193096161,0.06239324435591698,0.015671467408537865
1772789874282299400,7.28929931640625,0.010449588298797607,0.04885976389050484,-0.027021126821637154
1772789874302334200,7.309334228515625,-0.0007031017448753119,0.046787556260824203,-0.06259731948375702
1772789874322369300,7.329369384765625,-0.007447897922247648,0.04394669085741043,-0.07472102344036102
1772789874342404000,7.349404052734375,-0.007739630527794361,0.015193481929600239,-0.07567990571260452
1772789874362439200,7.369439208984375,-0.0017926963046193123,-0.015460902824997902,-0.0689680427312851
1772789874382474200,7.38947412109375,0.00021351664327085018,-0.017549408599734306,-0.06095091253519058
1772789874402509300,7.40950927734375,-0.013890596106648445,0.009657350368797779,-0.04509151354432106
1772789874422544100,7.429544189453125,-0.02078709565103054,0.0412505567073822,-0.03401438519358635
1772789874442579200,7.4495791015625,-0.011777834966778755,0.052493032068014145,-0.02294021099805832
1772789874462614300,7.4696142578125,-0.00021353759802877903,0.037707310169935226,-0.012925980612635612
1772789874482649300,7.4896494140625,-0.002129734493792057,0.012829180806875229,0.0020074769854545593
1772789874502683100,7.50968310546875,-0.003256465308368206,0.020293965935707092,0.011427829042077065
1772789874522718200,7.52971826171875,-0.003308823797851801,0.05325274541974068,0.014945222064852715
1772789874542753300,7.549753173828125,-0.007294957991689444,0.062207527458667755,0.010777823626995087
1772789874562788400,7.569788330078125,-0.004532415885478258,0.029309075325727463,-0.008386586792767048
1772789874582823200,7.5898232421875,-0.003177572274580598,0.0014155944809317589,-0.019607115536928177
1772789874602858200,7.609858154296875,-0.0019965129904448986,-0.006108514964580536,-0.027709728106856346
1772789874622893300,7.629893310546875,-0.00789531972259283,-0.012227196246385574,-0.03219938650727272
1772789874642928400,7.649928466796875,-0.014140112325549126,-0.017954977229237556,-0.040371086448431015
1772789874662963200,7.669963134765625,-0.019157858565449715,-0.011793656274676323,-0.04453884810209274
1772789874682998300,7.689998291015625,-0.017460551112890244,0.005514897406101227,-0.04054603725671768
1772789874703033000,7.710033203125,-0.013029372319579124,0.017605170607566833,-0.02416488714516163
1772789874723068200,7.730068115234375,0.0008944333530962467,0.02282789722084999,-0.007670598104596138
1772789874743102200,7.750102294921875,0.013431796804070473,0.009641255252063274,0.0020510051399469376
1772789874763137300,7.77013720703125,0.016583777964115143,-0.010533505119383335,0.0011952104978263378
1772789874783172000,7.790172119140625,0.01449150126427412,-0.01828835904598236,-0.004821577109396458
1772789874803207200,7.810207275390625,0.005671429913491011,-0.014497468248009682,-0.00495692016556859
1772789874823242200,7.8302421875,0.0016810568049550056,0.0009148027747869492,-0.00447473069652915
1772789874843277300,7.85027734375,0.0021843507420271635,-0.002062395215034485,-0.002827787073329091
1772789874863312100,7.87031201171875,0.002615133533254266,-0.022454341873526573,0.002529812976717949
1772789874883347200,7.89034716796875,0.0028394246473908424,-0.03512977808713913,0.010171699337661266
1772789874903382300,7.91038232421875,0.004434466361999512,-0.023115387186408043,0.019679909572005272
1772789874923417300,7.930417236328125,-0.0006264662370085716,-0.016525879502296448,0.024107011035084724
1772789874943452400,7.950452392578125,-0.00357728055678308,-0.024100730195641518,0.014936177060008049
1772789874963486200,7.970486328125,-0.0026281399186700583,-0.021752450615167618,0.0007274234667420387
1772789874983521300,7.990521240234375,-0.0010817921720445156,-0.017761247232556343,-0.004252799320966005
1772789875003555800,8.010555908203125,-0.007227857131510973,-0.015182966366410255,-0.0010468668770045042
1772789875023591000,8.0305908203125,-0.006140987854450941,-0.013304685242474079,0.00026869913563132286
1772789875043625700,8.050625732421874,0.0018238024786114693,0.0020011067390441895,0.001976244617253542
1772789875063660800,8.070660888671876,0.011261502280831337,-0.0011694161221385002,-0.0013500272762030363
1772789875083695900,8.09069580078125,0.0211578831076622,-0.027695560827851295,-0.0004712650552392006
1772789875103731000,8.11073095703125,0.020259523764252663,-0.052077606320381165,-0.0009598741307854652
1772789875123766000,8.13076611328125,0.01880810223519802,-0.058386631309986115,0.0007418859750032425
1772789875143800800,8.15080078125,0.011668464168906212,-0.05355330556631088,-0.003443840891122818
1772789875163835600,8.170835693359376,-0.0029966048896312714,-0.03135189041495323,0.0009273155592381954
1772789875183870700,8.19087060546875,-0.01075668353587389,-0.005032642744481564,0.02025189995765686
1772789875203904800,8.21090478515625,-0.017619797959923744,0.029923398047685623,0.04047689959406853
1772789875223939800,8.23093994140625,-0.0066200378350913525,0.04577802121639252,0.04721618816256523
1772789875243975000,8.250974853515626,0.0015411553904414177,0.0181855671107769,0.04305266588926315
1772789875264009700,8.271009765625,0.008371267467737198,-0.03008395805954933,0.024092381820082664
1772789875284044800,8.291044921875,0.002472804393619299,-0.04287538677453995,0.005411465652287006
1772789875304080000,8.311079833984374,-0.00957038439810276,-0.005499276332557201,-0.01051226444542408
1772789875324114700,8.33111474609375,-0.01370738074183464,0.026992304250597954,-0.024869853630661964
1772789875344149800,8.351149658203125,0.00004211463965475559,0.008449729532003403,-0.03300514072179794
1772789875364184800,8.371184814453125,0.023515217006206512,-0.022642409428954124,-0.024028955027461052
1772789875384220000,8.391219970703125,0.03008389100432396,-0.03923506289720535,0.002581359352916479
1772789875404255000,8.4112548828125,0.019034555181860924,-0.03348005190491676,0.019018277525901794
1772789875424288800,8.431288818359375,0.0027683821972459555,-0.013894819654524326,0.013173816725611687
1772789875444323800,8.45132373046875,-0.008616823703050613,0.023671533912420273,-0.007105163298547268
1772789875464359000,8.47135888671875,-0.015850042924284935,0.03996574878692627,-0.014942772686481476
1772789875484393700,8.491393798828126,-0.010263924486935139,0.03501657769083977,0.0002624071203172207
1772789875504428800,8.5114287109375,0.0021631200797855854,0.0001182733103632927,0.022536352276802063
1772789875524463900,8.5314638671875,0.012374094687402248,-0.02767140418291092,0.035595547407865524
1772789875544499000,8.5514990234375,0.017956197261810303,-0.024140462279319763,0.02444637194275856
1772789875564533800,8.57153369140625,0.009101230651140213,0.00031379982829093933,-0.0016561148222535849
1772789875584568800,8.59156884765625,-0.009178590029478073,0.01595546491444111,-0.02266937494277954
1772789875604603600,8.611603759765625,-0.021021390333771706,0.02275381237268448,-0.030590957030653954
1772789875624638700,8.631638671875,-0.018001876771450043,0.02606271579861641,-0.019648578017950058
1772789875644672800,8.6516728515625,-0.0016552770975977182,0.02565217763185501,-0.0030295071192085743
1772789875664707800,8.671707763671876,0.013853129930794239,0.003188873641192913,0.010246065445244312
1772789875684743000,8.691742919921875,0.017086729407310486,-0.014138014987111092,0.021551460027694702
1772789875704777700,8.71177783203125,0.01414867676794529,-0.0010572457686066628,0.02166895940899849
1772789875724812800,8.731812744140624,0.004867209121584892,0.024408262223005295,0.009174024686217308
1772789875744848000,8.751847900390626,-0.003735023783519864,0.03180524334311485,-0.010636743158102036
1772789875764882700,8.771882568359375,-0.004998471587896347,0.018411889672279358,-0.02271333523094654
1772789875784917800,8.791917724609375,-0.0011552530340850353,0.0025374162942171097,-0.026627924293279648
1772789875804952800,8.811952880859375,0.005743891000747681,-0.0016449308022856712,-0.014901189133524895
1772789875824988000,8.83198779296875,0.01150683406740427,-0.008394759148359299,0.000009720679372549057
1772789875845023000,8.85202294921875,0.007938920520246029,-0.007138551212847233,0.010984955355525017
1772789875865058000,8.87205810546875,0.002245145384222269,0.006145273335278034,0.010296197608113289
1772789875885091800,8.892091796875,-0.004328982904553413,0.02925812266767025,0.0029566376470029354
1772789875905127000,8.912126953125,-0.011336836963891983,0.05107417702674866,0.0068360804580152035
1772789875925161700,8.93216162109375,-0.010251738131046295,0.04834359511733055,0.017487797886133194
1772789875945196800,8.95219677734375,-0.00352247292175889,0.017444169148802757,0.035140037536621094
1772789875965231900,8.97223193359375,-0.009015125222504139,-0.010474157519638538,0.028655389323830605
1772789875985267000,8.992266845703124,-0.0020062816329300404,-0.01000488456338644,0.0036355857737362385
1772789876005302300,9.01230224609375,0.0002357596531510353,0.00802198052406311,-0.023290496319532394
1772789876025337300,9.03233740234375,-0.0032004532404243946,0.014105947688221931,-0.03190029412508011
1772789876045372200,9.0523720703125,-0.007521145511418581,0.01884869858622551,-0.02432095631957054
1772789876065407200,9.0724072265625,-0.000375914853066206,0.02593880705535412,-0.009803504683077335
1772789876085442300,9.0924423828125,0.009032713249325752,0.027316849678754807,-0.008585852570831776
1772789876105476000,9.11247607421875,0.014941906556487083,0.013784795999526978,-0.015548061579465866
1772789876125511200,9.13251123046875,0.018556315451860428,0.0015177903696894646,-0.02186744101345539
1772789876145546200,9.152546142578124,0.015149973332881927,-0.0028475699946284294,-0.013347292318940163
1772789876165581300,9.172581298828124,0.009309854358434677,0.0026189591735601425,0.0010322462767362595
1772789876185616100,9.1926162109375,0.000015762168914079666,0.014978497289121151,0.02137099951505661
1772789876205651200,9.212651123046875,-0.004282589070498943,0.02811417728662491,0.026839811354875565
1772789876225686300,9.232686279296875,-0.006375772878527641,0.045469775795936584,0.03290963172912598
1772789876245721300,9.252721435546874,-0.005663643591105938,0.06559235602617264,0.03568650782108307
1772789876265756200,9.272756103515626,-0.008319122716784477,0.07762439548969269,0.033541638404130936
1772789876285791200,9.292791259765625,-0.009915239177644253,0.061842337250709534,0.0222733523696661
1772789876305825300,9.3128251953125,-0.0016930731944739819,0.03425411507487297,0.00006000697612762451
1772789876325860400,9.3328603515625,0.006862321402877569,0.012055506929755211,-0.028498923406004906
1772789876345895200,9.352895263671876,0.005039258860051632,0.0064980704337358475,-0.053750623017549515
1772789876365930200,9.37293017578125,0.005016004666686058,0.007274745963513851,-0.06399864703416824
1772789876385965300,9.39296533203125,0.002008403418585658,-0.000683310441672802,-0.05155546963214874
1772789876406000000,9.413000244140624,0.0016865315847098827,-0.008910252712666988,-0.03223806619644165
1772789876426035200,9.43303515625,-0.003411567769944668,0.0009899521246552467,-0.014826575294137001
1772789876446070300,9.4530703125,-0.008703652769327164,0.03258290886878967,-0.0009362082928419113
1772789876466105300,9.473105224609375,-0.013248741626739502,0.0681413859128952,0.019246963784098625
1772789876486140200,9.49314013671875,-0.01903481036424637,0.07668177783489227,0.0397893488407135
1772789876506175200,9.51317529296875,-0.014178621582686901,0.06282119452953339,0.039359062910079956
1772789876526209300,9.533209228515625,-0.008269395679235458,0.04483655095100403,0.023802798241376877
1772789876546244000,9.553244140625,-0.0028991317376494408,0.029537489637732506,-0.0007664617151021957
1772789876566279200,9.573279052734375,-0.0010825053323060274,0.019529499113559723,-0.024508625268936157
1772789876586314200,9.593314208984374,0.0005718208849430084,0.015818361192941666,-0.036212656646966934
1772789876606349300,9.613349365234376,0.0008618584834039211,0.00489320233464241,-0.03703346475958824
1772789876626384400,9.63338427734375,0.001905201468616724,-0.0030839331448078156,-0.028856409713625908
1772789876646419200,9.653419189453125,0.006044518202543259,0.0008714413270354271,-0.017980290576815605
1772789876666454300,9.673454345703124,0.003902803873643279,0.011388796381652355,-0.001994933234527707
1772789876686489300,9.6934892578125,0.0023838654160499573,0.017910033464431763,0.007006955333054066
1772789876706524200,9.713524169921875,-0.0015027078334242105,0.02998831495642662,0.01995227113366127
1772789876726559200,9.733559326171875,-0.0011654039844870567,0.04661937057971954,0.025016389787197113
1772789876746593300,9.75359326171875,-0.0019186536082997918,0.05031048133969307,0.02177623100578785
1772789876766628400,9.77362841796875,0.006808100268244743,0.041995055973529816,0.016894280910491943
1772789876786663200,9.7936630859375,0.017453055828809738,0.010575830936431885,0.004902297630906105
1772789876806698200,9.8136982421875,0.018007630482316017,-0.0366768054664135,-0.008923872373998165
1772789876826733300,9.8337333984375,0.015302306972444057,-0.05358058959245682,-0.02345000021159649
1772789876846768000,9.85376806640625,0.014221030287444592,-0.03832755237817764,-0.03557560220360756
1772789876866803200,9.87380322265625,0.008226287551224232,-0.0137924300506711,-0.03212125226855278
1772789876886838300,9.89383837890625,0.000010806601494550705,-0.007469991687685251,-0.011501297354698181
1772789876906873300,9.913873291015625,-0.0026018586941063404,-0.0010731732472777367,0.018806109204888344
1772789876926908200,9.933908203125,0.0017981922719627619,0.018575772643089294,0.04582230746746063
1772789876946942200,9.953942138671875,-0.000008013565093278885,0.032306283712387085,0.057076871395111084
1772789876966977300,9.973977294921875,-0.001395979430526495,0.03210688382387161,0.04668834060430527
1772789876987012000,9.99401220703125,0.0022546176332980394,0.026760345324873924,0.02827397920191288
1772789877007046700,10.014046630859376,0.009201194159686565,0.009586123749613762,0.006906654220074415
1772789877027081700,10.034081787109375,0.010276109911501408,-0.0126566207036376,-0.015335865318775177
1772789877047116800,10.05411669921875,0.010353181511163712,-0.026968687772750854,-0.02909919060766697
1772789877067152000,10.07415185546875,0.013463182374835014,-0.025404468178749084,-0.027837080880999565
1772789877087186700,10.094186767578124,0.010366817936301231,-0.016500454396009445,-0.019022909924387932
1772789877107221500,10.114221435546876,0.009030422195792198,-0.006236223503947258,-0.004752334672957659
1772789877127256600,10.134256591796875,0.0073094661347568035,0.006775256246328354,0.009801061823964119
1772789877147291600,10.154291748046875,0.006310611963272095,0.022738972678780556,0.02497192472219467
1772789877167325700,10.17432568359375,0.0036086325999349356,0.03189436346292496,0.03515445441007614
1772789877187360800,10.19436083984375,0.005950060673058033,0.027071520686149597,0.035721201449632645
1772789877207395800,10.214395751953125,0.007085912860929966,0.011805511079728603,0.029609233140945435
1772789877227431000,10.234430908203125,0.005552365444600582,0.00024479907006025314,0.013384290039539337
1772789877247465700,10.2544658203125,0.003905999707058072,0.009718728251755238,-0.0043784622102975845
1772789877267500500,10.27450048828125,0.0014118459075689316,0.016161618754267693,-0.017916005104780197
1772789877287535600,10.29453564453125,0.004356760531663895,0.006387453526258469,-0.019099239259958267
1772789877307570700,10.31457080078125,0.010138832032680511,-0.014496086165308952,-0.013167930766940117
1772789877327605800,10.334605712890625,0.012074703350663185,-0.01336618047207594,-0.009623815305531025
1772789877347640800,10.354640869140624,0.007700387388467789,0.004904096946120262,-0.0023692904505878687
1772789877367676000,10.374676025390626,-0.002958382945507765,0.03611242026090622,0.008899349719285965
1772789877387709700,10.394709716796875,-0.0060294014401733875,0.053303368389606476,0.015330205671489239
1772789877407744800,10.414744873046875,-0.00639407429844141,0.04145726561546326,0.015693819150328636
1772789877427779600,10.434779541015626,0.002548951655626297,0.01963653415441513,0.011539949104189873
1772789877447814700,10.454814697265626,0.009623338468372822,0.01280610729008913,0.004795263987034559
1772789877467849700,10.474849609375,0.011290584690868855,0.01729089766740799,-0.0033924677409231663
1772789877487884800,10.494884765625,0.005998903885483742,0.006502622738480568,-0.010251990519464016
1772789877507920000,10.514919921875,0.0021892725490033627,0.0036702770739793777,-0.01510695181787014
1772789877527955000,10.534954833984376,0.005305053666234016,0.014277525246143341,-0.02022809162735939
1772789877547989500,10.554989501953125,0.0028272916097193956,0.01657561957836151,-0.02052374742925167
1772789877568024600,10.575024658203125,0.003761197905987501,0.007488403469324112,-0.014933975413441658
1772789877588058600,10.59505859375,0.004763453267514706,0.0030995402485132217,-0.005782930180430412
1772789877608093700,10.61509375,0.002713712863624096,0.008803497068583965,0.0037910412065684795
1772789877628128800,10.635128662109375,-0.00238152127712965,0.026621300727128983,0.0063139270059764385
1772789877648163800,10.655163818359375,0.0006161327473819256,0.03950594365596771,0.007379457820206881
1772789877668198700,10.67519873046875,-0.0003659329377114773,0.03395913541316986,0.008510926738381386
1772789877688233700,10.695233642578126,0.004014592617750168,0.01521019171923399,0.0041533042676746845
1772789877708268500,10.7152685546875,0.004872589372098446,0.0046517513692379,0.004682016558945179
1772789877728303600,10.7353037109375,0.003280561650171876,0.0077954428270459175,-0.004001762717962265
1772789877748338700,10.755338623046875,0.005925582721829414,0.022870775312185287,-0.011050323024392128
1772789877768373800,10.775373779296874,0.001926344120875001,0.024179741740226746,-0.014535097405314445
1772789877788407800,10.79540771484375,0.0022778494749218225,0.016574330627918243,-0.0204845629632473
1772789877808442600,10.815442626953125,0.004833588842302561,0.005687865428626537,-0.017925972118973732
1772789877828477700,10.835477783203125,0.006747123785316944,0.0046941181644797325,-0.007160198409110308
1772789877848512800,10.8555126953125,0.0049629053100943565,0.0037156008183956146,-0.0008520679548382759
1772789877868547600,10.875547607421876,0.0021643361542373896,0.012118285521864891,0.0050078039057552814
1772789877888582700,10.895582763671875,0.0005081468261778355,0.018206026405096054,0.0033438322134315968
1772789877908617700,10.91561767578125,0.00220835255458951,0.020882554352283478,0.0015562730841338634
1772789877928652800,10.93565283203125,-0.002560066059231758,0.020741648972034454,0.004086571745574474
1772789877948688000,10.95568798828125,-0.0002452463377267122,0.02564479410648346,0.011358865536749363
1772789877968723000,10.975722900390625,0.0009007509797811508,0.019006188958883286,0.01229546032845974
1772789877988756700,10.9957568359375,0.0022433141712099314,0.006594769656658173,0.003931472543627024
1772789878008792300,11.015792236328124,0.004458309151232243,-0.0008191559463739395,-0.009443499147891998
1772789878028827400,11.035827392578126,0.005970279686152935,-0.0004867948591709137,-0.022068575024604797
1772789878048862500,11.055862548828125,0.003052270505577326,-0.0034892186522483826,-0.021958600729703903
1772789878068897500,11.0758974609375,0.0001625965815037489,-0.0032673534005880356,-0.015893107280135155
1772789878088932400,11.095932373046875,0.0027622063644230366,-0.0015771165490150452,-0.005261602345854044
1772789878108967400,11.115967529296874,0.000220761401578784,0.00014151819050312042,0.003989144694060087
1772789878129002200,11.136002197265626,0.0013786396011710167,0.006855637766420841,0.0021889121271669865
1772789878149037300,11.156037353515625,0.00019018049351871014,0.011308467015624046,0.005150770768523216
1772789878169072400,11.176072265625,-0.0016926007810980082,0.011747695505619049,0.00787324644625187
1772789878189106400,11.1961064453125,-0.0016139638610184193,0.008378603495657444,0.006316555198282003
1772789878209141200,11.216141357421876,0.004038136452436447,0.009798405691981316,0.004088480491191149
1772789878229176300,11.23617626953125,0.0034685316495597363,0.0054734814912080765,0.004316934384405613
1772789878249211400,11.25621142578125,0.006947127170860767,-0.0022988105192780495,0.0073841228149831295
1772789878269246500,11.27624658203125,0.010982349514961243,0.002679436467587948,-0.00032945675775408745
1772789878289281300,11.29628125,0.00968137476593256,0.003695240244269371,-0.00537825794890523
1772789878309316400,11.31631640625,0.0012828400358557701,-0.0016573509201407433,-0.00394841656088829
1772789878329351400,11.336351318359375,-0.0001592996995896101,0.0004663979634642601,0.0012290733866393566
1772789878349386500,11.356386474609375,0.002498094690963626,0.0048630135133862495,0.008383296430110931
1772789878369421600,11.376421630859374,0.0015434613451361656,-0.003304346464574337,0.007909943349659443
1772789878389455400,11.396455322265625,-0.0009309914894402027,-0.01899118721485138,0.0034955968149006367
1772789878409490400,11.416490478515625,0.0014765060041099787,-0.01706305891275406,-0.004690161440521479
1772789878429525200,11.436525146484374,-0.00045778159983456135,-0.00389714352786541,-0.005238470621407032
1772789878449560300,11.456560302734376,-0.0038213201332837343,0.005724810995161533,0.0019011623226106167
1772789878469595400,11.476595458984375,-0.004392760805785656,0.005787467584013939,0.008568844757974148
1772789878489630500,11.49663037109375,-0.0017030606977641582,0.00434989295899868,0.015051604248583317
1772789878509665500,11.51666552734375,0.004181909374892712,-0.00022425595670938492,0.011325925588607788
1772789878529700400,11.536700439453124,0.007221991196274757,-0.006803957745432854,-0.00007834611460566521
1772789878549735400,11.5567353515625,0.002896173158660531,-0.010896218940615654,-0.011512583121657372
1772789878569770200,11.576770263671875,0.002471967600286007,-0.00681337621062994,-0.008856115862727165
1772789878589804300,11.59680419921875,-0.0017229215009137988,-0.00864427536725998,-0.0032612020149827003
1772789878609839400,11.61683935546875,-0.00048377271741628647,-0.017584433779120445,0.005135763436555862
1772789878629874400,11.63687451171875,0.0006786431185901165,-0.026306431740522385,0.010721266269683838
1772789878649909200,11.6569091796875,-0.0005383130628615618,-0.025630230084061623,0.012107064947485924
1772789878669944300,11.6769443359375,-0.003049297956749797,-0.00639046635478735,0.01337755098938942
1772789878689979400,11.6969794921875,-0.008239734917879105,0.008066478185355663,0.013077614828944206
1772789878710014500,11.717014404296876,-0.005248508416116238,0.0013774679973721504,0.014710700139403343
1772789878730049300,11.73704931640625,0.0003038083668798208,-0.01472882367670536,0.009511254727840424
1772789878750084400,11.75708447265625,0.0059922076761722565,-0.027036815881729126,-0.0018323683179914951
1772789878770119400,11.777119384765625,0.0036538727581501007,-0.021970419213175774,-0.009366903454065323
1772789878790153200,11.7971533203125,-0.0031271171756088734,-0.005550917237997055,-0.01506735198199749
1772789878810188300,11.817188232421875,-0.0015057018026709557,0.007527505047619343,-0.010723019950091839
1772789878830223400,11.837223388671875,0.002931050956249237,-0.0023992350324988365,-0.0053574759513139725
1772789878850258400,11.857258544921875,0.0036794827319681644,-0.013678884133696556,-0.00014841603115200996
1772789878870293500,11.87729345703125,0.004513466730713844,-0.01514401100575924,0.002069050446152687
1772789878890328300,11.897328369140626,0.00044308113865554333,-0.006626518443226814,0.0051668486557900906
1772789878910363400,11.91736328125,-0.0019755663815885782,-0.005052107386291027,0.002030408475548029
1772789878930398500,11.9373984375,-0.0029894865583628416,-0.009617973119020462,-0.002817022381350398
1772789878950433300,11.957433349609374,-0.004286529030650854,-0.004990369081497192,-0.005932571366429329
1772789878970467300,11.97746728515625,-0.00364411948248744,0.0037326933816075325,0.0016488609835505486
1772789878990502000,11.997501953125,-0.0016204740386456251,0.005021566525101662,0.011460835114121437
1772789879010537000,12.017536865234375,-0.0012599935289472342,-0.0012921839952468872,0.019730063155293465
1772789879030572000,12.037572021484374,0.0028565279208123684,-0.0002169925719499588,0.011954357847571373
1772789879050606800,12.05760693359375,0.004524705931544304,0.004068179056048393,0.0024511595256626606
1772789879070642000,12.077641845703125,0.002424153033643961,0.0032038623467087746,-0.011019788682460785
1772789879090677000,12.097677001953125,-0.0024711517617106438,0.008412593975663185,-0.014162970706820488
1772789879110712000,12.117712158203124,-0.00028872000984847546,0.01805241033434868,-0.0027965710032731295
1772789879130747000,12.137746826171876,0.002718901028856635,0.005472633056342602,0.004504640121012926
1772789879150782000,12.157781982421875,0.0036454584915190935,-0.027108430862426758,0.0033610332757234573
1772789879170816000,12.17781591796875,0.0020305279176682234,-0.022224629297852516,0.002804689109325409
1772789879190851000,12.19785107421875,-0.0021074204705655575,0.010114302858710289,-0.004950506612658501
1772789879210886000,12.217885986328126,-0.011692963540554047,0.026750683784484863,0.005858757067471743
1772789879230921000,12.2379208984375,-0.008872133679687977,0.010715889744460583,0.0059082829393446445
1772789879250956000,12.2579560546875,-0.004475760273635387,-0.0030298959463834763,0.008311493322253227
1772789879270990800,12.277990966796875,0.0002843670081347227,-0.0031832214444875717,0.0077482410706579685
1772789879291026000,12.29802587890625,0.000788726843893528,-0.0008546039462089539,-0.003252699039876461
1772789879311061000,12.31806103515625,-0.0003940882161259651,-0.0041056182235479355,-0.012949964962899685
1772789879331095800,12.338095703125,-0.001571866450831294,-0.009964791126549244,-0.01702500693500042
1772789879351130000,12.358130126953125,0.0006841141730546951,-0.006398262456059456,-0.017596270889043808
1772789879371165000,12.3781650390625,-0.00006449129432439804,-0.004141668789088726,-0.014762409031391144
1772789879391200000,12.398199951171875,-0.0015099078882485628,-0.013342211954295635,-0.009128905832767487
1772789879411234800,12.41823486328125,0.0004330896772444248,-0.01851278729736805,-0.004908283706754446
1772789879431270000,12.438269775390625,0.0009804419241845608,-0.013307472690939903,-0.0013762044254690409
1772789879451305000,12.458304931640624,-0.00039377715438604355,-0.0002333344891667366,0.004756549373269081
1772789879471340000,12.478340087890626,-0.004412872716784477,0.011176059022545815,0.007380414288491011
1772789879491374800,12.498374755859375,-0.006560435518622398,0.01379724033176899,0.012589546851813793
1772789879511410000,12.518409912109375,-0.008658399805426598,0.00597347691655159,0.009495413862168789
1772789879531445000,12.538445068359374,-0.0014361932408064604,-0.0017655948176980019,-0.0009793126955628395
1772789879551478800,12.558478759765626,0.0015087402425706387,-0.008933663368225098,-0.014239734038710594
1772789879571513900,12.578513916015625,-0.00022407877258956432,-0.013919173739850521,-0.02379072830080986
1772789879591549000,12.598548828125,-0.0023974657524377108,-0.003901232033967972,-0.025358017534017563
1772789879611584000,12.618583984375,-0.003908892627805471,0.008299604058265686,-0.014236840419471264
1772789879631619000,12.638619140625,-0.003938242327421904,0.006623531691730022,-0.004999611526727676
1772789879651654000,12.65865380859375,0.0015132678672671318,-0.011511070653796196,0.0015621320344507694
1772789879671689000,12.67868896484375,0.00265354011207819,-0.009676686488091946,0.0036754426546394825
1772789879691724000,12.69872412109375,0.00048988894559443,0.006865879520773888,0.001971652265638113
1772789879711758800,12.7187587890625,-0.0001719358842819929,0.022088216617703438,0.006755251437425613
1772789879731793000,12.73879296875,-0.003016621107235551,0.01274274755269289,0.010925659909844398
1772789879751828000,12.758827880859375,-0.004062804859131575,-0.0048266565427184105,0.010937203653156757
1772789879771863000,12.778863037109375,-0.003582664765417576,-0.01015353761613369,0.006821583490818739
1772789879791898000,12.798898193359374,-0.001750465016812086,0.0047706738114356995,-0.0010448074899613857
1772789879811933000,12.818932861328125,-0.001847808132879436,0.011317206546664238,-0.011308226734399796
1772789879831968000,12.838968017578125,-0.0016836009453982115,-0.0010654497891664505,-0.010590128600597382
1772789879852002800,12.8590029296875,0.003881891490891576,-0.0189506858587265,-0.010933692567050457
1772789879872038000,12.879037841796874,0.00794103555381298,-0.027832109481096268,-0.009435619227588177
1772789879892073000,12.899072998046876,0.002100135199725628,-0.017765505239367485,-0.015156833454966545
1772789879912107000,12.91910693359375,-0.0070116957649588585,0.00028273649513721466,-0.013766570948064327
1772789879932142000,12.93914208984375,-0.004263221751898527,0.010299685411155224,-0.009942098520696163
1772789879952177200,12.95917724609375,-0.0047078318893909454,0.012793518602848053,-0.0010265051387250423
1772789879972211700,12.979211669921876,-0.0032963911071419716,0.0041811708360910416,0.007847449742257595
1772789879992247000,12.9992470703125,-0.002645948203280568,0.0029222220182418823,0.010644201189279556
1772789880012282000,13.0192822265625,0.0008170884102582932,0.010584885254502296,0.005431201308965683
1772789880032317200,13.039317138671874,0.00012192083522677422,0.007339387200772762,0.0017798244953155518
1772789880052352300,13.059352294921876,-0.0008510868065059185,-0.007381839212030172,-0.009643916971981525
1772789880072387000,13.079386962890625,0.0013953344896435738,-0.023521877825260162,-0.017613470554351807
1772789880092422000,13.099421875,0.0036640814505517483,-0.025966128334403038,-0.0202872846275568
1772789880112456200,13.119456298828124,-0.00261685554869473,-0.019553018733859062,-0.020978769287467003
1772789880132491000,13.139490966796876,-0.004910607822239399,-0.009841683320701122,-0.008946101181209087
1772789880152526000,13.159526123046875,-0.003391265869140625,-0.005785325542092323,0.0015387539751827717
1772789880172561200,13.17956103515625,-0.0014531458728015423,-0.013758780434727669,0.0022824369370937347
1772789880192596200,13.19959619140625,-0.004470277577638626,-0.007513084914535284,0.008824793621897697
1772789880212631000,13.219631103515624,-0.007334581110626459,0.007048208266496658,0.00895988941192627
1772789880232666000,13.239666015625,-0.005552971735596657,0.018757546320557594,0.0057721310295164585
1772789880252701000,13.259700927734375,-0.005298960953950882,0.005267517641186714,-0.0016689496114850044
1772789880272736000,13.279736083984375,-0.0014365517999976873,-0.011008629575371742,-0.009649140760302544
1772789880292770000,13.29977001953125,-0.0026742229238152504,-0.011921487748622894,-0.013752439990639687
1772789880312805000,13.31980517578125,-0.0021950295194983482,-0.0016019092872738838,-0.017934491857886314
1772789880332840000,13.33983984375,-0.005014012102037668,0.0009966837242245674,-0.018055107444524765
1772789880352875000,13.359875,-0.005953025072813034,-0.0008472669869661331,-0.016304627060890198
1772789880372910000,13.37991015625,-0.009217416867613792,0.003550340421497822,-0.010609036311507225
1772789880392945200,13.399945068359376,-0.00895678624510765,0.019738629460334778,-0.0002894611097872257
1772789880412980000,13.41997998046875,-0.0044223954901099205,0.023746687918901443,0.001544831320643425
1772789880433015000,13.44001513671875,-0.00744045153260231,0.012936480343341827,0.0008025062270462513
1772789880453049000,13.460049072265624,-0.006312016397714615,0.009581043384969234,-0.003947563003748655
1772789880473084000,13.480083984375,-0.0063835568726062775,0.02156013622879982,-0.003209700807929039
1772789880493119000,13.500118896484375,-0.009388593956828117,0.037230249494314194,-0.0010669953189790249
1772789880513154000,13.520154052734375,-0.008532974869012833,0.03070828691124916,-0.002680283272638917
1772789880533189000,13.540189208984375,-0.005528691690415144,0.01103282906115055,-0.010139768943190575
1772789880553224200,13.56022412109375,-0.0015346459113061428,0.004550259560346603,-0.013609703630208969
1772789880573259000,13.580259033203125,0.0009766854345798492,0.007289828732609749,-0.012104456312954426
1772789880593294000,13.600294189453125,-0.006065387278795242,0.013109391555190086,-0.00894393865019083
1772789880613329200,13.6203291015625,-0.008030400611460209,0.01054358296096325,-0.0019263778813183308
1772789880633364000,13.640364013671874,-0.0032900383230298758,0.005201838910579681,0.0012732078321278095
1772789880653398000,13.66039794921875,-0.00013005058281123638,-0.007804094813764095,0.00039821211248636246
1772789880673433000,13.68043310546875,0.001949721947312355,-0.010021686553955078,0.0038362438790500164
1772789880693468200,13.70046826171875,-0.001689221477136016,-0.003722512163221836,0.00958520919084549
1772789880713503200,13.720503173828124,0.0011725849471986294,0.0045512765645980835,0.022306889295578003
1772789880733538000,13.7405380859375,0.0015562004409730434,0.01064986176788807,0.025946248322725296
1772789880753573000,13.760572998046875,-0.001705098431557417,0.0035544075071811676,0.025501754134893417
1772789880773608000,13.78060791015625,-0.0026611085049808025,-0.0074038999155163765,0.01695268042385578
1772789880793643000,13.80064306640625,-0.006285645067691803,-0.010471833869814873,0.0040019662119448185
1772789880813677000,13.820677001953126,-0.00786970928311348,-0.009057451970875263,-0.006433614529669285
1772789880833712000,13.840712158203125,-0.011143755167722702,-0.010314682498574257,-0.020245878025889397
1772789880853747200,13.860747314453125,-0.010564122349023819,-0.022106941789388657,-0.02827703393995762
1772789880873782300,13.8807822265625,-0.004393366165459156,-0.02062574401497841,-0.026535535231232643
1772789880893817000,13.900817138671876,-0.0035033482126891613,-0.007514923810958862,-0.009624190628528595
1772789880913852000,13.920851806640625,0.0028172791935503483,-0.0021178824827075005,0.003306108061224222
1772789880933887000,13.940886962890625,0.011864964850246906,-0.019637802615761757,0.015976235270500183
1772789880953922000,13.960922119140625,0.011722687631845474,-0.03692755103111267,0.014018610119819641
1772789880973957000,13.98095703125,0.00963418185710907,-0.028108015656471252,0.014988057315349579
1772789880993991200,14.0009912109375,-0.0035416041500866413,0.0011986717581748962,0.017835836857557297
1772789881014026200,14.021026123046875,-0.01474408246576786,0.016782181337475777,0.018820298835635185
1772789881034061300,14.041061279296875,-0.010896007530391216,0.0008871806785464287,0.018378937616944313
1772789881054096000,14.061095947265626,-0.006968772038817406,-0.01930086314678192,0.01602829433977604
1772789881074131000,14.081130859375,0.0025726084131747484,-0.0227311160415411,0.013759211637079716
1772789881094166000,14.101166015625,0.009242787957191467,-0.017182394862174988,0.010763924568891525
1772789881114201000,14.121201171875,0.006153392605483532,-0.022295614704489708,0.000668275635689497
1772789881134236200,14.141236083984374,-0.0007824059575796127,-0.023001570254564285,-0.006444899365305901
1772789881154271200,14.161271240234376,0.0011048766318708658,-0.005609723739326,-0.014706991612911224
1772789881174305000,14.181304931640625,-0.00009975465945899487,0.016072232276201248,-0.021000757813453674
1772789881194340000,14.201340087890625,-0.0001322091557085514,0.014720096252858639,-0.013241404667496681
1772789881214375000,14.221375,0.0035286739002913237,0.00453200563788414,-0.0026772799901664257
1772789881234410000,14.241409912109376,0.004476088099181652,0.00036357808858156204,0.0072836121544241905
1772789881254445000,14.261445068359375,0.003908826038241386,0.005345722660422325,0.011871982365846634
1772789881274480000,14.281480224609375,0.0011814641766250134,0.009050783701241016,0.00761121092364192
1772789881294515200,14.30151513671875,-0.0030629162210971117,0.011723073199391365,-0.0011765887029469013
1772789881314550300,14.32155029296875,-0.003163933055475354,0.016036158427596092,-0.0051528713665902615
1772789881334585000,14.341585205078125,-0.0035066362470388412,0.0189204104244709,-0.0009421925060451031
1772789881354619100,14.361619140625,-0.011073797009885311,0.01343308761715889,0.004010275937616825
1772789881374654000,14.381654052734374,-0.007910825312137604,0.017671002075076103,0.004536581225693226
1772789881394689000,14.40168896484375,-0.000011934665963053703,0.02391340211033821,0.0032551134936511517
1772789881414724000,14.42172412109375,0.0033735856413841248,0.017184417694807053,-0.005134486127644777
1772789881434759200,14.44175927734375,0.002341821789741516,0.011346889659762383,-0.008313179947435856
1772789881454794200,14.461794189453125,0.004093557130545378,0.014783964492380619,-0.008013748563826084
1772789881474829300,14.481829345703124,0.0013822400942444801,0.02088184840977192,-0.0007151337340474129
1772789881494864000,14.50186376953125,-0.0037397779524326324,0.01120786089450121,-0.0037727439776062965
1772789881514898200,14.521898193359375,-0.004749855026602745,0.00465104915201664,-0.00627937912940979
1772789881534933000,14.54193310546875,0.0008387530688196421,0.012633748352527618,-0.008888705633580685
1772789881554968000,14.561968017578126,-0.002998780459165573,0.020144835114479065,-0.009367093443870544
1772789881575003100,14.582003173828125,-0.0047239093109965324,0.019770540297031403,0.00031609367579221725
1772789881595038200,14.6020380859375,-0.0017656449927017093,0.013331137597560883,0.006760384887456894
1772789881615073000,14.622072998046875,0.000353827141225338,0.004100305959582329,0.0026635159738361835
1772789881635108000,14.642108154296874,-0.0030211876146495342,0.0032716281712055206,-0.004292670171707869
1772789881655143000,14.662142822265626,-0.002760040806606412,0.012792497873306274,-0.010263631120324135
1772789881675178000,14.682177978515625,-0.0067880721762776375,0.01715662144124508,-0.01487303152680397
1772789881695212000,14.7022119140625,-0.0050786081701517105,0.008246728219091892,-0.008259853348135948
1772789881715247000,14.7222470703125,-0.004006832838058472,-0.011625925078988075,-0.010501287877559662
1772789881735282200,14.7422822265625,-0.002125566592440009,-0.0115366131067276,-0.010011808946728706
1772789881755317000,14.76231689453125,-0.0039742873050272465,0.005675711669027805,-0.004439189098775387
1772789881775352000,14.78235205078125,-0.00008858810178935528,0.01686885766685009,-0.002290165750309825
1772789881795387100,14.80238720703125,-0.00003658304922282696,0.005139036104083061,0.001183854416012764
1772789881815422000,14.822421875,-0.0008866733405739069,-0.006018107756972313,0.005899256095290184
1772789881835457000,14.84245703125,0.0031582461670041084,0.004833762533962727,0.003613356500864029
1772789881855492000,14.8624921875,0.003368194680660963,0.013989180326461792,0.002166900783777237
1772789881875526100,14.882526123046874,0.0002084309235215187,0.005343656055629253,0.00253541162237525
1772789881895561000,14.90256103515625,0.0026277443394064903,-0.012129241600632668,-0.002967314561828971
1772789881915596000,14.922595947265625,0.004517973866313696,-0.01893814280629158,-0.005337447393685579
1772789881935631000,14.942631103515625,0.003549997229129076,-0.02002764493227005,-0.007469122298061848
1772789881955666200,14.962666259765625,0.0020406919065862894,-0.021632026880979538,-0.005805621854960918
1772789881975701000,14.982700927734374,0.001558430027216673,-0.021815834566950798,-0.000664957333356142
1772789881995736300,15.002736328125,0.0013444679789245129,-0.028822101652622223,0.007339549250900745
1772789882015771400,15.022771484375,-0.004525616765022278,-0.03327342867851257,0.01246554683893919
1772789882035805400,15.042805419921875,-0.007067355792969465,-0.029422694817185402,0.013560125604271889
1772789882055840300,15.06284033203125,-0.011533880606293678,-0.004603414796292782,0.015585597604513168
1772789882075875300,15.082875244140626,-0.01251292321830988,0.013766562566161156,0.008296589367091656
1772789882095910400,15.102910400390625,-0.012452984228730202,0.015617388300597668,0.005376946646720171
1772789882115945200,15.1229453125,-0.008954674005508423,0.011738564819097519,-0.002683890052139759
1772789882135980300,15.142980224609374,-0.005426397547125816,0.0046679917722940445,-0.0039862943813204765
1772789882156015400,15.163015380859376,0.0020577176474034786,-0.008635195903480053,-0.010574525222182274
1772789882176050400,15.183050537109375,0.0022270118352025747,-0.027762722223997116,-0.019628923386335373
1772789882196084200,15.203084228515625,0.003563652513548732,-0.048631519079208374,-0.0323559045791626
1772789882216119300,15.223119384765624,0.0009406150784343481,-0.049175605177879333,-0.03638863563537598
1772789882236154400,15.243154296875,-0.0038287027273327112,-0.024387652054429054,-0.02213446982204914
1772789882256189400,15.263189453125,-0.010739339515566826,-0.003866397775709629,-0.0030878083780407906
1772789882276224300,15.283224365234375,-0.012216715142130852,0.005162662826478481,0.022772669792175293
1772789882296259300,15.30325927734375,-0.009928444400429726,0.010448676533997059,0.03809322044253349
1772789882316294400,15.32329443359375,-0.00482667051255703,0.01384185254573822,0.04254021495580673
1772789882336329500,15.34332958984375,0.0006848578341305256,0.01031346246600151,0.0353759229183197
1772789882356364500,15.363364501953125,0.003264524508267641,-0.004714272916316986,0.013447059318423271
1772789882376398300,15.3833984375,-0.00008017453365027905,-0.018735408782958984,-0.004267983138561249
1772789882396433400,15.403433349609376,-0.004209407139569521,-0.02182689681649208,-0.01769697479903698
1772789882416468500,15.423468505859375,-0.00437024375423789,-0.02862193062901497,-0.02514159306883812
1772789882436503300,15.44350341796875,-0.0004120129160583019,-0.03521887958049774,-0.02880394458770752
1772789882456538400,15.463538330078125,0.00809051189571619,-0.03963782638311386,-0.022216202691197395
1772789882476573400,15.483573486328124,0.008470711298286915,-0.04574029520153999,-0.004015790764242411
1772789882496608300,15.503608154296876,0.005768456496298313,-0.041351620107889175,0.012852879241108894
1772789882516643300,15.523643310546875,0.006394326686859131,-0.02135009691119194,0.030055008828639984
1772789882536677400,15.543677490234375,0.006053864024579525,-0.0035863034427165985,0.042193539440631866
1772789882556712400,15.56371240234375,0.006869250908493996,0.0002765404060482979,0.04768478870391846
1772789882576747500,15.58374755859375,0.010560623370110989,-0.011926988139748573,0.046793729066848755
1772789882596782300,15.6037822265625,0.014103847555816174,-0.029026634991168976,0.04179242253303528
1772789882616817400,15.6238173828125,0.013673793524503708,-0.04573685675859451,0.033625528216362
1772789882636852200,15.643852294921874,0.009063034318387508,-0.06599137932062149,0.02135876938700676
1772789882656887300,15.66388720703125,0.0038522013928741217,-0.06820633262395859,0.007680334150791168
1772789882676922400,15.68392236328125,0.0031014196574687958,-0.05393972992897034,-0.0012185832019895315
1772789882696956400,15.703956298828125,0.0036570560187101364,-0.044193435460329056,0.0010774945840239525
1772789882716991500,15.723991455078124,0.007372569292783737,-0.04872076213359833,0.010464733466506004
1772789882737026600,15.744026611328126,0.011594231240451336,-0.0548037551343441,0.023472126573324203
1772789882757061400,15.764061279296875,0.012348201125860214,-0.04846620559692383,0.028475111350417137
1772789882777096200,15.78409619140625,0.011945556849241257,-0.04294348880648613,0.02837015502154827
1772789882797131300,15.80413134765625,0.013393821194767952,-0.04408054053783417,0.018063951283693314
1772789882817166300,15.824166259765626,0.013758499175310135,-0.04440135508775711,0.004640463273972273
1772789882837201400,15.844201416015625,0.010347339324653149,-0.04298997297883034,0.002787086647003889
1772789882857236500,15.864236572265625,0.004343399778008461,-0.02990180253982544,0.00868210569024086
1772789882877270500,15.8842705078125,0.00630627665668726,-0.01639864780008793,0.01280960813164711
1772789882897305600,15.9043056640625,0.0070214103907346725,-0.0003406880423426628,0.022366557270288467
1772789882917340200,15.924340087890625,0.008780527859926224,-0.004833873361349106,0.02194487489759922
1772789882937375200,15.944375244140625,0.01541118510067463,-0.01882629282772541,0.012978894636034966
1772789882957410300,15.964410400390625,0.018593983724713326,-0.034384869039058685,0.007174481172114611
1772789882977445400,15.9844453125,0.013522937893867493,-0.043816838413476944,-0.002808259567245841
1772789882997480700,16.004480712890626,0.004227488301694393,-0.03590400889515877,-0.005965481977909803
1772789883017515800,16.024515869140625,-0.0040206327103078365,-0.015707802027463913,-0.0029840313363820314
1772789883037549800,16.0445498046875,-0.007920980453491211,0.0011938977986574173,0.0033829384483397007
1772789883057584600,16.064584716796876,-0.004895379766821861,0.006954917684197426,0.005728935822844505
1772789883077619700,16.08461962890625,-0.002905073808506131,0.0028894636780023575,0.012167529202997684
1772789883097654800,16.10465478515625,-0.0002872049808502197,0.016051411628723145,0.017082147300243378
1772789883117689600,16.124689697265627,-0.0014205267652869225,0.03930358961224556,0.017602674663066864
1772789883137724700,16.144724609375,-0.0018398186657577753,0.048417169600725174,0.01126286294311285
1772789883157759700,16.164759765625,-0.0012273271568119526,0.044566117227077484,-0.005552297458052635
1772789883177794800,16.184794921875,0.0014927443116903305,0.027451137080788612,-0.021341031417250633
1772789883197828900,16.204828857421877,-0.0006173634901642799,0.009031123481690884,-0.03452865779399872
1772789883217863700,16.22486376953125,-0.00045423093251883984,0.0036389026790857315,-0.04104822501540184
1772789883237898500,16.2448984375,-0.0020359097979962826,0.016095811501145363,-0.04814339056611061
1772789883257933600,16.26493359375,-0.00885160081088543,0.030536051839590073,-0.04565346986055374
1772789883277968600,16.28496875,-0.014584284275770187,0.040606386959552765,-0.03279576823115349
1772789883298003700,16.305003662109375,-0.010328744538128376,0.04758243262767792,-0.013642916455864906
1772789883318038800,16.325038818359374,-0.0035370695404708385,0.03691824525594711,0.0012272926978766918
1772789883338073900,16.345073974609374,-0.006655080243945122,0.03123871609568596,0.007602880708873272
1772789883358108000,16.36510791015625,-0.010524800047278404,0.05120668560266495,0.005797937978059053
1772789883378142700,16.385142822265625,-0.011387406848371029,0.07286687940359116,-0.002283148467540741
1772789883398177500,16.405177490234376,-0.0112747922539711,0.07062800228595734,-0.012627363204956055
1772789883418212600,16.425212646484376,-0.010101595893502235,0.04472697526216507,-0.023867841809988022
1772789883438247700,16.44524755859375,-0.008027030155062675,0.03039025515317917,-0.031427718698978424
1772789883458282800,16.46528271484375,-0.011620644479990005,0.03962358087301254,-0.040594641119241714
1772789883478317800,16.48531787109375,-0.012144608423113823,0.05644025653600693,-0.04297378659248352
1772789883498352600,16.5053525390625,-0.01227488275617361,0.056261781603097916,-0.049987711012363434
1772789883518386700,16.52538671875,-0.0067582447081804276,0.048770472407341,-0.04804243519902229
1772789883538421500,16.54542138671875,-0.006792535074055195,0.05429091304540634,-0.03505026921629906
1772789883558456600,16.56545654296875,-0.00888610165566206,0.06187944486737251,-0.01447223499417305
1772789883578491600,16.58549169921875,-0.006916804704815149,0.05493097007274628,-0.008545526303350925
1772789883598526700,16.605526611328123,-0.003889405634254217,0.04820737987756729,-0.010547608137130737
1772789883618561800,16.625561767578127,-0.0012388990726321936,0.04507652297616005,-0.0187007375061512
1772789883638596900,16.645596923828126,-0.008173936046659946,0.045848943293094635,-0.022189581766724586
1772789883658631700,16.665631591796874,-0.009803980588912964,0.051359448581933975,-0.023304717615246773
1772789883678665700,16.685665771484373,-0.005496511701494455,0.04247788339853287,-0.016099341213703156
1772789883698700500,16.705700439453125,-0.0059199100360274315,0.026085548102855682,-0.01576170139014721
1772789883718735600,16.725735595703124,-0.0019275365630164742,0.00945369340479374,-0.016596361994743347
1772789883738770700,16.745770751953124,-0.0007907871622592211,0.01612919196486473,-0.017755478620529175
1772789883758805800,16.7658056640625,-0.006538452114909887,0.03479916602373123,-0.013249118812382221
1772789883778840800,16.7858408203125,-0.011592181399464607,0.0336981862783432,-0.004857375752180815
1772789883798876000,16.8058759765625,-0.010961107909679413,0.02040412835776806,-0.0029810890555381775
1772789883818910700,16.82591064453125,-0.003656709799543023,0.016761068254709244,-0.0011907939333468676
1772789883838944800,16.84594482421875,-0.0018330671591684222,0.01447660755366087,-0.009120263159275055
1772789883858979600,16.8659794921875,-0.005952582228928804,0.005268411710858345,-0.010706037282943726
1772789883879014700,16.8860146484375,-0.004644389264285564,-0.0009247250854969025,-0.012935413978993893
1772789883899049700,16.9060498046875,-0.002118291798979044,0.0035051824524998665,-0.008108793757855892
1772789883919084800,16.926084716796876,0.0028962220530956984,0.002486300654709339,-0.009000465273857117
1772789883939119900,16.946119873046875,0.0008568798657506704,-0.005823626182973385,-0.0139364805072546
1772789883959154700,16.96615478515625,-0.0014212944079190493,-0.014832236804068089,-0.009671848267316818
1772789883979189800,16.986189697265626,0.0021620679181069136,-0.00605890154838562,-0.007741675712168217
1772789883999223000,17.00622314453125,0.0049661677330732346,-0.018738776445388794,-0.007041049189865589
1772789884019258000,17.026258056640625,0.00016030878759920597,-0.03448507562279701,-0.005389706697314978
1772789884039293000,17.04629296875,0.0008324519731104374,-0.043797567486763,-0.007731655612587929
1772789884059328000,17.066327880859376,-0.004724104888737202,-0.03451703116297722,-0.009313435293734074
1772789884079363000,17.086363037109376,-0.002843389054760337,-0.02465517818927765,-0.008881727233529091
1772789884099398100,17.106398193359375,-0.005503602791577578,-0.025931967422366142,-0.0040371897630393505
1772789884119433200,17.12643310546875,-0.0033928807824850082,-0.021396972239017487,0.005287704989314079
1772789884139468300,17.14646826171875,-0.0030326026026159525,-0.013273842632770538,0.012128078378736973
1772789884159502000,17.166502197265626,0.0036697478499263525,-0.011525861918926239,0.009880397468805313
1772789884179537200,17.186537109375,0.005701509304344654,-0.018806729465723038,0.0023856936022639275
1772789884199572000,17.206572021484376,0.004438451025635004,-0.020179428160190582,-0.007510949391871691
1772789884219607000,17.22660693359375,-0.0008146828040480614,-0.014596156775951385,-0.008146868087351322
1772789884239642000,17.24664208984375,-0.0029326779767870903,-0.01389208436012268,-0.009040643461048603
1772789884259677200,17.26667724609375,-0.0004087095148861408,-0.025123432278633118,-0.00928468257188797
1772789884279712000,17.2867119140625,-0.00007048808038234711,-0.03295738622546196,-0.013708991929888725
1772789884299747000,17.3067470703125,0.0003851526416838169,-0.014380001462996006,-0.00933445431292057
1772789884319781000,17.326781005859374,-0.0014989431947469711,0.005563083104789257,-0.0027000808622688055
1772789884339816200,17.346816162109373,-0.0036029783077538013,0.008629399351775646,0.004701247904449701
1772789884359851000,17.36685107421875,-0.004102798178792,-0.004313154146075249,0.0067113470286130905
1772789884379886000,17.386885986328124,-0.000019664643332362175,-0.008619515225291252,0.0034620529040694237
1772789884399921200,17.406921142578124,-0.005386136472225189,0.006389769725501537,-0.004487013444304466
1772789884419956000,17.4269560546875,-0.004733612760901451,0.014745215885341167,-0.008032791316509247
1772789884439991000,17.446990966796875,-0.008858486078679562,0.008169976063072681,-0.012549614533782005
1772789884460026000,17.467026123046875,-0.006939064711332321,-0.0003061620518565178,-0.012310813181102276
1772789884480060200,17.48706005859375,-0.0004159822128713131,0.0026076259091496468,-0.010750935412943363
1772789884500095200,17.50709521484375,0.000934739364311099,0.005163335241377354,-0.009301071986556053
1772789884520130000,17.527130126953125,-0.0012756676878780127,0.0036284876987338066,-0.009515475481748581
1772789884540165000,17.5471650390625,-0.001030162675306201,-0.0015822015702724457,-0.007644836325198412
1772789884560200000,17.567199951171876,-0.0006126943044364452,-0.003822753205895424,-0.010226914659142494
1772789884580235000,17.587235107421876,-0.005165289156138897,-0.010045144706964493,-0.00695930328220129
1772789884600270000,17.60727001953125,-0.004683206789195538,-0.013983293436467648,-0.004332136362791061
1772789884620304100,17.62730419921875,-0.006458795629441738,-0.017514077946543694,-0.00004652608186006546
1772789884640339200,17.647339111328126,-0.004937869496643543,-0.02413151040673256,0.003225713036954403
1772789884660374300,17.667374267578126,-0.010228948667645454,-0.03217558190226555,0.004479436203837395
1772789884680409000,17.6874091796875,-0.017396587878465652,-0.03437225893139839,0.004389164038002491
1772789884700444000,17.70744384765625,-0.020493609830737114,-0.034292757511138916,-0.0005573523230850697
1772789884720479000,17.72747900390625,-0.022067958489060402,-0.035042934119701385,-0.0016965086106210947
1772789884740514000,17.74751416015625,-0.022444957867264748,-0.03852536529302597,-0.00422261655330658
1772789884760549000,17.767549072265624,-0.019412502646446228,-0.03622917830944061,-0.002765520941466093
1772789884780583200,17.787583251953127,-0.01374224666506052,-0.03249024599790573,-0.0022380670998245478
1772789884800618200,17.8076181640625,-0.009059288538992405,-0.02274080365896225,-0.002610431518405676
1772789884820653000,17.827653076171874,-0.0020262354519218206,-0.024354685097932816,-0.009601669386029243
1772789884840687900,17.84768798828125,-0.007663242518901825,0.0037269527092576027,0.000004773028194904327
1772789884860723000,17.867722900390625,-0.013431916013360023,-0.0338052436709404,-0.011431373655796051
1772789884880758000,17.887758056640624,-0.016232825815677643,-0.055433280766010284,-0.022051196545362473
1772789884900793000,17.90779296875,-0.025615328922867775,-0.03498031198978424,-0.020254697650671005
1772789884920828200,17.927828125,-0.028685856610536575,0.004952561110258102,-0.007291066460311413
1772789884940862200,17.9478623046875,-0.026320768520236015,0.029944486916065216,-0.0009755813516676426
1772789884960897000,17.96789697265625,-0.023144058883190155,0.037172846496105194,0.011221868917346
1772789884980932000,17.98793212890625,-0.009261422790586948,0.0386170968413353,0.02262648195028305
1772789885000967200,18.00796728515625,0.0007056430913507938,0.04174107685685158,0.0217442587018013
1772789885021002200,18.028002197265625,0.006991729140281677,0.047392357140779495,0.011392587795853615
1772789885041037300,18.048037353515625,0.007667124271392822,0.05740844085812569,-0.011480256915092468
1772789885061072400,18.068072265625,0.00668065482750535,0.05909889191389084,-0.026715097948908806
1772789885081107500,18.088107421875,0.007748041767627001,0.04651561751961708,-0.03196684271097183
1772789885101141500,18.1081416015625,0.004280180670320988,0.02599882334470749,-0.022740965709090233
1772789885121176600,18.128176513671875,0.009914256632328033,0.01822539046406746,-0.013315925374627113
1772789885141211400,18.14821142578125,0.013461410067975521,0.027433274313807487,-0.004595497157424688
1772789885161246200,18.16824609375,0.006986953318119049,0.05160008743405342,0.00422973046079278
1772789885181281300,18.18828125,0.004102547653019428,0.07458154112100601,0.02132209949195385
1772789885201316400,18.20831640625,0.002793754916638136,0.08425384014844894,0.04028712213039398
1772789885221351400,18.228351318359376,0.005171569995582104,0.06414206326007843,0.05558257922530174
1772789885241385500,18.248385498046876,0.002004127949476242,0.02098192647099495,0.05522772669792175
1772789885261420500,18.268420654296875,-0.0022004786878824234,-0.001931474544107914,0.0425308495759964
1772789885281455400,18.288455322265627,-0.0017136761453002691,0.012265290133655071,0.023403506726026535
1772789885301490400,18.308490478515626,-0.00588312977924943,0.03664083778858185,-0.0009044846519827843
1772789885321525200,18.328525146484374,-0.0052925217896699905,0.03099316731095314,-0.01035755779594183
1772789885341560300,18.348560302734374,0.0036348537541925907,0.011497422121465206,-0.004422097001224756
1772789885361595400,18.368595458984377,0.01193216722458601,-0.009539001621305943,0.002431840170174837
1772789885381630500,18.38863037109375,0.016629580408334732,-0.022474024444818497,0.0027366438880562782
1772789885401664300,18.408664306640624,0.01585465669631958,-0.022880278527736664,-0.005802836734801531
1772789885421699300,18.42869921875,0.014271019026637077,-0.004768772050738335,-0.012445440515875816
1772789885441734400,18.448734375,0.008918162435293198,0.011310950852930546,-0.009108323603868484
1772789885461769200,18.468769287109374,0.009296411648392677,0.011156661435961723,0.00978432409465313
1772789885481804300,18.48880419921875,0.01499969232827425,-0.004840829409658909,0.03175075724720955
1772789885501839400,18.50883935546875,0.014052317477762699,-0.004616597667336464,0.04244903475046158
1772789885521874400,18.52887451171875,0.012904351577162743,0.0017769867554306984,0.04630063474178314
1772789885541909500,18.548909423828125,0.010531216859817505,0.005908980034291744,0.03910529240965843
1772789885561943300,18.568943359375,0.011832749471068382,-0.010673413053154945,0.03230273723602295
1772789885581978400,18.588978271484375,0.006230645813047886,-0.016948500648140907,0.0234683807939291
1772789885602013400,18.609013427734375,0.006195749156177044,-0.016444463282823563,0.01873541995882988
1772789885622048300,18.62904833984375,0.009879497811198235,-0.010482203215360641,0.020944980904459953
1772789885642083300,18.649083251953126,0.011501243337988853,-0.023532874882221222,0.02044549025595188
1772789885662118400,18.669118408203126,0.009126018732786179,-0.026516370475292206,0.022214848548173904
1772789885682153500,18.689153564453125,0.010135420598089695,-0.0051788827404379845,0.02021981216967106
1772789885702187300,18.709187255859376,0.006207797676324844,0.006340718828141689,0.01629403606057167
1772789885722222300,18.729222412109376,-0.0009933726396411657,-0.007511782459914684,0.01798725500702858
1772789885742257400,18.74925732421875,0.002604404464364052,-0.01817133277654648,0.013009963557124138
1772789885762292500,18.76929248046875,0.008957408368587494,-0.013062993995845318,0.0032552992925047874
1772789885782327300,18.789327392578127,0.008758324198424816,-0.006472350098192692,-0.007068030536174774
1772789885802362400,18.8093623046875,0.00929928570985794,0.008167386054992676,-0.012827988713979721
1772789885822397400,18.8293974609375,0.011227542534470558,0.027704283595085144,-0.0012556177098304033
1772789885842432300,18.849432373046874,0.012029558420181274,0.028862809762358665,0.007692732382565737
1772789885862466300,18.86946630859375,0.013353588059544563,0.002346421591937542,0.013313157483935356
1772789885882501400,18.88950146484375,0.013628631830215454,-0.018080443143844604,0.011404536664485931
1772789885902536400,18.909536376953124,0.010392577387392521,0.004827491939067841,0.005827655550092459
1772789885922571500,18.929571533203124,0.0003217605408281088,0.030975930392742157,0.006086322478950024
1772789885942606300,18.9496064453125,-0.005670424550771713,0.03497139737010002,0.01244922075420618
1772789885962641400,18.969641357421875,-0.0014252248220145702,0.020306549966335297,0.021433543413877487
1772789885982676200,18.98967626953125,-0.0012906056363135576,0.0021978067234158516,0.029527559876441956
1772789886002710000,19.0097099609375,0.0008522623684257269,0.003825003281235695,0.03252378851175308
1772789886022745000,19.0297451171875,0.0024407352320849895,0.018389642238616943,0.026300081983208656
1772789886042780200,19.0497802734375,0.004053688608109951,0.025942768901586533,0.012162288650870323
1772789886062815200,19.069815185546876,0.0070695895701646805,0.021302256733179092,0.0018807519227266312
1772789886082850000,19.08985009765625,0.008171647787094116,0.0176483616232872,-0.005544455721974373
1772789886102885000,19.109885009765627,0.007078724447637796,0.00691923126578331,-0.008843349292874336
1772789886122920000,19.129919921875,0.0011911983601748943,-0.00013351533561944962,-0.00800145324319601
1772789886142954000,19.1499541015625,0.003511549439281225,-0.005704201757907867,-0.00806610006839037
1772789886162989000,19.169989013671874,0.001138011459261179,-0.004316645674407482,-0.012055654078722
1772789886183024000,19.190024169921877,-0.000096531817689538,0.0064498186111450195,-0.009437335655093193
1772789886203059200,19.21005908203125,0.0005503499414771795,0.01747582107782364,-0.0010936390608549118
1772789886223094000,19.230093994140624,-0.0007539929356426001,0.025499749928712845,0.009550129994750023
1772789886243129000,19.250129150390624,-0.003776311641559005,0.015879802405834198,0.016095280647277832
1772789886263164200,19.2701640625,-0.004105091094970703,0.004040836356580257,0.014597667381167412
1772789886283199000,19.290198974609375,0.0003233423922210932,0.0018775006756186485,-0.0034640198573470116
1772789886303233000,19.31023291015625,0.0012966552749276161,0.009883956052362919,-0.016110233962535858
1772789886323268000,19.33026806640625,-0.00046366150490939617,0.008000963367521763,-0.017755039036273956
1772789886343303000,19.350302978515625,-0.003156142309308052,-0.004917528480291367,-0.012524561956524849
1772789886363338000,19.370337890625,-0.000591331860050559,-0.01342730037868023,-0.008042378351092339
1772789886383373000,19.390373046875,0.001630768645554781,-0.011862903833389282,-0.009234640747308731
1772789886403408100,19.410408203125,-0.00200098380446434,-0.0020265188068151474,-0.0073187630623579025
1772789886423443200,19.430443115234375,-0.00789000652730465,0.007996315136551857,-0.003124312497675419
1772789886443477200,19.450477294921875,-0.0040702600963413715,0.021577877923846245,0.010707641020417213
1772789886463512000,19.470511962890626,0.002767027821391821,0.016820650547742844,0.019767824560403824
1772789886483547000,19.490546875,0.0023075914941728115,-0.008725680410861969,0.023567138239741325
1772789886503582000,19.51058203125,0.0026351676788181067,-0.023982299491763115,0.023616397753357887
1772789886523617000,19.530616943359377,0.009014124982059002,-0.02750222012400627,0.0242716446518898
1772789886543652000,19.550652099609376,0.010643495246767998,-0.0407564602792263,0.025496119633316994
1772789886563687200,19.570687255859376,0.008641798049211502,-0.07854003459215164,0.02828078530728817
1772789886583722200,19.59072216796875,0.006796712521463633,-0.11108843982219696,0.029935987666249275
1772789886603756300,19.61075634765625,-0.0015966512728482485,-0.11081799864768982,0.02574671432375908
1772789886623791000,19.630791015625,-0.008564747869968414,-0.09155858308076859,0.031635433435440063
1772789886643826000,19.650825927734374,-0.014162309467792511,-0.06498657912015915,0.03835418075323105
1772789886663861000,19.670861083984374,-0.009663245640695095,-0.04495072364807129,0.0456119142472744
1772789886683896000,19.69089599609375,0.0010077746119350195,-0.04340848699212074,0.05948405712842941
1772789886703931100,19.71093115234375,0.011306211352348328,-0.07611167430877686,0.057999614626169205
1772789886723966200,19.73096630859375,0.02754628099501133,-0.11989454180002213,0.04406184330582619
1772789886744000300,19.751000244140624,0.036080945283174515,-0.15831345319747925,0.019203603267669678
1772789886764035000,19.77103515625,0.02702752873301506,-0.1846209615468979,-0.004745671059936285
1772789886784070000,19.79106982421875,0.004826957359910011,-0.19957879185676575,-0.012384755536913872
1772789886804105000,19.81110498046875,-0.011339890770614147,-0.18217578530311584,-0.016249407082796097
1772789886824140000,19.83114013671875,-0.01581043377518654,-0.13330978155136108,-0.005061034113168716
1772789886844175000,19.851175048828125,-0.020526813343167305,-0.08627419918775558,0.015010593459010124
1772789886864210200,19.871210205078125,-0.013648205436766148,-0.05272988975048065,0.0448916032910347
1772789886884244000,19.891243896484376,0.0029948316514492035,-0.014196199364960194,0.08888395130634308
1772789886904279000,19.911279052734375,0.014524568803608418,0.007005779072642326,0.1185530498623848
1772789886924314000,19.931314208984375,0.033156681805849075,0.0060099586844444275,0.11538830399513245
1772789886944349000,19.951348876953126,0.052207741886377335,-0.02436600811779499,0.093410424888134
1772789886964384000,19.971384033203126,0.05919162556529045,-0.06385259330272675,0.06354120373725891
1772789886984419000,19.991419189453126,0.055892668664455414,-0.12274877727031708,0.04411034658551216
1772789887004454700,20.01145458984375,0.048658255487680435,-0.20447055995464325,0.03479614481329918
1772789887024488700,20.03148876953125,0.026398546993732452,-0.2613653838634491,0.036442991346120834
1772789887044523500,20.0515234375,-0.0043348572216928005,-0.25274863839149475,0.032017339020967484
1772789887064558600,20.07155859375,-0.019131701439619064,-0.1646660566329956,0.025837793946266174
1772789887084593400,20.091593505859375,-0.021287836134433746,-0.04170040041208267,0.045014187693595886
1772789887104628500,20.11162841796875,-0.031142430379986763,0.06944386661052704,0.08689382672309875
1772789887124663600,20.13166357421875,-0.02684011682868004,0.15737341344356537,0.1391780972480774
1772789887144698600,20.15169873046875,-0.004029271192848682,0.20915545523166656,0.17074421048164368
1772789887164733700,20.171733642578126,0.037547990679740906,0.17814739048480988,0.16155683994293213
1772789887184767500,20.191767578125,0.07502914220094681,0.08041443675756454,0.11393038183450699
1772789887204802600,20.211802490234376,0.08523388206958771,-0.0070992205291986465,0.05174233764410019
1772789887224837600,20.231837646484376,0.06685640662908554,-0.04025395214557648,0.007810896262526512
1772789887244872400,20.25187255859375,0.04277608543634415,-0.0447656512260437,-0.02462238073348999
1772789887264907500,20.271907470703123,0.010740822181105614,-0.07851863652467728,-0.04281487688422203
1772789887284942600,20.291942626953126,-0.008355164900422096,-0.11390899121761322,-0.05132868140935898
1772789887304977700,20.311977783203126,-0.014305762946605682,-0.11693739891052246,-0.042794544249773026
1772789887325011500,20.332011474609374,-0.018071506172418594,-0.11030411720275879,-0.02771410346031189
1772789887345046500,20.352046630859373,-0.027743518352508545,-0.1052950918674469,-0.004994730930775404
1772789887365081600,20.37208154296875,-0.02098902314901352,-0.09861526638269424,0.008150183595716953
1772789887385116700,20.39211669921875,-0.010463129729032516,-0.08528488129377365,0.022683031857013702
1772789887405151500,20.4121513671875,-0.007258540019392967,-0.04473069682717323,0.02523007057607174
1772789887425186600,20.4321865234375,-0.003574475646018982,0.00016675516963005066,0.014910480007529259
1772789887445221600,20.4522216796875,0.010104713961482048,-0.01133708469569683,-0.0061174361035227776
1772789887465255400,20.47225537109375,0.03126399591565132,-0.059503257274627686,-0.030095143243670464
1772789887485290500,20.49229052734375,0.040666624903678894,-0.10902572423219681,-0.042872533202171326
1772789887505325600,20.51232568359375,0.030800124630331993,-0.12181931734085083,-0.043280228972435
1772789887525360600,20.532360595703125,0.013700481504201889,-0.0983985960483551,-0.04468877241015434
1772789887545395700,20.552395751953124,0.000708241481333971,-0.07421133667230606,-0.03723617270588875
1772789887565430500,20.572430419921876,-0.010004137642681599,-0.04645896703004837,-0.01821153052151203
1772789887585465600,20.592465576171875,-0.02780728042125702,-0.00035218894481658936,0.016732776537537575
1772789887605500700,20.612500732421875,-0.032653070986270905,0.04863942414522171,0.07145743817090988
1772789887625534500,20.632534423828126,-0.02328399010002613,0.07388714700937271,0.12308887392282486
1772789887645569500,20.652569580078126,-0.002181949559599161,0.0476355254650116,0.1567922830581665
1772789887665604600,20.6726044921875,0.01147679053246975,-0.007404462434351444,0.1625719517469406
1772789887685639700,20.6926396484375,0.018031742423772812,-0.03966464474797249,0.13918663561344147
1772789887705674800,20.7126748046875,0.0202189888805151,-0.02225644513964653,0.08894955366849899
1772789887725709600,20.73270947265625,0.019333388656377792,-0.002024245448410511,0.02885356917977333
1772789887745743600,20.75274365234375,0.014512487687170506,-0.029610643163323402,-0.031107459217309952
1772789887765778400,20.7727783203125,0.01747889257967472,-0.09202822297811508,-0.07500557601451874
1772789887785813500,20.7928134765625,0.030488239601254463,-0.1531444936990738,-0.10370707511901855
1772789887805848600,20.8128486328125,0.033083412796258926,-0.17159132659435272,-0.09623602777719498
1772789887825883600,20.832883544921874,0.025702597573399544,-0.13936489820480347,-0.07246611267328262
1772789887845918700,20.852918701171873,0.013217367231845856,-0.07467269152402878,-0.03530057519674301
1772789887865953800,20.872953857421876,0.004686802625656128,-0.02070791833102703,0.008175719529390335
1772789887885988400,20.89298828125,0.0005717754829674959,0.0013744859024882317,0.049643177539110184
1772789887906022700,20.913022705078124,0.0073362370021641254,0.007940089330077171,0.08619502931833267
1772789887926057500,20.933057373046875,0.005019689444452524,0.016531232744455338,0.11132262647151947
1772789887946092500,20.953092529296875,0.007132391445338726,0.019232671707868576,0.10281966626644135
1772789887966127600,20.973127685546874,0.008805857971310616,0.0077864304184913635,0.06273195892572403
1772789887986162700,20.99316259765625,0.012858455069363117,-0.014202781952917576,0.012422120198607445
1772789888006197200,21.013197265625,0.01213851384818554,-0.038909465074539185,-0.04733140021562576
1772789888026232300,21.033232421875,0.014115629717707634,-0.053487807512283325,-0.08256712555885315
1772789888046266400,21.053266357421876,0.00042967498302459717,-0.04060570150613785,-0.0866769552230835
1772789888066301200,21.07330126953125,-0.0032981764525175095,-0.007954070344567299,-0.0779293030500412
1772789888086336300,21.093336181640623,0.009675370529294014,0.015032260678708553,-0.06329893320798874
1772789888106371000,21.11337109375,0.024179592728614807,0.011533951386809349,-0.05329061672091484
1772789888126406100,21.13340625,0.022060992196202278,0.0026644160971045494,-0.041800353676080704
1772789888146441200,21.153441162109374,0.02327212505042553,0.024516910314559937,-0.03010420687496662
1772789888166476300,21.173476318359373,0.020358877256512642,0.06386305391788483,-0.027182964608073235
1772789888186510000,21.193510009765625,0.014873513951897621,0.06793418526649475,-0.02950999140739441
1772789888206545200,21.213545166015624,0.012943045236170292,0.059520069509744644,-0.02906050533056259
1772789888226580200,21.233580322265624,0.006646550260484219,0.0759168192744255,-0.020840143784880638
1772789888246615300,21.253615234375,-0.004101886879652739,0.1070496141910553,-0.003029539715498686
1772789888266650000,21.273650146484375,-0.00889904797077179,0.12318214774131775,0.017426742240786552
1772789888286685200,21.293685302734374,-0.010120098479092121,0.08270804584026337,0.027123302221298218
1772789888306720300,21.31372021484375,-0.017164506018161774,0.04361933097243309,0.019791437312960625
1772789888326754000,21.333754150390625,-0.018128348514437675,0.050827376544475555,-0.001215518917888403
1772789888346789000,21.3537890625,-0.014278864488005638,0.09531200677156448,-0.03127637505531311
1772789888366824200,21.37382421875,-0.022565236315131187,0.1213696077466011,-0.04733237251639366
1772789888386859300,21.393859375,-0.015817197039723396,0.10189961642026901,-0.04865102469921112
1772789888406894000,21.41389404296875,-0.009756060317158699,0.06289660185575485,-0.03329634666442871
1772789888426929200,21.43392919921875,0.0031454379204660654,0.02773585543036461,-0.028056394308805466
1772789888446964200,21.453964111328126,0.01206572912633419,0.0015408480539917946,-0.03679371625185013
1772789888466998000,21.473998046875,0.015382688492536545,0.006340029649436474,-0.052397437393665314
1772789888487033000,21.494033203125,0.006784307770431042,0.058042287826538086,-0.0672236979007721
1772789888507068200,21.514068115234377,-0.006264244671911001,0.1253441423177719,-0.057516343891620636
1772789888527103200,21.534103271484376,-0.012226157821714878,0.15982933342456818,-0.03788042813539505
1772789888547138300,21.55413818359375,-0.010183642618358135,0.1274472028017044,-0.015933187678456306
1772789888567173000,21.574173095703124,0.0013269430492073298,0.07859423756599426,-0.004179463256150484
1772789888587208200,21.594208251953123,0.009658722206950188,0.05762308090925217,-0.01679307594895363
1772789888607242000,21.614241943359374,0.013891147449612617,0.03898676112294197,-0.04347248375415802
1772789888627277000,21.634277099609374,0.011503196321427822,0.007440224289894104,-0.06714064627885818
1772789888647312100,21.65431201171875,0.014968364499509335,-0.01664971560239792,-0.0737621858716011
1772789888667347200,21.67434716796875,-0.0002733913715928793,-0.013106334023177624,-0.05326415225863457
1772789888687382300,21.69438232421875,-0.027241690084338188,0.024581413716077805,-0.023734422400593758
1772789888707417300,21.714417236328124,-0.044509828090667725,0.08432168513536453,-0.0013652665074914694
1772789888727452200,21.7344521484375,-0.036860205233097076,0.12974859774112701,0.009648552164435387
1772789888747486200,21.754486328125,-0.01711338944733143,0.14994211494922638,0.022023716941475868
1772789888767521000,21.77452099609375,-0.010909676551818848,0.15517936646938324,0.04296666756272316
1772789888787556000,21.79455615234375,-0.009283090941607952,0.14260810613632202,0.06823001801967621
1772789888807591200,21.814591064453126,0.011400261893868446,0.08966605365276337,0.06218500807881355
1772789888827626200,21.834626220703125,0.03271264210343361,-0.028438035398721695,0.014639681205153465
1772789888847661300,21.854661376953125,0.04006195068359375,-0.13623769581317902,-0.055998314172029495
1772789888867696400,21.8746962890625,0.02704007178544998,-0.1317041963338852,-0.1152849793434143
1772789888887730200,21.894730224609376,0.0024200333282351494,-0.040065351873636246,-0.12632973492145538
1772789888907765200,21.91476513671875,-0.013539772480726242,0.027925748378038406,-0.08954214304685593
1772789888927800000,21.934800048828127,-0.01610000617802143,0.023720301687717438,-0.026900194585323334
1772789888947835100,21.954835205078126,0.0007852844428271055,-0.00321380328387022,0.038211919367313385
1772789888967870200,21.9748701171875,0.024023959413170815,-0.00025311950594186783,0.0849565714597702
1772789888987905300,21.9949052734375,0.026537740603089333,0.0315072201192379,0.11989030241966248
1772789889007939800,22.01493994140625,0.01111351978033781,0.06288175284862518,0.1313309669494629
1772789889027974700,22.034974609375,0.007153003476560116,0.08305471390485764,0.11707998812198639
1772789889048009700,22.055009765625,0.011324837803840637,0.05054301396012306,0.07916989922523499
1772789889068044500,22.07504443359375,0.014290444552898407,-0.031193919479846954,0.028843428939580917
1772789889088079600,22.09507958984375,0.01937653310596943,-0.09044678509235382,-0.024666381999850273
1772789889108114700,22.11511474609375,0.017112256959080696,-0.09192764759063721,-0.059148672968149185
1772789889128149800,22.135149658203126,0.012890065088868141,-0.0698062926530838,-0.07340987771749496
1772789889148183800,22.155183837890625,0.01761184260249138,-0.080914705991745,-0.06638338416814804
1772789889168218600,22.175218505859377,0.032777927815914154,-0.1030663549900055,-0.04907647520303726
1772789889188253700,22.195253662109376,0.04073134809732437,-0.10200952738523483,-0.007240244187414646
1772789889208288800,22.215288818359376,0.04343055188655853,-0.06638521701097488,0.040166594088077545
1772789889228323600,22.235323486328124,0.031771183013916016,-0.03296154364943504,0.08710619807243347
1772789889248358700,22.255358642578123,0.01191740669310093,-0.009435172192752361,0.12123184651136398
1772789889268393700,22.275393798828127,-0.0003822313155978918,0.03419901430606842,0.1271263211965561
1772789889288427500,22.295427490234374,-0.008696848526597023,0.10826628655195236,0.11247915774583817
1772789889308462600,22.315462646484374,-0.016982678323984146,0.16412420570850372,0.102656289935112
1772789889328497700,22.33549755859375,-0.01452802773565054,0.1468893587589264,0.09125024080276489
1772789889348532700,22.35553271484375,-0.006169618107378483,0.06559281796216965,0.07650157064199448
1772789889368567800,22.37556787109375,0.008527346886694431,-0.03153952583670616,0.03064987063407898
1772789889388602600,22.3956025390625,0.024674028158187866,-0.11471668630838394,-0.05381115525960922
1772789889408637700,22.4156376953125,0.044052593410015106,-0.19482342898845673,-0.14569294452667236
1772789889428671500,22.43567138671875,0.046652812510728836,-0.23666542768478394,-0.20182058215141296
1772789889448706600,22.45570654296875,0.038238540291786194,-0.21526046097278595,-0.1988745629787445
1772789889468741600,22.47574169921875,0.004569923970848322,-0.12344589829444885,-0.13906408846378326
1772789889488776700,22.495776611328125,-0.04377109929919243,0.011587164364755154,-0.0460786335170269
1772789889508811800,22.515811767578125,-0.07248983532190323,0.15106144547462463,0.049697425216436386
1772789889528846800,22.535846923828124,-0.06675765663385391,0.2642535865306854,0.12491869926452637
1772789889548881000,22.555880859375,-0.02360585890710354,0.29580748081207275,0.17166055738925934
1772789889568915700,22.575915771484375,0.02949739247560501,0.20845313370227814,0.189828559756279
1772789889588950500,22.595950439453127,0.07078728079795837,0.046188835054636,0.16466224193572998
1772789889608985600,22.615985595703126,0.0834316536784172,-0.09515698254108429,0.09721588343381882
1772789889629020700,22.636020751953126,0.054614052176475525,-0.1674034595489502,-0.010239402763545513
1772789889649055700,22.6560556640625,0.005747322924435139,-0.13321924209594727,-0.11785442382097244
1772789889669090800,22.6760908203125,-0.03536776825785637,-0.02849484048783779,-0.1977456510066986
1772789889689124900,22.696124755859376,-0.052927326411008835,0.05981947481632233,-0.2186751514673233
1772789889709159700,22.71615966796875,-0.05408238247036934,0.08942536264657974,-0.1688804030418396
1772789889729194800,22.73619482421875,-0.02926398068666458,0.06550676375627518,-0.060754869133234024
1772789889749229600,22.7562294921875,0.015964144840836525,0.024341408163309097,0.06346382945775986
1772789889769264600,22.7762646484375,0.043704744428396225,-0.01082852017134428,0.1423250436782837
1772789889789299700,22.7962998046875,0.045068372040987015,-0.01757536455988884,0.15957370400428772
1772789889809334800,22.816334716796874,0.02979961968958378,0.014940065331757069,0.11765801906585693
1772789889829368600,22.83636865234375,0.006890777964144945,0.06333544850349426,0.048987120389938354
1772789889849403600,22.856403564453124,-0.018869686871767044,0.08536512404680252,-0.017003096640110016
1772789889869438700,22.876438720703124,-0.034033119678497314,0.06790285557508469,-0.051605090498924255
1772789889889473800,22.896473876953124,-0.030295448377728462,0.02867388352751732,-0.047682445496320724
1772789889909508600,22.916508544921875,-0.021639179438352585,-0.014333048835396767,-0.021284054964780807
1772789889929543700,22.936543701171875,-0.011570350266993046,-0.022621382027864456,0.0036056269891560078
1772789889949578800,22.956578857421874,0.003844558261334896,-0.009322619996964931,0.011101095005869865
1772789889969612500,22.976612548828125,0.025337310507893562,-0.007903721183538437,-0.00372416153550148
1772789889989647600,22.996647705078125,0.034040722995996475,-0.038944169878959656,-0.015767443925142288
1772789890009682700,23.0166826171875,0.03295949473977089,-0.07989992201328278,-0.025807581841945648
1772789890029717800,23.0367177734375,0.015997152775526047,-0.09987208992242813,-0.027289224788546562
1772789890049752800,23.0567529296875,-0.003661294700577855,-0.07452426105737686,-0.02762233279645443
1772789890069787400,23.076787353515623,-0.03205566108226776,-0.007514432538300753,-0.03818069398403168
1772789890089821700,23.09682177734375,-0.04544993117451668,0.06827604025602341,-0.03886948898434639
1772789890109856500,23.1168564453125,-0.03283919394016266,0.10286016762256622,-0.02092045545578003
1772789890129891600,23.1368916015625,-0.005939118098467588,0.07521513849496841,0.01516936905682087
1772789890149926700,23.1569267578125,0.018552182242274284,0.014987022615969181,0.06358236074447632
1772789890169961700,23.176961669921877,0.028821676969528198,-0.03480592370033264,0.082616426050663
1772789890189996800,23.196996826171876,0.02204946056008339,-0.05400542914867401,0.05846242234110832
1772789890210031600,23.217031494140624,0.010343428701162338,-0.04586312174797058,-0.004087654408067465
1772789890230065700,23.237065673828123,-0.011257795616984367,-0.024736672639846802,-0.06551820784807205
1772789890250100700,23.257100830078127,-0.03392343968153,0.009438798762857914,-0.09520446509122849
1772789890270135600,23.277135498046874,-0.04594271257519722,0.03512677177786827,-0.08182564377784729
1772789890290170600,23.297170654296874,-0.03829565271735191,0.030575569719076157,-0.043779511004686356
1772789890310205700,23.317205810546874,-0.015468779951334,-0.008217516355216503,0.005662222858518362
1772789890330240800,23.33724072265625,0.0012867941986769438,-0.02805047668516636,0.03841640055179596
1772789890350274600,23.357274658203124,0.01202796958386898,-0.009847752749919891,0.045644644647836685
1772789890370309600,23.3773095703125,0.0070757148787379265,0.01870274543762207,0.03135102614760399
1772789890390344700,23.3973447265625,-0.005123200826346874,0.02419530227780342,-0.00384713988751173
1772789890410379800,23.4173798828125,-0.013936245813965797,0.027666697278618813,-0.039524585008621216
1772789890430414600,23.43741455078125,-0.020631296560168266,0.03241489827632904,-0.0664021447300911
1772789890450449700,23.45744970703125,-0.019081169739365578,0.03544749692082405,-0.05484391376376152
1772789890470484700,23.477484619140625,-0.013854140415787697,0.02074238657951355,-0.02953648380935192
1772789890490518500,23.4975185546875,-0.00850914791226387,0.005083275027573109,-0.001836695708334446
1772789890510553600,23.5175537109375,-0.003194845747202635,0.0033289436250925064,0.014384377747774124
1772789890530588700,23.537588623046876,-0.0019276337698101997,0.00850257370620966,0.01125774160027504
1772789890550623700,23.557623779296875,-0.003671277780085802,0.01660330221056938,0.005123224575072527
1772789890570658600,23.577658447265627,-0.011921564117074013,0.019394120201468468,0.003682538401335478
1772789890590693600,23.597693603515626,-0.013238122686743736,0.02515099197626114,-0.0008531901985406876
1772789890610727400,23.6177275390625,-0.009805602952837944,0.024260155856609344,-0.0034079456236213446
1772789890630762500,23.637762451171874,-0.00891885720193386,0.014470103196799755,-0.0036821577232331038
1772789890650797600,23.657797607421877,-0.00811590626835823,0.0022012870758771896,0.0013879584148526192
1772789890670832600,23.67783251953125,-0.0034453272819519043,-0.0020079147070646286,0.007852056995034218
1772789890690867700,23.69786767578125,-0.0022486168891191483,0.010290545411407948,0.009325692430138588
1772789890710902800,23.71790283203125,-0.0062337713316082954,0.025886282324790955,0.009665511548519135
1772789890730937600,23.7379375,-0.009738254360854626,0.02810988947749138,0.008981650695204735
1772789890750971600,23.7579716796875,-0.0077521912753582,0.01197394635528326,0.014280660077929497
1772789890771006500,23.77800634765625,-0.007292522117495537,-0.009933115914463997,0.014919010922312737
1772789890791041500,23.79804150390625,-0.011027613654732704,-0.031704291701316833,0.012503266334533691
1772789890811076600,23.81807666015625,-0.0107694948092103,-0.04914598912000656,0.0017067580483853817
1772789890831111700,23.838111572265625,-0.011482005938887596,-0.050543900579214096,-0.014215640723705292
1772789890851146800,23.858146728515624,-0.012703158892691135,-0.04012865573167801,-0.02748127467930317
1772789890871180500,23.8781806640625,-0.009488831274211407,-0.035249922424554825,-0.03373827040195465
1772789890891215600,23.898215576171875,-0.005763694643974304,-0.0381624661386013,-0.02668851613998413
1772789890911250700,23.918250732421875,-0.004772192798554897,-0.046175550669431686,-0.018900377675890923
1772789890931285500,23.938285400390626,0.00031111272983253,-0.049055807292461395,-0.012304655276238918
