time,seconds_elapsed,z,y,x
1772718007400765700,0.062765625,-0.8367921849250793,0.461531177572906,-1.007899569953978
1772718007420638500,0.082638427734375,-0.6106739835530519,0.36335254289358854,-0.8878422078784555
1772718007440510500,0.102510498046875,-0.4665384843409061,0.5037526549696922,-0.7644517558574676
1772718007460383700,0.1223837890625,0.04328150784373283,0.6725201988741755,-0.4389052850712091
1772718007480255500,0.14225537109375,0.6937894891351462,0.14920155043005942,-0.4984354054696858
1772718007500127500,0.16212744140625,0.66828738361001,-0.08734656728059052,-0.46520613975860176
1772718007520000800,0.182000732421875,0.183613523119688,-0.0030900749698281288,-0.5759432272378355
1772718007539872800,0.201872802734375,0.018151742762327193,-0.06448211678266524,-0.8516358260527253
1772718007559745500,0.22174560546875,0.03293313230872154,-0.4260220572963357,-0.7274761432249098
1772718007579617500,0.241617431640625,0.052587680849432945,-0.34652824934273957,-0.45816908072866497
1772718007599490600,0.261490478515625,-0.31997838833034037,0.07549684727191924,-0.9566476677529513
1772718007619362600,0.281362548828125,-1.2033733344763518,-0.6044137541145086,-0.8031441823452711
1772718007639235600,0.301235595703125,-1.0846581077247857,-0.43447541286498303,-0.5759197732970118
1772718007659107600,0.321107666015625,-0.9500970770657062,0.030164836639165877,-1.249146513005346
1772718007678980600,0.340980712890625,-1.1762719770610333,0.18127660460472106,-1.46656600574553
1772718007698852600,0.3608525390625,-1.6147551642626523,0.09202624952942133,-0.9816831056144087
1772718007718725600,0.3807255859375,-2.0325889466673135,-0.19275369190871713,-0.5512859750390052
1772718007738597600,0.40059765625,-1.6942746911793947,-0.028064064967632293,-0.3608268238082528
1772718007758469600,0.4204697265625,-1.2422960625886916,0.11920739418268203,0.014156827907264231
1772718007778342700,0.4403427734375,-0.6019833120971918,0.1753004528045654,0.8867734826683997
1772718007798214700,0.460214599609375,0.5818003557682037,-0.09562252045571804,2.2148108692981303
1772718007818087700,0.480087646484375,1.6905296594321726,-1.0382815564751624,3.0430048833563923
1772718007837959400,0.49995947265625,2.108676161047816,-1.521923151308298,2.2881353409670293
1772718007857832700,0.519832763671875,2.303220243504643,-0.16905658997893333,0.6631833384692668
1772718007877704700,0.53970458984375,2.7423136715590952,0.9419014956504106,0.5689293298877776
1772718007897577500,0.559577392578125,3.259133313372731,1.175696222999692,1.2657763068974017
1772718007917449700,0.57944970703125,4.116510605686903,1.7062573899179696,2.2406623727828263
1772718007937322500,0.599322509765625,4.54992540358305,1.5070166740775108,2.5726392419427633
1772718007957194500,0.619194580078125,2.711808643180132,1.6429560073524712,1.159350945137441
1772718007977067800,0.63906787109375,1.8869845439463853,2.8658868597358462,-0.595615822891891
1772718007996939800,0.658939697265625,3.0667110453754662,3.9300083753883834,0.5044888602897525
1772718008016811500,0.6788115234375,5.0711576011419295,4.514873963946104,2.4412054033935067
1772718008036684500,0.6986845703125,6.488153228032589,4.991100898608565,3.5958056468725204
1772718008056556800,0.718556884765625,7.224447395420074,5.682006941261887,3.7750741265252232
1772718008076429600,0.7384296875,6.712078303274512,6.211613583934307,2.977791237428784
1772718008096301600,0.758301513671875,3.934707931381464,6.130818630254268,1.985160840538144
1772718008116174600,0.778174560546875,1.51636142552793,6.058150868928432,1.4957973609268664
1772718008136046600,0.798046630859375,1.3442396027594803,7.032499174675345,1.545364817172289
1772718008155919600,0.817919677734375,2.1066034464269876,6.9672302914291615,1.3145990822553635
1772718008175791600,0.83779150390625,3.0098294667243954,6.776543468922376,1.1812538571268318
1772718008195664600,0.85766455078125,3.4869042503878473,7.312102297997474,1.2355623704195022
1772718008215536600,0.87753662109375,2.1709198512539265,8.218058620041608,1.6409575270116328
1772718008235408600,0.89740869140625,0.8724699397668242,9.656187051331996,0.988249989849329
1772718008255281700,0.91728173828125,1.0261521427422762,10.136445433467626,-1.1991565935641526
1772718008275153700,0.937153564453125,0.7963673816867173,10.495090529322624,-4.300128220459818
1772718008295027500,0.95702734375,-1.0620074461080133,10.988488963538408,-6.964167981249093
1772718008314899700,0.976899658203125,-4.39009315354526,9.75375544515848,-9.834664965128898
1772718008334772500,0.9967724609375,-6.131494922080636,8.325555702686309,-12.76596742310524
1772718008354644500,1.01664453125,-4.1153158429443835,6.2630719684928655,-12.642364424312113
1772718008374517800,1.036517822265625,-2.038891846203804,4.771480827084184,-11.961625555408
1772718008394389500,1.056389404296875,-1.0890694944262505,2.3752824401527644,-13.010975618386269
1772718008414262500,1.076262451171875,-0.982253964304924,-0.2489396895110607,-14.220678740406036
1772718008434134800,1.096134765625,-0.7213128713548183,-2.9070021294564006,-14.439218615478277
1772718008454007600,1.116007568359375,-0.4891864425439387,-4.683338433250785,-13.95328569483757
1772718008473879600,1.135879638671875,-1.018130675784871,-5.681496653652191,-12.491291234791278
1772718008493751600,1.15575146484375,-1.477864229351282,-5.8817766494125125,-9.182961636573076
1772718008513624600,1.17562451171875,-1.5771185304380952,-5.115495924562215,-6.103313368213176
1772718008533496600,1.19549658203125,-1.4086100758612154,-4.559740695154667,-4.599940603595972
1772718008553369600,1.21536962890625,-0.9723802205443381,-4.892566290098428,-4.782209141847491
1772718008573241600,1.23524169921875,-0.14429390464425085,-5.019376560500264,-6.3708993060052395
1772718008593114600,1.255114501953125,0.14654778451826422,-4.829703298950195,-7.595112599414587
1772718008612986600,1.274986572265625,0.1081657574201934,-4.195102496364712,-7.525500134006142
1772718008632859600,1.294859619140625,-0.24913491982221603,-3.3728976397186514,-7.1828873045414685
1772718008652731600,1.314731689453125,-0.7587842316150665,-2.2814298519790173,-7.370087453976273
1772718008672604700,1.334604736328125,-1.0127788664281367,-1.5886188524872065,-6.951420143356919
1772718008692476400,1.354476318359375,-1.0680115088284015,-0.9909779535084963,-6.426912285128235
1772718008712349700,1.374349609375,-0.9788660754323005,-0.00032440964877605437,-6.250841432473063
1772718008732221700,1.3942216796875,-1.1354559825479984,0.9704945529282093,-6.488013527300954
1772718008752093400,1.414093505859375,-1.3347259244829415,1.774504412192106,-6.976653368812799
1772718008771966700,1.433966796875,-1.4517401925355196,3.0592373484939337,-7.298649526706337
1772718008791838700,1.453838623046875,-0.9424795877993106,4.273504417428374,-7.046888934555649
1772718008811711500,1.47371142578125,-0.7075526415497064,5.1422886544197794,-6.633995531162619
1772718008831583500,1.49358349609375,-0.7855816376477479,6.024834290260076,-6.2470268426209685
1772718008851456800,1.513456787109375,-0.6946341232657433,6.952730056911706,-5.867732926490903
1772718008871328500,1.53332861328125,-0.4328028034776449,7.835200289428234,-4.37679586507678
1772718008891201500,1.553201416015625,-0.2967272766023874,8.660157659652828,-2.668109786707163
1772718008911073800,1.57307373046875,-0.5297181402228772,8.820069404667615,-1.1725222691386938
1772718008930946600,1.592946533203125,-0.7421593330938369,8.644632758262754,0.03738660458624363
1772718008950818600,1.612818603515625,-0.4676793980043381,8.478312315249443,1.3032353921979665
1772718008970690600,1.632690673828125,0.026075010042265055,8.030475024247169,2.855594598302245
1772718008990563600,1.6525634765625,0.44498248609304425,7.618041055059432,4.063705482694506
1772718009010435600,1.672435546875,0.7174458206631242,7.325764912647008,4.819428573173284
1772718009030308600,1.69230859375,1.0956376938354224,7.182263619685172,5.167449983683229
1772718009050180600,1.7121806640625,1.2121510996937752,7.0175254774272435,5.389418079638481
1772718009070053600,1.7320537109375,1.1263111375838517,6.490605881881714,5.53880726159513
1772718009089925600,1.751925537109375,0.9242442584067583,5.836764372253418,5.4003965697705745
1772718009109798700,1.771798583984375,0.49629879529979076,5.174557769861817,5.131399011614919
1772718009129670700,1.791670654296875,0.08571892954614013,4.70712555155158,5.1029257813245055
1772718009149543400,1.81154345703125,-0.0166612119436264,4.5470209143131965,5.374302343571186
1772718009169415700,1.831415771484375,0.24558807752821593,4.656244090098142,5.949040505868196
1772718009189288700,1.851288818359375,0.5400432810127734,4.811620822031796,6.4410775886029
1772718009209160400,1.871160400390625,0.6558849981546402,5.06306314201355,6.42528146905601
1772718009229033700,1.89103369140625,0.6263683962911367,5.222827002990246,5.966431201130152
1772718009248905700,1.91090576171875,0.5870243009615689,5.285633880037069,5.299240380585194
1772718009268777700,1.93077783203125,0.5173725995212793,5.266588403305411,4.5343642618358135
1772718009288650500,1.950650390625,0.35609362127389754,4.942240713849664,3.631749651435017
1772718009308522000,1.97052197265625,0.4953653869071975,4.816870120862126,3.364586322969198
1772718009328395000,1.99039501953125,0.5358569352388382,5.042828163236379,3.842999369499087
1772718009348266800,2.010266845703125,0.6015425095271318,5.375146393179893,4.059159071436524
1772718009368140000,2.03014013671875,0.8830541698843241,5.867172954520583,3.921689459854364
1772718009388012000,2.050011962890625,1.0714929212033748,6.18156214454174,3.3161247821390627
1772718009407884800,2.069884765625,1.0367174489635973,6.848532600334286,2.371874093014002
1772718009427756800,2.0897568359375,1.4221803360521792,7.773225187030434,1.1638427035987375
1772718009447629800,2.1096298828125,1.3540852894693611,8.476663963520526,-0.7978612735062837
1772718009467501800,2.129501708984375,0.9028186816055327,8.878538544771075,-3.645754211390018
1772718009487373800,2.149373779296875,0.15285605434961616,8.414961832845211,-6.735429368245601
1772718009507246800,2.169246826171875,-1.2860405117690563,6.347749901086091,-9.153159788027406
1772718009527118800,2.189118896484375,-2.427148820990324,2.784999551597237,-10.868947222834825
1772718009546991900,2.208991943359375,-6.789158620345592,-2.6617694777697323,-16.91141069328785
1772718009566864100,2.228864013671875,-5.037281050503253,-3.4551053828060625,-20.480220781207084
1772718009586737000,2.24873681640625,-3.0236569165468214,-3.5729566862046718,-11.870690315985678
1772718009606609000,2.26860888671875,-3.7429017494559287,-1.2115016958743332,-3.9196372034996747
1772718009626482000,2.28848193359375,-1.2112322312831878,-0.5787848073393106,-0.7957669315755367
1772718009646354000,2.30835400390625,0.31896424285173414,-1.8743851746141909,-1.8005851943880318
1772718009666227000,2.32822705078125,-0.473051227235794,-2.662087457677722,-4.228482787919044
1772718009686098700,2.3480986328125,-1.072227080696821,-3.8962633421748873,-5.578498051470517
1772718009705972000,2.367971923828125,-1.2695371207356452,-4.596024306935072,-6.141028474101424
1772718009725844000,2.387843994140625,-1.7460417032957076,-4.729344397622347,-5.700701704859733
1772718009745716000,2.407716064453125,-2.236431018823385,-4.4543882233232255,-4.927138421785831
1772718009765589000,2.427589111328125,-2.3728034828186035,-3.8773166496425864,-4.501855492419004
1772718009785461000,2.4474609375,-1.8775380856871604,-3.34365693218708,-4.102208524090051
1772718009805333800,2.467333740234375,-1.2238064661741257,-3.0659277860432863,-4.088528958305716
1772718009825205800,2.487205810546875,-0.5719149215698242,-2.7501597088843583,-4.130639668804407
1772718009845079000,2.5070791015625,-0.19198972179889678,-2.3450182347923514,-3.8795699815273283
1772718009864950800,2.52695068359375,-0.4527314927846193,-1.9712661706984043,-3.729967449080944
1772718009884823800,2.54682373046875,-1.1002560743510723,-1.3841004885047674,-3.676454470080137
1772718009904696000,2.566696044921875,-1.3164064239382742,-0.8631050223112106,-3.8850264933675525
1772718009924568800,2.58656884765625,-1.121722640749812,-0.417614002174139,-4.224970980405807
1772718009944440800,2.60644091796875,-1.132168631440401,0.14137830945849417,-4.638095854467153
1772718009964313900,2.62631396484375,-1.0302613316267728,1.05969668494761,-4.96973720806241
1772718009984185900,2.646185791015625,-0.9426865085482596,2.0615987680524586,-5.323074845159053
1772718010004057900,2.666057861328125,-0.6249053380012511,2.4463269841909407,-5.695811594730615
1772718010023931000,2.685930908203125,0.0063590136379003525,3.0141154734805227,-6.294501125979423
1772718010043803000,2.705802978515625,0.30725743844509124,4.404477944989502,-5.997888415667414
1772718010063676000,2.725676025390625,0.09193250683136284,5.780789387053251,-3.604875673034787
1772718010083548000,2.7455478515625,-0.2871733393806964,6.3596817464202635,-0.6998661787003279
1772718010103421000,2.7654208984375,-0.5212362892121076,5.887062480860949,1.361449096235633
1772718010123293000,2.78529296875,-0.39597792442739005,5.154993237692118,1.8490186781674622
1772718010143166000,2.805166015625,0.03494038047790527,4.72235380808264,1.716870553869009
1772718010163038000,2.825037841796875,0.5421358693778514,4.902230482761562,2.4697131204754115
1772718010182911000,2.844910888671875,0.8313397647380828,5.273502128216624,3.6087446234226226
1772718010202783000,2.864782958984375,0.9059452161282301,5.3124423919856545,4.469726077708602
1772718010222656000,2.884656005859375,0.7061124526787549,4.839567690360546,4.62528839534223
1772718010242528000,2.904528076171875,0.9681389297127723,4.528133843013644,4.367310243850946
1772718010262400000,2.92439990234375,1.0941285313814877,4.280642891006171,4.517372210502624
1772718010282272800,2.944272705078125,0.8683195420891046,4.298385468445718,4.927269354689121
1772718010302144800,2.964144775390625,0.49314526317231355,4.314963093759119,5.12662054516673
1772718010322017800,2.984017822265625,0.04429802794251591,4.234045098221301,4.808581015944481
1772718010341889500,3.0038896484375,-0.25661672694496807,4.245086424456536,4.40490201562047
1772718010361762800,3.0237626953125,-0.3043804947692901,4.144689236944914,4.282693101534247
1772718010381634800,3.043634765625,0.014622911049053071,4.26288248564899,4.193310352250934
1772718010401507600,3.063507568359375,0.3462427103996277,4.297798608468472,4.133884349814057
1772718010421379800,3.0833798828125,0.5420441359737888,4.334756466248631,4.140828469863534
1772718010441252600,3.103252685546875,0.7640484357535838,4.531314811137318,4.371995186796784
1772718010461124600,3.12312451171875,0.9900034824531525,4.836052375715971,4.882562197956442
1772718010480998000,3.142997802734375,1.2561737812936304,5.11240906446278,5.373041529855132
1772718010500869600,3.16286962890625,1.4142629870563745,5.39154573931694,5.544672938758135
1772718010520741600,3.18274169921875,1.418601893043518,5.715088542130589,5.076291456899047
1772718010540615000,3.202614990234375,1.2929665116399527,5.979137537968159,3.9366245786577463
1772718010560487000,3.22248681640625,1.0668722756654023,6.365434610858559,2.596832602956891
1772718010580359700,3.242359619140625,1.0536503174554557,7.018439085140824,1.1034031402051447
1772718010600231700,3.262231689453125,1.1457037472527474,7.6399565342694515,-0.5980956570088863
1772718010620104700,3.282104736328125,0.4741303277093917,7.9234490662455554,-3.1985213160216808
1772718010639976700,3.301976806640625,-0.508532874983549,6.968625545179844,-5.933030451309681
1772718010659849700,3.321849609375,-1.2663240039080381,4.7656233332276345,-8.229794650542736
1772718010679721700,3.3417216796875,-2.858315547698736,1.1137737275719641,-9.494325925815104
1772718010699594800,3.3615947265625,-6.627876171499491,-3.627627018547058,-15.629941142696142
1772718010719466800,3.381466796875,-4.145795152360201,-3.442032550743222,-16.580077967250347
1772718010739339800,3.40133984375,-0.5215232529273256,-2.057088597151637,-8.006231978872417
1772718010759211800,3.421211669921875,1.7729875778883695,-1.2606798605412244,-1.5961586003422736
1772718010779083800,3.441083740234375,2.371409398111701,-2.570578802281618,0.8451075933277606
1772718010798956500,3.46095654296875,1.1379496259946376,-3.315816739103198,-0.5775976433813571
1772718010818828800,3.480828857421875,-1.3848030838161707,-3.6677982854157682,-2.60696178278327
1772718010838701800,3.500701904296875,-3.0741046627581117,-3.8215789803296327,-3.33420170609951
1772718010858573600,3.520573486328125,-3.6054660401433702,-3.7396295959174632,-3.6608477356255054
1772718010878446800,3.54044677734375,-3.833570446896553,-3.2192642443209887,-3.924589857470989
1772718010898318800,3.56031884765625,-3.6457127103358506,-3.0707179429292677,-3.9266947207957505
1772718010918191600,3.580191650390625,-2.87941971052587,-2.9410633890122173,-3.8672067590385675
1772718010938063600,3.600063720703125,-1.9781378100335596,-2.777469156092405,-3.8992841513007876
1772718010957936600,3.6199365234375,-1.4567361011266708,-2.704952201414108,-4.076363304215669
1772718010977808600,3.63980859375,-0.8588182118374854,-2.4811954684764146,-3.9576217739790676
1772718010997681700,3.659681640625,-0.4445446061324328,-2.320017064526677,-3.811218329834938
1772718011017554000,3.679553955078125,-0.3589999737072736,-1.978523009958863,-3.763289288446307
1772718011037425700,3.69942578125,-0.666456076529622,-1.8788959300369024,-3.964970967698097
1772718011057298700,3.719298583984375,-0.9590332477152347,-1.673296200558543,-4.248361792865396
1772718011077171000,3.7391708984375,-0.908007993876934,-1.2194289817422628,-4.1968659989058965
1772718011097043700,3.759043701171875,-0.9992167895436286,-0.5490267979353666,-4.311493079560995
1772718011116915700,3.778915771484375,-1.292063863711804,0.43086014497727154,-4.5586792034029955
1772718011136788700,3.798788818359375,-1.3788954672075808,1.3482698811888694,-4.402562174496055
1772718011156660700,3.81866064453125,-1.1433745005875826,2.143064752861857,-3.957605991888046
1772718011176533800,3.83853369140625,-0.5063292274594307,2.787557711647451,-3.117577893781662
1772718011196405800,3.85840576171875,0.05073065480589866,3.446113098055124,-1.8039988022238016
1772718011216278800,3.87827880859375,0.2739690629579127,3.858458804437518,-0.35562311768531796
1772718011236150800,3.89815087890625,0.4443617238461971,4.143600857186317,0.8454922087311744
1772718011256023600,3.9180234375,0.6958458371430635,4.300097825321555,1.749233777335286
1772718011275895800,3.937895751953125,1.1682769597191363,4.551619348019361,2.8029093022972345
1772718011295768800,3.957768798828125,1.3710855241090059,4.853977616246044,4.021932041326165
1772718011315640600,3.977640625,0.9088771779268979,4.929082541590929,4.534820773431658
1772718011335512600,3.9975126953125,0.4006329106263816,4.90759434788227,4.774653027379513
1772718011355385900,4.0173857421875,0.2782866338960826,4.793823007273674,4.981045953062177
1772718011375257900,4.0372578125,0.5746908160239458,4.653090009981393,5.0545571794748305
1772718011395130600,4.057130615234375,0.8965133709162473,4.54806925432235,5.018242588034272
1772718011415003000,4.0770029296875,0.932161607402563,4.477971343484521,4.783220364716649
1772718011434875600,4.096875732421875,0.8958119446486235,4.358869455502927,4.713785593962669
1772718011454747600,4.11674755859375,1.05876378801167,4.431342278778553,4.781341711363196
1772718011474621000,4.136620849609375,1.1094294878225772,4.482303235208988,4.6988539822906255
1772718011494492700,4.15649267578125,0.9495377626825123,4.49783398181796,4.489286518225073
1772718011514365700,4.17636572265625,1.163562790678814,4.585941012077034,4.467689603444934
1772718011534237700,4.19623779296875,1.389118024405837,4.7024984762728215,4.4846384001582855
1772718011554110700,4.21611083984375,1.3030202881425619,4.91470154953897,4.225750732606649
1772718011573982700,4.235982666015625,1.156425851470977,5.109637261661887,3.6171167304486036
1772718011593854700,4.255854736328125,0.7386825238287449,5.289204139739275,2.4576480041503905
1772718011613727700,4.275727783203125,0.14448212069272995,5.294612136262655,0.41876726386249064
1772718011633599700,4.295599853515625,-0.22002456067204473,4.789060030655563,-1.5054162531435489
1772718011653472800,4.31547265625,-0.02919226527996361,3.9528564592733977,-2.9836791264235973
1772718011673344800,4.3353447265625,0.30130050280205906,2.719816300807893,-4.283745240935683
1772718011693217800,4.3552177734375,0.45065296947751193,1.411952956548333,-5.4130695888608695
1772718011713089800,4.37508984375,0.049177580145001405,-0.9459025479853153,-6.903410437947511
1772718011732962800,4.394962890625,-1.1400023938059807,-3.41766091055274,-10.351834735554457
1772718011752834800,4.414834716796875,-1.11798937250562,-4.161936139822006,-12.352263872373104
1772718011772707600,4.43470751953125,-1.9730244125425815,-3.708555243217945,-8.257942302140593
1772718011792579600,4.45457958984375,-2.3664637584030626,-2.675103006595373,-3.974667016804218
1772718011812452900,4.474452880859375,-1.975028153580427,-2.743259427976608,-1.7762854503899812
1772718011832324900,4.494324951171875,-1.381005445098877,-2.6583535318464038,-2.269365320175886
1772718011852197600,4.51419775390625,-1.3668413106679915,-2.9870722759932278,-3.075737816917896
1772718011872070000,4.53406982421875,-1.32868605979681,-3.3528216508954762,-3.991016094058752
1772718011891942000,4.55394189453125,-1.1879250054538248,-3.3527462475717065,-4.281220690894127
1772718011911814700,4.573814697265625,-1.1101625513374804,-3.018044337362051,-4.196544511866569
1772718011931686700,4.593686767578125,-1.0520844563782215,-2.285635486975312,-3.8312627544760702
1772718011951559700,4.6135595703125,-1.0819932724297046,-1.7306763763815163,-3.4874428873091934
1772718011971431700,4.633431640625,-1.3748364010751246,-1.615809641751647,-3.4840462306082247
1772718011991304700,4.6533046875,-1.8307038537979126,-1.589891356641054,-4.159911940518021
1772718012011176700,4.6731767578125,-1.838897681647539,-1.6240367873489856,-4.9730707363992925
1772718012031049700,4.6930498046875,-1.3327695297181605,-1.345295833814144,-5.221448115852475
1772718012050921700,4.712921630859375,-0.8916092322617769,-0.5926560963034629,-5.139496977874637
1772718012070794800,4.732794677734375,-0.41772096967995165,0.8962520896315574,-4.492022080668807
1772718012090666800,4.752666748046875,0.015599720191955565,1.9132570493221281,-3.482340595734119
1772718012110539800,4.772539794921875,0.2988889116156846,2.425210838665068,-2.673083483466506
1772718012130411500,4.79241162109375,0.09011464375443756,2.6755715008899568,-2.3007786955714224
1772718012150283800,4.81228369140625,0.2865443938273936,2.90354439021796,-1.2781716780900954
1772718012170156800,4.83215673828125,0.5164982278395444,3.259849352687597,-0.07332242584228515
1772718012190028500,4.852028564453125,0.4033920000761747,3.5806449026197193,1.0120423688471316
1772718012209901800,4.87190185546875,0.5085737915158272,3.721919751703739,2.0707506272792813
1772718012229773800,4.89177392578125,0.680356007066369,3.9231411199674007,3.016923224377632
1772718012249646600,4.911646484375,0.8520172996509819,3.957660060162842,3.6707512900024653
1772718012269518600,4.9315185546875,0.9238422534771263,4.020439756941795,3.8441695823222397
1772718012289391900,4.951391845703125,0.6025527094829827,3.8963156568840143,3.6469565729171034
1772718012309264100,4.97126416015625,0.2785114556279033,3.7210403385207056,3.3577240359842775
1772718012329137200,4.99113720703125,0.18293723129332065,3.9441266248509286,3.4766163728684183
1772718012349009200,5.011009033203125,0.28086978225708004,3.996405385881662,3.81348919737637
1772718012368882200,5.030882080078125,0.48905485205352306,4.05842082028985,3.9780812091618776
1772718012388754200,5.050754150390625,0.6153023009408265,4.189348170621693,4.113191105875373
1772718012408627000,5.070626953125,0.6697161012388766,4.193535393178463,4.064710860344768
1772718012428499200,5.090499267578125,0.8843640834391117,4.09651323505789,3.7956758927881715
1772718012448372200,5.110372314453125,0.8596564162272959,3.6776626768261194,3.3062574681192634
1772718012468244000,5.130243896484375,0.8015513601958751,3.2539699392601844,2.912261657419801
1772718012488116000,5.150115966796875,0.8329875319451093,3.2370506609022613,3.1298388249397275
1772718012507989200,5.1699892578125,0.8626853355944156,3.2953020666018125,3.6339579751342534
1772718012527861000,5.189861083984375,1.0728361525058745,3.4822263217046854,4.161903406596184
1772718012547734000,5.209734130859375,1.3473901757448912,3.534442538893223,4.165781709334254
1772718012567606300,5.229606201171875,1.608289767640829,3.5291292349159717,3.7459757500737902
1772718012587479000,5.24947900390625,1.6661065813153981,3.5364585548907517,3.123219699060917
1772718012607351000,5.26935107421875,1.382594175595045,3.725075585386157,2.4711025290071964
1772718012627224300,5.289224365234375,1.0774066022265703,4.034712027922272,1.664900128135085
1772718012647096000,5.309095947265625,0.7353887429803609,4.400029148887097,0.7384411162883043
1772718012666969000,5.328968994140625,0.17317867487762123,4.417260854195058,-0.516572973576188
1772718012686841000,5.348841064453125,-0.18953067474160343,4.18951154448986,-2.0293308216542005
1772718012706714000,5.368714111328125,-0.620204028442502,3.657878364425897,-3.628943946364522
1772718012726586000,5.388586181640625,-0.8355927460074424,2.325118187057972,-4.828382279479503
1772718012746459000,5.408458984375,-0.5801216089010238,1.0653449199676512,-5.577683227956295
1772718012766331100,5.4283310546875,-0.7374409993350506,-0.4578513200163841,-6.161684308639169
1772718012786203100,5.448203125,-1.1579589062571525,-1.562227689167857,-7.112287581661343
1772718012806076200,5.468076171875,-0.986470705217123,-2.402511807861924,-8.023207663592697
1772718012825948000,5.487947998046875,-1.513051278066635,-3.212090407168865,-7.339231712463498
1772718012845821200,5.5078212890625,-2.2093255697548386,-2.954706714439392,-5.6986862733840935
1772718012865693200,5.527693115234375,-2.1345523605823518,-3.1467560574710367,-4.708420852059126
1772718012885566000,5.54756591796875,-1.5524620819568633,-3.608317922443151,-5.067169408288597
1772718012905438200,5.567438232421875,-1.0411902835287152,-3.832648655876517,-5.5640545155763625
1772718012925311000,5.58731103515625,-0.774824754377082,-3.91873177909255,-5.312862663224339
1772718012945183000,5.607182861328125,-0.9732593414664268,-3.75824778714776,-4.63454020781219
1772718012965056300,5.62705615234375,-1.132704053491354,-3.1027596793562173,-4.0268572227686645
1772718012984928300,5.64692822265625,-1.2977975850582122,-2.312726322996616,-3.92178999761939
1772718013004801000,5.666801025390625,-1.021199561836198,-1.8711352329075335,-4.07472079770565
1772718013024673300,5.68667333984375,-0.4036100267410278,-1.7122709511190652,-4.291736824211478
1772718013044546000,5.706546142578125,-0.11565467013716697,-1.5042209058791398,-4.466462691998482
1772718013064418000,5.72641796875,-0.2167886840233579,-1.0455214446008205,-4.308318541178107
1772718013084290000,5.7462900390625,-0.4015057479381561,-0.2703729381620884,-3.7946751913130283
1772718013104163000,5.7661630859375,-0.7367828276872634,0.6424170292943716,-3.106163350319862
1772718013124035000,5.78603515625,-0.8944552693426608,1.41143623919785,-2.3243705835610626
1772718013143908000,5.805908203125,-0.48705461814701556,1.9017332002669571,-1.6608090594291687
1772718013163780000,5.825780029296875,0.02229487044904381,2.1878432212650774,-1.1742384254068134
1772718013183653000,5.845653076171875,0.554981358958222,2.3037141645014283,-0.8399357436478138
1772718013203525000,5.865525146484375,0.949827027952671,2.5488392641603945,-0.8089291954874992
1772718013223398100,5.885398193359375,1.0727934824079275,2.6780489969193932,-0.9789560918033122
1772718013243270100,5.905270263671875,0.655806599156186,2.6017364493504167,-0.9274006766110658
1772718013263143200,5.92514306640625,0.058814592540264124,2.6170553067743776,-1.0628414127141237
1772718013283015000,5.945014892578125,-0.2769149071514606,2.6510312261343,-1.3081576510310173
1772718013302888200,5.96488818359375,-0.8382024901144206,2.7043630033493042,-1.9458716172009705
1772718013322760400,5.984760498046875,-1.2924832581676542,2.581708975844085,-2.4876883376270533
1772718013342633200,6.00463330078125,-1.1092733474127947,2.0034794642999767,-2.286769459441304
1772718013362505200,6.024505126953125,-0.441859093375504,2.5159184068113563,-2.558996501037478
1772718013382377200,6.044377197265625,-0.10972440330535173,2.95437470600605,-1.76147951092422
1772718013402250200,6.064250244140625,0.7980503663375973,2.901175030738115,-0.8647446062117814
1772718013422122200,6.084122314453125,1.445002993234992,2.579472595094144,-0.5100502938091754
1772718013441995300,6.103995361328125,2.072944922453165,2.520269880019128,-0.1671311748743057
1772718013461867300,6.1238671875,2.0195026706010104,2.464276774640381,-0.16790917350947857
1772718013481740300,6.143740234375,2.3471628456056117,2.2681556521251798,-0.4337485598951578
1772718013501612300,6.1636123046875,2.7689041568428276,1.7848524954661726,-0.19931845725178718
1772718013521485300,6.1834853515625,3.5528128928422924,1.4502964234679936,0.10025777904093265
1772718013541357300,6.203357421875,4.553828840762376,1.534306539802253,0.5420487756162882
1772718013561230000,6.22322998046875,5.1690328689605,1.669852635975927,1.0707044011741875
1772718013581102000,6.24310205078125,4.855435121577978,1.6216270958587526,1.348766724795103
1772718013600975400,6.262975341796875,3.6195074249774217,1.7865474628157914,0.8110115547195077
1772718013620847000,6.28284716796875,2.633890121719241,1.9070869823850691,0.44473874046504497
1772718013640720100,6.30272021484375,2.2483120107531547,1.8276647783629596,0.4712517765983939
1772718013660592400,6.32259228515625,2.1117156748741865,1.477686826957762,0.29552520733624693
1772718013680465200,6.342465087890625,1.5827064135730267,1.1685068960174918,0.03706891693919897
1772718013700337200,6.362337158203125,0.8987643647134304,0.9965917017370461,-0.09541764553338289
1772718013720209200,6.382209228515625,0.4829430911749601,0.9272555690519512,0.1402943136140704
1772718013740082200,6.402082275390625,0.31624037084579465,0.6412447706446052,0.12431991489082574
1772718013759954200,6.4219541015625,0.3964864584714174,0.37962037160545586,-0.004774082534015178
1772718013779827200,6.4418271484375,0.4046358626574278,0.3138584441453218,0.10553338135629892
1772718013799699200,6.46169921875,0.0620487521559,0.3129407447785139,0.14547814599275588
1772718013819572200,6.481572265625,0.051805006039142606,0.22229849695339798,0.2659054373592138
1772718013839444200,6.5014443359375,0.33768881706595416,0.16300006641894577,0.3934335006415844
1772718013859317200,6.521317138671875,0.5188900183469056,0.1311326636455953,0.445548011021316
1772718013879189200,6.541189208984375,0.10656886188387871,0.006736030256748199,0.2885018845707178
1772718013899062300,6.561062255859375,-0.27705694597065444,0.1848278673455119,0.22515520155876872
1772718013918934300,6.580934326171875,-0.29145781176686286,0.2609209269449115,0.282634161581099
1772718013938807300,6.600807373046875,-0.06729542063772678,0.14039309781342743,0.33854660293906924
1772718013958679300,6.62067919921875,0.21584055298566818,-0.05343143819719553,0.15148527745306492
1772718013978552300,6.64055224609375,0.1509410875737667,-0.177473997451365,-0.1411725577533245
1772718013998424300,6.66042431640625,-0.17532850985527038,-0.11396335604935884,-0.44793315259218214
1772718014018297000,6.680297119140625,-0.24887539210319518,0.19510756155848502,-0.40891923906505107
1772718014038169000,6.700169189453125,-0.12301146264076232,0.31965631676912304,-0.2907417724519968
1772718014058041300,6.720041259765625,0.006421557480096817,0.4655605792194605,-0.12193214297145605
1772718014077914000,6.7399140625,0.49130233871936796,0.7140696222282946,0.24577362669557332
1772718014097786000,6.7597861328125,1.5763357094973325,1.18025023304224,0.7312322078227996
1772718014117659400,6.779659423828125,2.089860401418805,1.1577921713881194,1.1730682125836611
1772718014137531400,6.799531494140625,2.032552706310153,0.7863597824133932,1.3918342976272104
1772718014157404200,6.819404052734375,2.7489503330945966,1.260954878090322,1.3166826105311513
1772718014177276200,6.839276123046875,3.7707781828969713,1.5566148177221417,1.372314189121127
1772718014197149200,6.859149169921875,4.522382147619128,1.5839987914711235,1.6523235551565885
1772718014217021200,6.879021240234375,5.101439342159033,1.8177865045577286,2.017002085956931
1772718014236894200,6.898894287109375,5.415994536396861,2.124454744938016,2.424188802140951
1772718014256766200,6.91876611328125,5.476953739750385,2.2894820794008672,2.662532863357663
1772718014276639200,6.93863916015625,5.616590173977613,2.5047955397725103,2.8968478151887656
1772718014296511500,6.958511474609375,5.668827726215124,2.89385447859168,2.8584838900029657
1772718014316384500,6.978384521484375,4.672039040601253,3.4394168152868745,3.916447467547655
1772718014336256500,6.998256591796875,5.072880771672725,4.442628519685567,3.815003693592548
1772718014356128500,7.01812841796875,4.506689488446712,5.6614346933543676,3.8843022707462307
1772718014376001500,7.03800146484375,2.4085692082047463,6.2270098905086515,3.803424314957857
1772718014395873500,7.05787353515625,0.583994943203032,7.390494282189011,4.49376921659708
1772718014415746600,7.07774658203125,0.36078210788369175,9.345551076364517,4.243687955835461
1772718014435618300,7.097618408203125,0.5777888185719028,9.53868529202342,3.7317414730161427
1772718014455491600,7.11749169921875,0.8433329848706722,10.118340452456474,0.31777064915299413
1772718014475363600,7.137363525390625,-0.21820202142000197,10.210414340519904,-5.295229975900054
1772718014495236400,7.157236328125,-2.0954782413005826,8.304313592693209,-9.912481195259094
1772718014515108600,7.177108642578125,-2.6638392697811124,6.891766177383065,-11.11767414637804
1772718014534981400,7.1969814453125,-1.6220716247558593,5.533251965555548,-10.211721331465244
1772718014554853400,7.216853271484375,0.11735153718292712,4.453652894786,-9.925102191901207
1772718014574726700,7.2367265625,1.0111451277464627,2.655518600681424,-9.752893275371193
1772718014594598700,7.2565986328125,1.2106810271412134,0.5861871925503015,-9.375339480906725
1772718014614471400,7.276471435546875,1.156398817333579,-1.0259557433873414,-8.961356528711319
1772718014634343400,7.296343505859375,0.6430582498073577,-1.8073522043049335,-8.508984516888857
1772718014654216400,7.316216552734375,0.21221542129106818,-2.132380277240276,-7.836342445200681
1772718014674088400,7.33608837890625,0.01045132445283234,-2.2096669305384156,-7.284106037569045
1772718014693960400,7.35596044921875,-0.21026713676750658,-2.1984955481827257,-6.756802411141991
1772718014713833500,7.37583349609375,-0.03698796065747738,-2.4013076927691697,-6.92581165484786
1772718014733705500,7.39570556640625,0.1843546968758106,-2.7781869489729405,-7.75497466006875
1772718014753578500,7.41557861328125,0.5268574900947511,-2.937854948359728,-7.380453949689865
1772718014773450500,7.435450439453125,0.5647141964107751,-2.786215941649675,-6.455241138511896
1772718014793323500,7.455323486328125,0.30284722078740595,-2.1138690535157916,-5.677608414041996
1772718014813195500,7.475195556640625,-0.29541926274374125,-1.2714970226317643,-5.184821974244714
1772718014833068300,7.495068359375,-1.1870115438707172,-0.7643810287088155,-4.755559912113845
1772718014852940500,7.5149404296875,-1.913078185623884,-0.5764058032482862,-4.639738360977173
1772718014872813600,7.5348134765625,-2.310749469965696,-0.15610767655670643,-4.835206572541594
1772718014892685300,7.554685302734375,-2.4684704269379374,0.6413917778998613,-5.217618912953138
1772718014912558600,7.57455859375,-2.5410025791853665,1.324398591735959,-5.685556158176064
1772718014932430600,7.5944306640625,-2.7151193751633165,1.7664572993367909,-6.368816654512286
1772718014952303400,7.614303466796875,-2.814078931087255,2.488974870306253,-7.473501066699623
1772718014972175600,7.634175537109375,-2.521253338098526,4.033207468578219,-7.577263638991117
1772718014992048400,7.65404833984375,-1.3093585512533783,6.1316457287281745,-5.7477475336730475
1772718015011920400,7.67392041015625,0.07611790177971124,7.566020944964885,-3.621886429068446
1772718015031792400,7.69379248046875,0.7843906742975115,8.09520614735484,-1.94658122677505
1772718015051665700,7.713665771484375,1.007114264795184,7.780016162344813,-0.7956418438911438
1772718015071537400,7.733537353515625,1.3976730867832898,7.138992633235454,0.11164952614903449
1772718015091410400,7.753410400390625,2.065236247771978,6.532635343837738,0.6426987688452005
1772718015111282700,7.77328271484375,2.2497744845211503,5.9591831296980375,1.0062450807452201
1772718015131155500,7.793155517578125,2.1644489016741515,5.573294053086638,1.3709692042529582
1772718015151027500,7.81302734375,2.195098891481757,4.998939337149262,1.5814070214122533
1772718015170900500,7.832900390625,2.975740150117874,4.213448592655361,1.3956903885334728
1772718015190772500,7.8527724609375,3.729517951747775,3.5940853989511727,0.7114876429110765
1772718015210645500,7.8726455078125,3.8892414807140825,3.280450826689601,-0.18563363077044487
1772718015230517500,7.892517578125,3.608109248128533,2.9582717134445904,-0.6673685151994228
1772718015250390500,7.912390625,3.2480320736438033,2.3365797845318914,-0.2753945657163858
1772718015270262500,7.932262451171875,3.996200218698382,1.7570130330346523,0.09885755685418844
1772718015290135300,7.95213525390625,4.61281294465065,0.9139907215483486,0.9779220725804567
1772718015310007600,7.972007568359375,4.177451688861846,0.5939673250325024,0.867848709706962
1772718015329880600,7.991880615234375,3.680210607743263,0.569800413633883,0.8422646249867975
1772718015349752300,8.01175244140625,2.8409587547063824,0.8026923469245434,0.7918727006159723
1772718015369624300,8.031624267578126,1.9288813194334506,0.598029021513462,0.7684720974147319
1772718015389497600,8.05149755859375,1.3484078283548355,0.6468669944405555,0.24969942183718083
1772718015409369300,8.071369384765624,1.024865610063076,0.8267728952139616,-0.6844913533054292
1772718015429242400,8.091242431640625,0.6693962216347455,1.0922479783318937,-1.0166899023920297
1772718015449114600,8.111114501953125,0.08449556176364421,1.7168489265590905,-0.963442807785794
1772718015468987400,8.1309873046875,-0.6638835956931114,1.8509359099656342,-0.6910458895154297
1772718015488859400,8.150859375,-0.7212520810782909,0.7083164655290544,0.5561880678668618
1772718015508732700,8.170732666015626,-0.014093407282233237,0.3705602823153138,0.6248427941590547
1772718015528604400,8.1906044921875,0.7072136188536882,0.5923441077448427,0.407534652838856
1772718015548477400,8.2104775390625,1.0401128635555505,0.4602297395855188,0.47954705552849913
1772718015568349700,8.230349609375,1.4842828642219303,0.21520999999716878,0.23723734208382666
1772718015588222500,8.250222412109375,1.3849603202044962,0.07035422368645668,0.17813479944765567
1772718015608094500,8.270094482421875,0.8163415175706148,0.23507234606966376,0.10859225747026502
1772718015627967500,8.289967529296876,0.14748656320571898,0.4232622371941805,0.12992701418288052
1772718015647839500,8.309839599609376,-0.1257879416167736,0.4230836657568812,0.22817754505462942
1772718015667712500,8.32971240234375,0.014602525848150253,0.37782939653545616,0.21605025021359323
1772718015687584500,8.34958447265625,0.28859540807306766,0.4426996358528733,0.07369973472207784
1772718015707456500,8.36945654296875,-0.008965396744012833,0.22111045621261,-0.04655607253499329
1772718015727329500,8.38932958984375,-0.441413395434618,0.037202626321464774,-0.05639189543798565
1772718015747201500,8.409201416015625,-0.486070867806673,-0.0508281238310039,-0.009132241210900246
1772718015767074600,8.429074462890625,0.014860884523391724,-0.060613312525302165,-0.1091665502268821
1772718015786946600,8.448946533203125,0.5626426508337259,-0.16529387644454835,0.0031432299291715023
1772718015806819300,8.4688193359375,0.6861608939528465,-0.11055471664965152,0.1730691500885412
1772718015826691300,8.48869140625,0.689393884524703,-0.01795972732156515,0.05120426366701722
1772718015846564600,8.508564697265625,0.7056096907883882,-0.11543079825341701,-0.07118325838912277
1772718015866436600,8.5284365234375,0.3587719371050596,-0.13002177979424595,-0.2740065819567069
1772718015886309400,8.548309326171875,-0.005324409893155098,-0.05166808178648352,-0.305897767464444
1772718015906181600,8.568181640625,0.06179390061199665,0.054979544422030444,-0.1821639453658834
1772718015926054400,8.588054443359376,0.24053660282492637,-0.04662526531368494,-0.0756423566898331
1772718015945926400,8.607926513671876,-0.04398761028647422,-0.1635815195687115,-0.12362174002621322
1772718015965799700,8.627799560546874,-0.6325380248367786,-0.14768120899498463,-0.19121585134956984
1772718015985671400,8.64767138671875,-1.2867092048108577,-0.05075871185660362,-0.43223136026524006
1772718016005544400,8.66754443359375,-1.532242300748825,-0.17070684140399098,-0.5234837758779526
1772718016025416400,8.68741650390625,-1.3057780624181032,-0.20957710867673157,-0.2807937944114208
1772718016045288400,8.707288330078125,-0.8629653215795755,-0.14599749369174242,0.009481675703078507
1772718016065161500,8.727161376953125,-0.8915776680797338,-0.08070230696052312,0.10354206140860915
1772718016085033500,8.747033447265625,-0.6683861678093671,-0.04114771068543196,0.11215192271322011
1772718016104906500,8.766906494140626,0.014649872121214866,0.2083215556576848,-0.12499496460817754
1772718016124778500,8.786778564453124,0.997565515205264,0.1806131722599268,0.08660093654505908
1772718016144651500,8.806651611328125,1.515106457030773,0.49783992379456754,0.5125668066747486
1772718016164523300,8.826523193359375,1.1035533623307943,0.8440791270628571,0.6965818963326513
1772718016184396500,8.846396484375,0.6806044288694858,1.0928744396671652,0.5615620159901679
1772718016204268500,8.8662685546875,0.4840466685026884,0.9670976039662956,0.3213103675864637
1772718016224141600,8.8861416015625,0.7848661828547716,0.6860179783508181,-0.0776709764406085
1772718016244013600,8.906013671875,0.8233096030175685,0.41635260393619533,-0.14130465970039366
1772718016263886300,8.92588623046875,0.3960995049804449,0.25465602133125065,-0.2003486770823598
1772718016283758300,8.94575830078125,0.0747971745699644,0.202071555352211,-0.1028754141934216
1772718016303631400,8.96563134765625,-0.3301052300691604,0.08455810560584068,-0.1171967850126326
1772718016323503400,8.98550341796875,-0.5668009395569562,0.08686258315593004,-0.19292875621467828
1772718016343376100,9.005376220703125,-0.9345464567124843,-0.0974430138811469,-0.30582711338102814
1772718016363248400,9.025248291015625,-0.928823402890563,-0.05630524006783962,-0.1980548670567572
1772718016383121200,9.04512109375,-0.805361858394742,-0.012298340559005737,-0.07971607240214944
1772718016402993200,9.0649931640625,-0.8499398357897996,0.022259178081154823,0.005768354268372059
1772718016422865200,9.084865234375,-0.9242132787466049,0.10783172142654657,0.1261193655282259
1772718016442738200,9.10473828125,-0.7855535805970429,0.11712094329744577,0.07250307228341699
1772718016462610200,9.124610107421875,-0.45486441316008563,0.12165624863952397,-0.04233721273094415
1772718016482483200,9.144483154296875,-0.060547115421295164,0.06943710884153842,-0.08673471899256109
1772718016502355500,9.16435546875,0.22540859179794787,0.054071197405457495,-0.15566431670337916
1772718016522228200,9.184228271484375,0.2397515899270773,0.21848288418799638,-0.14476429863497614
1772718016542100200,9.204100341796876,0.7579734997540712,0.5667798967689276,0.11009097159542143
1772718016561973200,9.22397314453125,1.7675234672635793,0.728469465111196,0.7180087152428924
1772718016581845200,9.24384521484375,1.4772066422253847,-0.6060527534931898,0.22551161378100512
1772718016601718300,9.26371826171875,0.6087701957583427,-0.046264323046803474,-1.010072237817943
1772718016621590000,9.283590087890625,0.18473580514788626,-0.13628683153837917,-1.070277554064244
1772718016641463300,9.30346337890625,-0.1976356187313795,0.2016962922990322,-0.8117294937305152
