time,seconds_elapsed,z,y,x
1772718007400765700,0.062765625,-1.0127716064453125,-0.3116302490234375,-0.005889892578125
1772718007420638500,0.082638427734375,-0.9849853515625,-0.329620361328125,0.009002685546875
1772718007440510500,0.102510498046875,-0.96319580078125,-0.31976318359375,0.0235748291015625
1772718007460383700,0.1223837890625,-0.9014434814453125,-0.3287811279296875,0.0523834228515625
1772718007480255500,0.14225537109375,-0.8343505859375,-0.390960693359375,0.0472412109375
1772718007500127500,0.16212744140625,-0.845184326171875,-0.4145660400390625,0.0536956787109375
1772718007520000800,0.182000732421875,-0.89556884765625,-0.4075927734375,0.038330078125
1772718007539872800,0.201872802734375,-0.905609130859375,-0.4224090576171875,0.0060272216796875
1772718007559745500,0.22174560546875,-0.90093994140625,-0.45941162109375,0.01324462890625
1772718007579617500,0.241617431640625,-0.904388427734375,-0.4491729736328125,0.02203369140625
1772718007599490600,0.261490478515625,-0.9493560791015625,-0.4129180908203125,-0.050323486328125
1772718007619362600,0.281362548828125,-1.031097412109375,-0.489349365234375,-0.0395355224609375
1772718007639235600,0.301235595703125,-1.0110321044921875,-0.469696044921875,-0.036834716796875
1772718007659107600,0.321107666015625,-0.9885711669921875,-0.4304962158203125,-0.1373443603515625
1772718007678980600,0.340980712890625,-1.0208892822265625,-0.4256439208984375,-0.154449462890625
1772718007698852600,0.3608525390625,-1.06341552734375,-0.4538421630859375,-0.1381683349609375
1772718007718725600,0.3807255859375,-1.0840606689453125,-0.497406005859375,-0.1225128173828125
1772718007738597600,0.40059765625,-1.0243682861328125,-0.502777099609375,-0.139678955078125
1772718007758469600,0.4204697265625,-0.9578857421875,-0.514190673828125,-0.1253509521484375
1772718007778342700,0.4403427734375,-0.8682861328125,-0.5322418212890625,-0.050201416015625
1772718007798214700,0.460214599609375,-0.72955322265625,-0.5964202880859375,0.0840301513671875
1772718007818087700,0.480087646484375,-0.60986328125,-0.705047607421875,0.146453857421875
1772718007837959400,0.49995947265625,-0.5667266845703125,-0.749755859375,0.041595458984375
1772718007857832700,0.519832763671875,-0.5296478271484375,-0.59637451171875,-0.1390533447265625
1772718007877704700,0.53970458984375,-0.48345947265625,-0.51202392578125,-0.1361846923828125
1772718007897577500,0.559577392578125,-0.4167633056640625,-0.4799346923828125,-0.094207763671875
1772718007917449700,0.57944970703125,-0.31201171875,-0.4441680908203125,-0.01568603515625
1772718007937322500,0.599322509765625,-0.2747650146484375,-0.45965576171875,-0.0543365478515625
1772718007957194500,0.619194580078125,-0.4410400390625,-0.4416351318359375,-0.2816314697265625
1772718007977067800,0.63906787109375,-0.457733154296875,-0.313018798828125,-0.4828948974609375
1772718007996939800,0.658939697265625,-0.2943572998046875,-0.22454833984375,-0.373626708984375
1772718008016811500,0.6788115234375,-0.0794830322265625,-0.1654205322265625,-0.1912689208984375
1772718008036684500,0.6986845703125,0.0534820556640625,-0.1071014404296875,-0.1018524169921875
1772718008056556800,0.718556884765625,0.114105224609375,-0.0095062255859375,-0.1207733154296875
1772718008076429600,0.7384296875,0.044921875,0.0767059326171875,-0.26251220703125
1772718008096301600,0.758301513671875,-0.3118133544921875,0.110137939453125,-0.3922119140625
1772718008116174600,0.778174560546875,-0.42437744140625,0.161895751953125,-0.528900146484375
1772718008136046600,0.798046630859375,-0.3940887451171875,0.3022308349609375,-0.573394775390625
1772718008155919600,0.817919677734375,-0.255645751953125,0.3322906494140625,-0.659454345703125
1772718008175791600,0.83779150390625,-0.10943603515625,0.3752899169921875,-0.727081298828125
1772718008195664600,0.85766455078125,-0.0217132568359375,0.500640869140625,-0.761688232421875
1772718008215536600,0.87753662109375,-0.113800048828125,0.6729736328125,-0.7664337158203125
1772718008235408600,0.89740869140625,-0.1661376953125,0.9121856689453125,-0.8822479248046875
1772718008255281700,0.91728173828125,-0.083221435546875,1.06243896484375,-1.1400604248046875
1772718008275153700,0.937153564453125,-0.086212158203125,1.2447509765625,-1.4508056640625
1772718008295027500,0.95702734375,-0.2562103271484375,1.4049224853515625,-1.688995361328125
1772718008314899700,0.976899658203125,-0.5504150390625,1.394378662109375,-1.956146240234375
1772718008334772500,0.9967724609375,-0.6295166015625,1.34521484375,-2.1694183349609375
1772718008354644500,1.01664453125,-0.369140625,1.2290496826171875,-2.06927490234375
1772718008374517800,1.036517822265625,-0.159393310546875,1.1425628662109375,-1.9547271728515625
1772718008394389500,1.056389404296875,-0.07318115234375,0.958526611328125,-2.0076446533203125
1772718008414262500,1.076262451171875,-0.0624847412109375,0.744232177734375,-2.05419921875
1772718008434134800,1.096134765625,-0.02362060546875,0.51629638671875,-2.0035400390625
1772718008454007600,1.116007568359375,-0.0027008056640625,0.376708984375,-1.9048614501953125
1772718008473879600,1.135879638671875,-0.0567474365234375,0.29449462890625,-1.7061309814453125
1772718008493751600,1.15575146484375,-0.095550537109375,0.291412353515625,-1.3536224365234375
1772718008513624600,1.17562451171875,-0.1022796630859375,0.3711700439453125,-1.0615081787109375
1772718008533496600,1.19549658203125,-0.09228515625,0.4149932861328125,-0.93524169921875
1772718008553369600,1.21536962890625,-0.0502777099609375,0.377349853515625,-0.9745330810546875
1772718008573241600,1.23524169921875,0.0225067138671875,0.3706207275390625,-1.14404296875
1772718008593114600,1.255114501953125,0.03985595703125,0.3892822265625,-1.2626800537109375
1772718008612986600,1.274986572265625,0.030059814453125,0.449676513671875,-1.2569580078125
1772718008632859600,1.294859619140625,-0.0121002197265625,0.5231170654296875,-1.2529144287109375
1772718008652731600,1.314731689453125,-0.061065673828125,0.6173095703125,-1.295074462890625
1772718008672604700,1.334604736328125,-0.0870513916015625,0.6601409912109375,-1.278594970703125
1772718008692476400,1.354476318359375,-0.0924072265625,0.6995391845703125,-1.2636871337890625
1772718008712349700,1.374349609375,-0.09161376953125,0.7722015380859375,-1.290008544921875
1772718008732221700,1.3942216796875,-0.1145477294921875,0.8302459716796875,-1.35791015625
1772718008752093400,1.414093505859375,-0.1429901123046875,0.872222900390625,-1.4560394287109375
1772718008771966700,1.433966796875,-0.1540985107421875,0.9522552490234375,-1.5249481201171875
1772718008791838700,1.453838623046875,-0.1116943359375,1.0075836181640625,-1.54364013671875
1772718008811711500,1.47371142578125,-0.1001739501953125,1.0199737548828125,-1.54364013671875
1772718008831583500,1.49358349609375,-0.1190948486328125,1.0286712646484375,-1.549041748046875
1772718008851456800,1.513456787109375,-0.1151580810546875,1.029571533203125,-1.53564453125
1772718008871328500,1.53332861328125,-0.097198486328125,1.0160980224609375,-1.4014434814453125
1772718008891201500,1.553201416015625,-0.1009063720703125,0.99774169921875,-1.24365234375
1772718008911073800,1.57307373046875,-0.1388397216796875,0.907928466796875,-1.09979248046875
1772718008930946600,1.592946533203125,-0.1651458740234375,0.8024139404296875,-0.9740753173828125
1772718008950818600,1.612818603515625,-0.1393280029296875,0.7016754150390625,-0.830322265625
1772718008970690600,1.632690673828125,-0.0909881591796875,0.581451416015625,-0.6582183837890625
1772718008990563600,1.6525634765625,-0.04595947265625,0.48138427734375,-0.5260467529296875
1772718009010435600,1.672435546875,-0.013458251953125,0.3964691162109375,-0.4338836669921875
1772718009030308600,1.69230859375,0.040252685546875,0.34857177734375,-0.3902740478515625
1772718009050180600,1.7121806640625,0.059600830078125,0.2939300537109375,-0.3538665771484375
1772718009070053600,1.7320537109375,0.0652008056640625,0.2178802490234375,-0.3337554931640625
1772718009089925600,1.751925537109375,0.049530029296875,0.137847900390625,-0.346099853515625
1772718009109798700,1.771798583984375,0.0125732421875,0.0661163330078125,-0.3691253662109375
1772718009129670700,1.791670654296875,-0.0269775390625,0.0176544189453125,-0.365875244140625
1772718009149543400,1.81154345703125,-0.0315399169921875,0.004791259765625,-0.334808349609375
1772718009169415700,1.831415771484375,-0.005767822265625,0.0187225341796875,-0.2728271484375
1772718009189288700,1.851288818359375,0.01776123046875,0.0429229736328125,-0.23309326171875
1772718009209160400,1.871160400390625,0.025177001953125,0.082122802734375,-0.24591064453125
1772718009229033700,1.89103369140625,0.0190277099609375,0.1184234619140625,-0.30804443359375
1772718009248905700,1.91090576171875,0.015777587890625,0.1529388427734375,-0.38897705078125
1772718009268777700,1.93077783203125,0.0063018798828125,0.1825408935546875,-0.485137939453125
1772718009288650500,1.950650390625,-0.01007080078125,0.1900177001953125,-0.58734130859375
1772718009308522000,1.97052197265625,0.0017547607421875,0.2259063720703125,-0.6155548095703125
1772718009328395000,1.99039501953125,-0.0009307861328125,0.2963104248046875,-0.576446533203125
1772718009348266800,2.010266845703125,0.000732421875,0.3837738037109375,-0.5702056884765625
1772718009368140000,2.03014013671875,0.0275726318359375,0.4904632568359375,-0.5963592529296875
1772718009388012000,2.050011962890625,0.0337677001953125,0.585906982421875,-0.6679534912109375
1772718009407884800,2.069884765625,0.02789306640625,0.73370361328125,-0.7674560546875
1772718009427756800,2.0897568359375,0.060943603515625,0.9074859619140625,-0.8924713134765625
1772718009447629800,2.1096298828125,0.04559326171875,1.0642547607421875,-1.091217041015625
1772718009467501800,2.129501708984375,0.002044677734375,1.200347900390625,-1.3651580810546875
1772718009487373800,2.149373779296875,-0.0576934814453125,1.227630615234375,-1.642181396484375
1772718009507246800,2.169246826171875,-0.1800994873046875,1.09283447265625,-1.8389129638671875
1772718009527118800,2.189118896484375,-0.2547149658203125,0.7843170166015625,-1.94952392578125
1772718009546991900,2.208991943359375,-0.6834869384765625,0.326751708984375,-2.61083984375
1772718009566864100,2.228864013671875,-0.3726654052734375,0.3533935546875,-2.743072509765625
1772718009586737000,2.24873681640625,-0.2530059814453125,0.327239990234375,-1.8057403564453125
1772718009606609000,2.26860888671875,-0.3058624267578125,0.5902557373046875,-1.067291259765625
1772718009626482000,2.28848193359375,-0.0457763671875,0.6116180419921875,-0.7939605712890625
1772718009646354000,2.30835400390625,0.0634613037109375,0.5012969970703125,-0.9282989501953125
1772718009666227000,2.32822705078125,-0.02813720703125,0.4358673095703125,-1.1463165283203125
1772718009686098700,2.3480986328125,-0.0767974853515625,0.3232421875,-1.2584228515625
1772718009705972000,2.367971923828125,-0.09124755859375,0.2711944580078125,-1.2930755615234375
1772718009725844000,2.387843994140625,-0.1381378173828125,0.2652587890625,-1.235504150390625
1772718009745716000,2.407716064453125,-0.186676025390625,0.2959442138671875,-1.1617431640625
1772718009765589000,2.427589111328125,-0.197113037109375,0.3524017333984375,-1.1250152587890625
1772718009785461000,2.4474609375,-0.1524505615234375,0.3963470458984375,-1.0959014892578125
1772718009805333800,2.467333740234375,-0.09521484375,0.4125213623046875,-1.1097869873046875
1772718009825205800,2.487205810546875,-0.0395050048828125,0.4344635009765625,-1.123870849609375
1772718009845079000,2.5070791015625,-0.015380859375,0.4573516845703125,-1.11346435546875
1772718009864950800,2.52695068359375,-0.0590972900390625,0.4797821044921875,-1.1173553466796875
1772718009884823800,2.54682373046875,-0.132080078125,0.5185699462890625,-1.1345062255859375
1772718009904696000,2.566696044921875,-0.15570068359375,0.543701171875,-1.1790313720703125
1772718009924568800,2.58656884765625,-0.1442413330078125,0.5589141845703125,-1.2385101318359375
1772718009944440800,2.60644091796875,-0.1546783447265625,0.5819244384765625,-1.30401611328125
1772718009964313900,2.62631396484375,-0.1527557373046875,0.64044189453125,-1.3675537109375
1772718009984185900,2.646185791015625,-0.1508941650390625,0.6854248046875,-1.4265594482421875
1772718010004057900,2.666057861328125,-0.118255615234375,0.66400146484375,-1.49920654296875
1772718010023931000,2.685930908203125,-0.05474853515625,0.6683807373046875,-1.5798797607421875
1772718010043803000,2.705802978515625,-0.03594970703125,0.73663330078125,-1.5551605224609375
1772718010063676000,2.725676025390625,-0.0711517333984375,0.7878875732421875,-1.308807373046875
1772718010083548000,2.7455478515625,-0.1219024658203125,0.751739501953125,-1.0289764404296875
1772718010103421000,2.7654208984375,-0.1498870849609375,0.6270904541015625,-0.840423583984375
1772718010123293000,2.78529296875,-0.138824462890625,0.490692138671875,-0.80938720703125
1772718010143166000,2.805166015625,-0.0880279541015625,0.3938140869140625,-0.8119659423828125
1772718010163038000,2.825037841796875,-0.03607177734375,0.3638458251953125,-0.7183380126953125
1772718010182911000,2.844910888671875,-0.00433349609375,0.3496246337890625,-0.59576416015625
1772718010202783000,2.864782958984375,0.0028533935546875,0.3064117431640625,-0.506988525390625
1772718010222656000,2.884656005859375,-0.00543212890625,0.226959228515625,-0.493621826171875
1772718010242528000,2.904528076171875,0.033721923828125,0.1704254150390625,-0.511138916015625
1772718010262400000,2.92439990234375,0.047119140625,0.1255950927734375,-0.482666015625
1772718010282272800,2.944272705078125,0.023529052734375,0.113433837890625,-0.4364471435546875
1772718010302144800,2.964144775390625,-0.0173797607421875,0.1035919189453125,-0.418853759765625
1772718010322017800,2.984017822265625,-0.0629425048828125,0.0937957763671875,-0.4543914794921875
1772718010341889500,3.0038896484375,-0.089508056640625,0.0957183837890625,-0.492889404296875
1772718010361762800,3.0237626953125,-0.0857696533203125,0.0924530029296875,-0.5067901611328125
1772718010381634800,3.043634765625,-0.044647216796875,0.1136322021484375,-0.51910400390625
1772718010401507600,3.063507568359375,-0.0088043212890625,0.1315460205078125,-0.529296875
1772718010421379800,3.0833798828125,0.0132904052734375,0.15484619140625,-0.5332183837890625
1772718010441252600,3.103252685546875,0.035919189453125,0.2009429931640625,-0.511474609375
1772718010461124600,3.12312451171875,0.0564422607421875,0.2617950439453125,-0.4665374755859375
1772718010480998000,3.142997802734375,0.076446533203125,0.3271942138671875,-0.426727294921875
1772718010500869600,3.16286962890625,0.0798187255859375,0.402496337890625,-0.42181396484375
1772718010520741600,3.18274169921875,0.0708160400390625,0.493194580078125,-0.488372802734375
1772718010540615000,3.202614990234375,0.048980712890625,0.584869384765625,-0.610443115234375
1772718010560487000,3.22248681640625,0.0258941650390625,0.70245361328125,-0.7505645751953125
1772718010580359700,3.242359619140625,0.032257080078125,0.8481903076171875,-0.895172119140625
1772718010600231700,3.262231689453125,0.0449676513671875,1.0000457763671875,-1.0639495849609375
1772718010620104700,3.282104736328125,-0.0202484130859375,1.1074676513671875,-1.3125762939453125
1772718010639976700,3.301976806640625,-0.101104736328125,1.0849609375,-1.5568389892578125
1772718010659849700,3.321849609375,-0.154571533203125,0.9288787841796875,-1.739715576171875
1772718010679721700,3.3417216796875,-0.3324737548828125,0.6037139892578125,-1.8284912109375
1772718010699594800,3.3615947265625,-0.6771392822265625,0.2253875732421875,-2.456787109375
1772718010719466800,3.381466796875,-0.3740081787109375,0.313385009765625,-2.377471923828125
1772718010739339800,3.40133984375,-0.0494384765625,0.4473114013671875,-1.48162841796875
1772718010759211800,3.421211669921875,0.132110595703125,0.4944610595703125,-0.8827972412109375
1772718010779083800,3.441083740234375,0.1567230224609375,0.3612518310546875,-0.6774749755859375
1772718010798956500,3.46095654296875,0.0171356201171875,0.3165283203125,-0.8428802490234375
1772718010818828800,3.480828857421875,-0.240570068359375,0.29022216796875,-1.02227783203125
1772718010838701800,3.500701904296875,-0.3765411376953125,0.28619384765625,-1.0787200927734375
1772718010858573600,3.520573486328125,-0.4141387939453125,0.3065185546875,-1.108734130859375
1772718010878446800,3.54044677734375,-0.42852783203125,0.35882568359375,-1.1312713623046875
1772718010898318800,3.56031884765625,-0.4039306640625,0.36907958984375,-1.13043212890625
1772718010918191600,3.580191650390625,-0.3243255615234375,0.3827362060546875,-1.1248016357421875
1772718010938063600,3.600063720703125,-0.24456787109375,0.393402099609375,-1.13641357421875
1772718010957936600,3.6199365234375,-0.198883056640625,0.3951873779296875,-1.1555023193359375
1772718010977808600,3.63980859375,-0.1463623046875,0.406402587890625,-1.1516876220703125
1772718010997681700,3.659681640625,-0.1146087646484375,0.411834716796875,-1.14837646484375
1772718011017554000,3.679553955078125,-0.1181793212890625,0.4305419921875,-1.1584320068359375
1772718011037425700,3.69942578125,-0.158477783203125,0.421478271484375,-1.194000244140625
1772718011057298700,3.719298583984375,-0.191802978515625,0.421112060546875,-1.2411041259765625
1772718011077171000,3.7391708984375,-0.1893768310546875,0.4403533935546875,-1.249114990234375
1772718011097043700,3.759043701171875,-0.2079620361328125,0.4757232666015625,-1.2928009033203125
1772718011116915700,3.778915771484375,-0.2393951416015625,0.5338592529296875,-1.3364410400390625
1772718011136788700,3.798788818359375,-0.2534942626953125,0.5750885009765625,-1.3435516357421875
1772718011156660700,3.81866064453125,-0.2311553955078125,0.59600830078125,-1.31671142578125
1772718011176533800,3.83853369140625,-0.1724853515625,0.6017608642578125,-1.2438812255859375
1772718011196405800,3.85840576171875,-0.1253204345703125,0.603118896484375,-1.1268768310546875
1772718011216278800,3.87827880859375,-0.10455322265625,0.579986572265625,-0.992034912109375
1772718011236150800,3.89815087890625,-0.085540771484375,0.5489654541015625,-0.884613037109375
1772718011256023600,3.9180234375,-0.0518341064453125,0.5080718994140625,-0.799896240234375
1772718011275895800,3.937895751953125,-0.00006103515625,0.4868621826171875,-0.6899871826171875
1772718011295768800,3.957768798828125,0.014495849609375,0.473785400390625,-0.5700836181640625
1772718011315640600,3.977640625,-0.03704833984375,0.4449462890625,-0.5263214111328125
1772718011335512600,3.9975126953125,-0.0826416015625,0.41717529296875,-0.4990081787109375
1772718011355385900,4.0173857421875,-0.0835418701171875,0.385406494140625,-0.479400634765625
1772718011375257900,4.0372578125,-0.039215087890625,0.359710693359375,-0.4726409912109375
1772718011395130600,4.057130615234375,0.0009307861328125,0.3442230224609375,-0.478240966796875
1772718011415003000,4.0770029296875,0.0114593505859375,0.33489990234375,-0.50421142578125
1772718011434875600,4.096875732421875,0.0162506103515625,0.3296051025390625,-0.509765625
1772718011454747600,4.11674755859375,0.03607177734375,0.3480987548828125,-0.503448486328125
1772718011474621000,4.136620849609375,0.0358123779296875,0.3706512451171875,-0.51641845703125
1772718011494492700,4.15649267578125,0.0150909423828125,0.39556884765625,-0.5395660400390625
1772718011514365700,4.17636572265625,0.0341339111328125,0.4343414306640625,-0.5392608642578125
1772718011534237700,4.19623779296875,0.0458526611328125,0.4875335693359375,-0.54010009765625
1772718011554110700,4.21611083984375,0.03118896484375,0.5570068359375,-0.56842041015625
1772718011573982700,4.235982666015625,0.0144195556640625,0.634246826171875,-0.63018798828125
1772718011593854700,4.255854736328125,-0.029632568359375,0.72015380859375,-0.75152587890625
1772718011613727700,4.275727783203125,-0.080169677734375,0.7890625,-0.9477691650390625
1772718011633599700,4.295599853515625,-0.1034393310546875,0.806396484375,-1.11572265625
1772718011653472800,4.31547265625,-0.066558837890625,0.7906494140625,-1.235870361328125
1772718011673344800,4.3353447265625,-0.017547607421875,0.7342987060546875,-1.329437255859375
1772718011693217800,4.3552177734375,0.0155487060546875,0.66033935546875,-1.4088592529296875
1772718011713089800,4.37508984375,-0.013153076171875,0.47314453125,-1.529205322265625
1772718011732962800,4.394962890625,-0.0879058837890625,0.28814697265625,-1.859466552734375
1772718011752834800,4.414834716796875,-0.0667724609375,0.261322021484375,-1.968048095703125
1772718011772707600,4.43470751953125,-0.1548309326171875,0.3175506591796875,-1.50238037109375
1772718011792579600,4.45457958984375,-0.182861328125,0.4177703857421875,-1.0866546630859375
1772718011812452900,4.474452880859375,-0.1406097412109375,0.4080352783203125,-0.8988800048828125
1772718011832324900,4.494324951171875,-0.092071533203125,0.4244842529296875,-0.9598388671875
1772718011852197600,4.51419775390625,-0.0979766845703125,0.39324951171875,-1.033905029296875
1772718011872070000,4.53406982421875,-0.09228515625,0.3632659912109375,-1.1196136474609375
1772718011891942000,4.55394189453125,-0.077911376953125,0.366241455078125,-1.144500732421875
1772718011911814700,4.573814697265625,-0.07098388671875,0.4001922607421875,-1.1367034912109375
1772718011931686700,4.593686767578125,-0.06915283203125,0.463714599609375,-1.1108856201171875
1772718011951559700,4.6135595703125,-0.0787811279296875,0.502044677734375,-1.0892486572265625
1772718011971431700,4.633431640625,-0.119659423828125,0.4956207275390625,-1.111541748046875
1772718011991304700,4.6533046875,-0.173828125,0.4784698486328125,-1.202880859375
1772718012011176700,4.6731767578125,-0.1775054931640625,0.4520721435546875,-1.3021240234375
1772718012031049700,4.6930498046875,-0.1368408203125,0.4519195556640625,-1.346588134765625
1772718012050921700,4.712921630859375,-0.102386474609375,0.49371337890625,-1.3608551025390625
1772718012070794800,4.732794677734375,-0.06939697265625,0.5953216552734375,-1.3190765380859375
1772718012090666800,4.752666748046875,-0.0401611328125,0.634552001953125,-1.2421875
1772718012110539800,4.772539794921875,-0.0366363525390625,0.628936767578125,-1.192840576171875
1772718012130411500,4.79241162109375,-0.0747833251953125,0.5970001220703125,-1.1677703857421875
1772718012150283800,4.81228369140625,-0.06585693359375,0.561737060546875,-1.07421875
1772718012170156800,4.83215673828125,-0.0550384521484375,0.5435028076171875,-0.9658050537109375
1772718012190028500,4.852028564453125,-0.0695648193359375,0.516021728515625,-0.8650054931640625
1772718012209901800,4.87190185546875,-0.0562286376953125,0.4769134521484375,-0.7655029296875
1772718012229773800,4.89177392578125,-0.0410308837890625,0.4500274658203125,-0.674407958984375
1772718012249646600,4.911646484375,-0.0277557373046875,0.4110107421875,-0.6135711669921875
1772718012269518600,4.9315185546875,-0.0283203125,0.3837432861328125,-0.5996246337890625
1772718012289391900,4.951391845703125,-0.0684661865234375,0.3384552001953125,-0.624114990234375
1772718012309264100,4.97126416015625,-0.091888427734375,0.3052520751953125,-0.648712158203125
1772718012329137200,4.99113720703125,-0.09130859375,0.3056488037109375,-0.6312713623046875
1772718012349009200,5.011009033203125,-0.068023681640625,0.2974853515625,-0.5961761474609375
1772718012368882200,5.030882080078125,-0.03900146484375,0.2973175048828125,-0.5815277099609375
1772718012388754200,5.050754150390625,-0.01910400390625,0.3107452392578125,-0.5699462890625
1772718012408627000,5.070626953125,-0.003143310546875,0.3177032470703125,-0.577880859375
1772718012428499200,5.090499267578125,0.0288848876953125,0.3215484619140625,-0.612701416015625
1772718012448372200,5.110372314453125,0.0341949462890625,0.2918853759765625,-0.664215087890625
1772718012468244000,5.130243896484375,0.03802490234375,0.2741241455078125,-0.7016143798828125
1772718012488116000,5.150115966796875,0.0449066162109375,0.293182373046875,-0.6728668212890625
1772718012507989200,5.1699892578125,0.046539306640625,0.323638916015625,-0.62200927734375
1772718012527861000,5.189861083984375,0.065582275390625,0.370513916015625,-0.5698394775390625
1772718012547734000,5.209734130859375,0.0840911865234375,0.4086761474609375,-0.575927734375
1772718012567606300,5.229606201171875,0.1024017333984375,0.4502716064453125,-0.6192626953125
1772718012587479000,5.24947900390625,0.096282958984375,0.499359130859375,-0.6779632568359375
1772718012607351000,5.26935107421875,0.0648956298828125,0.5740203857421875,-0.7353668212890625
1772718012627224300,5.289224365234375,0.0393829345703125,0.6616363525390625,-0.808807373046875
1772718012647096000,5.309095947265625,0.011871337890625,0.7595367431640625,-0.8890838623046875
1772718012666969000,5.328968994140625,-0.030792236328125,0.817962646484375,-0.9973297119140625
1772718012686841000,5.348841064453125,-0.0490875244140625,0.8627777099609375,-1.12750244140625
1772718012706714000,5.368714111328125,-0.07684326171875,0.8592529296875,-1.2540435791015625
1772718012726586000,5.388586181640625,-0.074127197265625,0.7793426513671875,-1.3329010009765625
1772718012746459000,5.408458984375,-0.0293731689453125,0.7017974853515625,-1.3670654296875
1772718012766331100,5.4283310546875,-0.0339202880859375,0.5938720703125,-1.3873748779296875
1772718012786203100,5.448203125,-0.0536041259765625,0.529998779296875,-1.4527740478515625
1772718012806076200,5.468076171875,-0.018707275390625,0.470550537109375,-1.50311279296875
1772718012825948000,5.487947998046875,-0.075286865234375,0.4111480712890625,-1.390289306640625
1772718012845821200,5.5078212890625,-0.131378173828125,0.454833984375,-1.2151336669921875
1772718012865693200,5.527693115234375,-0.1136627197265625,0.4319305419921875,-1.118988037109375
1772718012885566000,5.54756591796875,-0.054595947265625,0.39794921875,-1.1581573486328125
1772718012905438200,5.567438232421875,-0.0057525634765625,0.37945556640625,-1.1955108642578125
1772718012925311000,5.58731103515625,0.0125274658203125,0.3735504150390625,-1.16339111328125
1772718012945183000,5.607182861328125,-0.01348876953125,0.3887176513671875,-1.097991943359375
1772718012965056300,5.62705615234375,-0.0308074951171875,0.4550933837890625,-1.0513458251953125
1772718012984928300,5.64692822265625,-0.0507659912109375,0.5226287841796875,-1.056732177734375
1772718013004801000,5.666801025390625,-0.0218963623046875,0.5509185791015625,-1.087738037109375
1772718013024673300,5.68667333984375,0.030426025390625,0.5530853271484375,-1.128265380859375
1772718013044546000,5.706546142578125,0.0442047119140625,0.5537261962890625,-1.163970947265625
1772718013064418000,5.72641796875,0.02252197265625,0.5817718505859375,-1.1668548583984375
1772718013084290000,5.7462900390625,-0.011444091796875,0.632904052734375,-1.138885498046875
1772718013104163000,5.7661630859375,-0.061004638671875,0.6922149658203125,-1.095062255859375
1772718013124035000,5.78603515625,-0.086456298828125,0.7324066162109375,-1.044036865234375
1772718013143908000,5.805908203125,-0.0585479736328125,0.7406768798828125,-1.0014801025390625
1772718013163780000,5.825780029296875,-0.0208282470703125,0.7276763916015625,-0.9791107177734375
1772718013183653000,5.845653076171875,0.024261474609375,0.69586181640625,-0.969970703125
1772718013203525000,5.865525146484375,0.05902099609375,0.67852783203125,-0.993804931640625
1772718013223398100,5.885398193359375,0.0613250732421875,0.643798828125,-1.026519775390625
1772718013243270100,5.905270263671875,0.00628662109375,0.58941650390625,-1.038726806640625
1772718013263143200,5.92514306640625,-0.05914306640625,0.5416717529296875,-1.0724029541015625
1772718013283015000,5.945014892578125,-0.111572265625,0.4988250732421875,-1.1084442138671875
1772718013302888200,5.96488818359375,-0.2046661376953125,0.4479217529296875,-1.18487548828125
1772718013322760400,5.984760498046875,-0.2879486083984375,0.376617431640625,-1.242218017578125
1772718013342633200,6.00463330078125,-0.333038330078125,0.266632080078125,-1.194122314453125
1772718013362505200,6.024505126953125,-0.3373870849609375,0.280975341796875,-1.21099853515625
1772718013382377200,6.044377197265625,-0.384185791015625,0.2723541259765625,-1.086639404296875
1772718013402250200,6.064250244140625,-0.384979248046875,0.218048095703125,-0.95782470703125
1772718013422122200,6.084122314453125,-0.419952392578125,0.157562255859375,-0.8614959716796875
1772718013441995300,6.103995361328125,-0.4454498291015625,0.142181396484375,-0.7593841552734375
1772718013461867300,6.1238671875,-0.536529541015625,0.1285247802734375,-0.6790924072265625
1772718013481740300,6.143740234375,-0.55975341796875,0.1014862060546875,-0.6264495849609375
1772718013501612300,6.1636123046875,-0.555145263671875,0.0499114990234375,-0.5384521484375
1772718013521485300,6.1834853515625,-0.49755859375,0.0077667236328125,-0.45379638671875
1772718013541357300,6.203357421875,-0.4120941162109375,0.004547119140625,-0.3689117431640625
1772718013561230000,6.22322998046875,-0.3661041259765625,-0.0028839111328125,-0.2965240478515625
1772718013581102000,6.24310205078125,-0.40850830078125,-0.0231475830078125,-0.2726593017578125
1772718013600975400,6.262975341796875,-0.532501220703125,-0.017669677734375,-0.3392181396484375
1772718013620847000,6.28284716796875,-0.6247406005859375,-0.019500732421875,-0.3697052001953125
1772718013640720100,6.30272021484375,-0.6579742431640625,-0.039581298828125,-0.3594512939453125
1772718013660592400,6.32259228515625,-0.6767730712890625,-0.0796051025390625,-0.3707275390625
1772718013680465200,6.342465087890625,-0.743927001953125,-0.109710693359375,-0.38494873046875
1772718013700337200,6.362337158203125,-0.817352294921875,-0.1229248046875,-0.3790130615234375
1772718013720209200,6.382209228515625,-0.857147216796875,-0.1324462890625,-0.347137451171875
1772718013740082200,6.402082275390625,-0.8743438720703125,-0.16705322265625,-0.345367431640625
1772718013759954200,6.4219541015625,-0.866973876953125,-0.1932525634765625,-0.35009765625
1772718013779827200,6.4418271484375,-0.8723907470703125,-0.197509765625,-0.329345703125
1772718013799699200,6.46169921875,-0.909271240234375,-0.20037841796875,-0.3188018798828125
1772718013819572200,6.481572265625,-0.9071197509765625,-0.2155609130859375,-0.3017120361328125
1772718013839444200,6.5014443359375,-0.87347412109375,-0.2252349853515625,-0.28973388671875
1772718013859317200,6.521317138671875,-0.85791015625,-0.2315216064453125,-0.284942626953125
1772718013879189200,6.541189208984375,-0.9083709716796875,-0.24383544921875,-0.3000946044921875
1772718013899062300,6.561062255859375,-0.944061279296875,-0.2235565185546875,-0.3018035888671875
1772718013918934300,6.580934326171875,-0.944122314453125,-0.2183685302734375,-0.28961181640625
1772718013938807300,6.600807373046875,-0.9191741943359375,-0.2320556640625,-0.27972412109375
1772718013958679300,6.62067919921875,-0.89532470703125,-0.25152587890625,-0.29803466796875
1772718013978552300,6.64055224609375,-0.91064453125,-0.2577972412109375,-0.3242645263671875
1772718013998424300,6.66042431640625,-0.9485321044921875,-0.240509033203125,-0.3434906005859375
1772718014018297000,6.680297119140625,-0.9536895751953125,-0.2043914794921875,-0.3272247314453125
1772718014038169000,6.700169189453125,-0.943359375,-0.1906280517578125,-0.3104248046875
1772718014058041300,6.720041259765625,-0.9306640625,-0.1752471923828125,-0.2881011962890625
1772718014077914000,6.7399140625,-0.8711090087890625,-0.14923095703125,-0.2452545166015625
1772718014097786000,6.7597861328125,-0.760772705078125,-0.10247802734375,-0.1964263916015625
1772718014117659400,6.779659423828125,-0.7188873291015625,-0.1164703369140625,-0.1587982177734375
1772718014137531400,6.799531494140625,-0.7142333984375,-0.1494293212890625,-0.1563720703125
1772718014157404200,6.819404052734375,-0.6183319091796875,-0.1075592041015625,-0.1979827880859375
1772718014177276200,6.839276123046875,-0.4997100830078125,-0.0920257568359375,-0.2236175537109375
1772718014197149200,6.859149169921875,-0.4042510986328125,-0.09765625,-0.23944091796875
1772718014217021200,6.879021240234375,-0.3232574462890625,-0.0687713623046875,-0.2474365234375
1772718014236894200,6.898894287109375,-0.2707366943359375,-0.03143310546875,-0.2566680908203125
1772718014256766200,6.91876611328125,-0.234130859375,0.0001678466796875,-0.2868194580078125
1772718014276639200,6.93863916015625,-0.183685302734375,0.044708251953125,-0.318389892578125
1772718014296511500,6.958511474609375,-0.13568115234375,0.1066741943359375,-0.386688232421875
1772718014316384500,6.978384521484375,-0.1730194091796875,0.1901397705078125,-0.340667724609375
1772718014336256500,6.998256591796875,-0.0673370361328125,0.34014892578125,-0.4077911376953125
1772718014356128500,7.01812841796875,-0.07501220703125,0.51007080078125,-0.46026611328125
1772718014376001500,7.03800146484375,-0.1957855224609375,0.6259307861328125,-0.5191497802734375
1772718014395873500,7.05787353515625,-0.236785888671875,0.8317718505859375,-0.4942626953125
1772718014415746600,7.07774658203125,-0.110076904296875,1.1127166748046875,-0.550628662109375
1772718014435618300,7.097618408203125,0.0193023681640625,1.228485107421875,-0.598876953125
1772718014455491600,7.11749169921875,0.1056060791015625,1.441131591796875,-0.9597015380859375
1772718014475363600,7.137363525390625,-0.0045623779296875,1.53326416015625,-1.463409423828125
1772718014495236400,7.157236328125,-0.1842041015625,1.4456634521484375,-1.844024658203125
1772718014515108600,7.177108642578125,-0.2338409423828125,1.364837646484375,-1.8461456298828125
1772718014534981400,7.1969814453125,-0.12890625,1.302734375,-1.701446533203125
1772718014554853400,7.216853271484375,0.0223388671875,1.2242279052734375,-1.617889404296875
1772718014574726700,7.2367265625,0.0794219970703125,1.07672119140625,-1.55157470703125
1772718014594598700,7.2565986328125,0.079864501953125,0.88897705078125,-1.462799072265625
1772718014614471400,7.276471435546875,0.0584716796875,0.76116943359375,-1.3845977783203125
1772718014634343400,7.296343505859375,-0.0059814453125,0.702789306640625,-1.3040313720703125
1772718014654216400,7.316216552734375,-0.0557098388671875,0.6840667724609375,-1.211090087890625
1772718014674088400,7.33608837890625,-0.085968017578125,0.689483642578125,-1.136566162109375
1772718014693960400,7.35596044921875,-0.1169891357421875,0.6921539306640625,-1.06768798828125
1772718014713833500,7.37583349609375,-0.106292724609375,0.673858642578125,-1.0879974365234375
1772718014733705500,7.39570556640625,-0.0929107666015625,0.6383819580078125,-1.155181884765625
1772718014753578500,7.41557861328125,-0.0690460205078125,0.621856689453125,-1.107879638671875
1772718014773450500,7.435450439453125,-0.0748291015625,0.63671875,-1.0265960693359375
1772718014793323500,7.455323486328125,-0.1058349609375,0.7036285400390625,-0.97015380859375
1772718014813195500,7.475195556640625,-0.1690673828125,0.7756195068359375,-0.9471893310546875
1772718014833068300,7.495068359375,-0.255859375,0.80950927734375,-0.9320526123046875
1772718014852940500,7.5149404296875,-0.3243560791015625,0.8109893798828125,-0.9562530517578125
1772718014872813600,7.5348134765625,-0.3642578125,0.8397979736328125,-1.01458740234375
1772718014892685300,7.554685302734375,-0.386749267578125,0.893096923828125,-1.0952301025390625
1772718014912558600,7.57455859375,-0.415771484375,0.9247894287109375,-1.194244384765625
1772718014932430600,7.5944306640625,-0.4475555419921875,0.9185333251953125,-1.318267822265625
1772718014952303400,7.614303466796875,-0.490814208984375,0.9388427734375,-1.4892425537109375
1772718014972175600,7.634175537109375,-0.4901885986328125,1.0162506103515625,-1.5338592529296875
1772718014992048400,7.65404833984375,-0.409332275390625,1.1278533935546875,-1.3840179443359375
1772718015011920400,7.67392041015625,-0.3255615234375,1.1469573974609375,-1.21099853515625
1772718015031792400,7.69379248046875,-0.312408447265625,1.08013916015625,-1.062744140625
1772718015051665700,7.713665771484375,-0.3420257568359375,0.9440765380859375,-0.945556640625
1772718015071537400,7.733537353515625,-0.3446502685546875,0.7913665771484375,-0.84832763671875
1772718015091410400,7.753410400390625,-0.326080322265625,0.6602325439453125,-0.7687225341796875
1772718015111282700,7.77328271484375,-0.362701416015625,0.5506591796875,-0.6966400146484375
1772718015131155500,7.793155517578125,-0.42657470703125,0.4718475341796875,-0.6138916015625
1772718015151027500,7.81302734375,-0.4687347412109375,0.3803253173828125,-0.544342041015625
1772718015170900500,7.832900390625,-0.4346160888671875,0.28082275390625,-0.508819580078125
1772718015190772500,7.8527724609375,-0.412139892578125,0.212677001953125,-0.5210418701171875
1772718015210645500,7.8726455078125,-0.4485321044921875,0.17352294921875,-0.5491943359375
1772718015230517500,7.892517578125,-0.5068206787109375,0.1330108642578125,-0.527191162109375
1772718015250390500,7.912390625,-0.560333251953125,0.064178466796875,-0.42462158203125
1772718015270262500,7.932262451171875,-0.49908447265625,-0.0157470703125,-0.3268585205078125
1772718015290135300,7.95213525390625,-0.4710235595703125,-0.0849609375,-0.193878173828125
1772718015310007600,7.972007568359375,-0.5333404541015625,-0.123077392578125,-0.15960693359375
1772718015329880600,7.991880615234375,-0.595489501953125,-0.117095947265625,-0.1147003173828125
1772718015349752300,8.01175244140625,-0.692626953125,-0.087677001953125,-0.09930419921875
1772718015369624300,8.031624267578126,-0.786834716796875,-0.095855712890625,-0.0868988037109375
1772718015389497600,8.05149755859375,-0.8470611572265625,-0.079437255859375,-0.131439208984375
1772718015409369300,8.071369384765624,-0.8805999755859375,-0.049072265625,-0.20928955078125
1772718015429242400,8.091242431640625,-0.9217529296875,-0.013092041015625,-0.22052001953125
1772718015449114600,8.111114501953125,-0.988922119140625,0.060638427734375,-0.193115234375
1772718015468987400,8.1309873046875,-1.0616912841796875,0.058135986328125,-0.147979736328125
1772718015488859400,8.150859375,-1.0553436279296875,-0.08209228515625,-0.0041351318359375
1772718015508732700,8.170732666015626,-0.9761810302734375,-0.1109771728515625,-0.008544921875
1772718015528604400,8.1906044921875,-0.90606689453125,-0.110137939453125,-0.0195770263671875
1772718015548477400,8.2104775390625,-0.869293212890625,-0.138214111328125,-0.0143280029296875
1772718015568349700,8.230349609375,-0.826629638671875,-0.17193603515625,-0.037994384765625
1772718015588222500,8.250222412109375,-0.84320068359375,-0.1859283447265625,-0.0414886474609375
1772718015608094500,8.270094482421875,-0.9055633544921875,-0.166656494140625,-0.0491790771484375
1772718015627967500,8.289967529296876,-0.9696807861328125,-0.1505584716796875,-0.0468902587890625
1772718015647839500,8.309839599609376,-0.9906158447265625,-0.1572265625,-0.0421142578125
1772718015667712500,8.32971240234375,-0.97015380859375,-0.165130615234375,-0.046844482421875
1772718015687584500,8.34958447265625,-0.9472808837890625,-0.162109375,-0.0588226318359375
1772718015707456500,8.36945654296875,-0.9840087890625,-0.1858062744140625,-0.06134033203125
1772718015727329500,8.38932958984375,-1.0277099609375,-0.2039794921875,-0.0529022216796875
1772718015747201500,8.409201416015625,-1.021942138671875,-0.2114410400390625,-0.0438690185546875
1772718015767074600,8.429074462890625,-0.967437744140625,-0.219482421875,-0.0482940673828125
1772718015786946600,8.448946533203125,-0.913330078125,-0.2334136962890625,-0.03240966796875
1772718015806819300,8.4688193359375,-0.9046173095703125,-0.230621337890625,-0.0211944580078125
1772718015826691300,8.48869140625,-0.9022979736328125,-0.2259521484375,-0.0383148193359375
1772718015846564600,8.508564697265625,-0.904388427734375,-0.239654541015625,-0.05615234375
1772718015866436600,8.5284365234375,-0.9415740966796875,-0.2393341064453125,-0.079010009765625
1772718015886309400,8.548309326171875,-0.9754180908203125,-0.2303619384765625,-0.07977294921875
1772718015906181600,8.568181640625,-0.9630889892578125,-0.220306396484375,-0.0647125244140625
1772718015926054400,8.588054443359376,-0.9489593505859375,-0.2337799072265625,-0.0573577880859375
1772718015945926400,8.607926513671876,-0.983154296875,-0.2439727783203125,-0.0671844482421875
1772718015965799700,8.627799560546874,-1.0458526611328125,-0.24041748046875,-0.078948974609375
1772718015985671400,8.64767138671875,-1.108489990234375,-0.234954833984375,-0.10797119140625
1772718016005544400,8.66754443359375,-1.124786376953125,-0.257659912109375,-0.1176300048828125
1772718016025416400,8.68741650390625,-1.0924835205078125,-0.2698974609375,-0.095458984375
1772718016045288400,8.707288330078125,-1.0496368408203125,-0.2774810791015625,-0.07171630859375
1772718016065161500,8.727161376953125,-1.047607421875,-0.2829437255859375,-0.0703582763671875
1772718016085033500,8.747033447265625,-1.0139312744140625,-0.2931976318359375,-0.08233642578125
1772718016104906500,8.766906494140626,-0.9314727783203125,-0.290771484375,-0.1109619140625
1772718016124778500,8.786778564453124,-0.825225830078125,-0.3105316162109375,-0.09710693359375
1772718016144651500,8.806651611328125,-0.77557373046875,-0.287200927734375,-0.0700531005859375
1772718016164523300,8.826523193359375,-0.8197174072265625,-0.264190673828125,-0.07281494140625
1772718016184396500,8.846396484375,-0.8524627685546875,-0.2486572265625,-0.1088409423828125
1772718016204268500,8.8662685546875,-0.8641204833984375,-0.2717437744140625,-0.1463623046875
1772718016224141600,8.8861416015625,-0.8251800537109375,-0.3042144775390625,-0.194915771484375
1772718016244013600,8.906013671875,-0.8316192626953125,-0.327667236328125,-0.2037200927734375
1772718016263886300,8.92588623046875,-0.875946044921875,-0.33819580078125,-0.2108612060546875
1772718016283758300,8.94575830078125,-0.9108734130859375,-0.3387298583984375,-0.2028656005859375
1772718016303631400,8.96563134765625,-0.953155517578125,-0.345550537109375,-0.205902099609375
1772718016323503400,8.98550341796875,-0.98101806640625,-0.3398895263671875,-0.208404541015625
1772718016343376100,9.005376220703125,-1.017669677734375,-0.3558502197265625,-0.214324951171875
1772718016363248400,9.025248291015625,-1.0172576904296875,-0.3465576171875,-0.192413330078125
1772718016383121200,9.04512109375,-1.006866455078125,-0.3415985107421875,-0.1735687255859375
1772718016402993200,9.0649931640625,-1.014312744140625,-0.3368072509765625,-0.156036376953125
1772718016422865200,9.084865234375,-1.021881103515625,-0.3305511474609375,-0.1400604248046875
1772718016442738200,9.10473828125,-1.0033416748046875,-0.3338775634765625,-0.139251708984375
1772718016462610200,9.124610107421875,-0.9673919677734375,-0.33734130859375,-0.1453094482421875
1772718016482483200,9.144483154296875,-0.9279937744140625,-0.3458709716796875,-0.1423492431640625
1772718016502355500,9.16435546875,-0.9005126953125,-0.3506622314453125,-0.1447906494140625
1772718016522228200,9.184228271484375,-0.8984222412109375,-0.332733154296875,-0.1368255615234375
1772718016542100200,9.204100341796876,-0.83099365234375,-0.301239013671875,-0.10150146484375
1772718016561973200,9.22397314453125,-0.7399444580078125,-0.305450439453125,-0.0453033447265625
1772718016581845200,9.24384521484375,-0.780853271484375,-0.4346160888671875,-0.1319732666015625
1772718016601718300,9.26371826171875,-0.863525390625,-0.3746490478515625,-0.25347900390625
1772718016621590000,9.283590087890625,-0.90167236328125,-0.3857269287109375,-0.256103515625
1772718016641463300,9.30346337890625,-0.9418487548828125,-0.3421173095703125,-0.2231292724609375
