time,seconds_elapsed,z,y,x
1772718007400765700,0.062765625,-0.24674861133098602,-0.11264131963253021,0.45598557591438293
1772718007420638500,0.082638427734375,-0.3093854784965515,-0.16818933188915253,0.651666522026062
1772718007440510500,0.102510498046875,-0.33979132771492004,-0.1437343806028366,0.7356135249137878
1772718007460383700,0.1223837890625,-0.2785709798336029,-0.039443448185920715,0.6775645017623901
1772718007480255500,0.14225537109375,-0.3596915304660797,-0.05651632696390152,0.43711161613464355
1772718007500127500,0.16212744140625,-0.41528981924057007,-0.1337609440088272,0.23449641466140747
1772718007520000800,0.182000732421875,-0.45921486616134644,-0.2925174832344055,0.1922772228717804
1772718007539872800,0.201872802734375,-0.6009884476661682,-0.6607808470726013,0.22135794162750244
1772718007559745500,0.22174560546875,-0.742827832698822,-1.0502852201461792,0.21932066977024078
1772718007579617500,0.241617431640625,-0.8087068200111389,-1.2875670194625854,0.18839573860168457
1772718007599490600,0.261490478515625,-0.9170445799827576,-1.3206712007522583,0.2002803236246109
1772718007619362600,0.281362548828125,-1.0212541818618774,-1.1812077760696411,0.3434866666793823
1772718007639235600,0.301235595703125,-1.1032378673553467,-1.3350965976715088,0.40681785345077515
1772718007659107600,0.321107666015625,-1.2795113325119019,-1.6877012252807617,0.4494940936565399
1772718007678980600,0.340980712890625,-1.5346728563308716,-2.0163283348083496,0.5442523956298828
1772718007698852600,0.3608525390625,-1.7158722877502441,-2.430431604385376,0.7718746066093445
1772718007718725600,0.3807255859375,-1.6983683109283447,-2.8132481575012207,1.124650478363037
1772718007738597600,0.40059765625,-1.5102064609527588,-2.8840267658233643,1.3615936040878296
1772718007758469600,0.4204697265625,-1.1942250728607178,-2.259673595428467,1.3318089246749878
1772718007778342700,0.4403427734375,-0.7752139568328857,-1.3758925199508667,1.2684764862060547
1772718007798214700,0.460214599609375,-0.32457172870635986,-0.467824786901474,1.1336416006088257
1772718007818087700,0.480087646484375,0.23385366797447205,-0.16624203324317932,0.9048711061477661
1772718007837959400,0.49995947265625,0.6120947003364563,-0.3935542702674866,0.7061223387718201
1772718007857832700,0.519832763671875,0.6391667723655701,-0.5882381796836853,0.47150275111198425
1772718007877704700,0.53970458984375,0.6134905219078064,-0.6475772261619568,0.3305167555809021
1772718007897577500,0.559577392578125,0.5721914768218994,-1.0418658256530762,0.32973185181617737
1772718007917449700,0.57944970703125,0.7075632810592651,-1.9753851890563965,0.37323233485221863
1772718007937322500,0.599322509765625,0.8958299160003662,-3.270822048187256,0.4305160939693451
1772718007957194500,0.619194580078125,0.814703106880188,-3.6689751148223877,0.7207105755805969
1772718007977067800,0.63906787109375,0.37990596890449524,-2.762416362762451,0.9070019721984863
1772718007996939800,0.658939697265625,0.1947055608034134,-1.4669722318649292,0.6630961298942566
1772718008016811500,0.6788115234375,0.379787802696228,-0.5065916776657104,0.03974951058626175
1772718008036684500,0.6986845703125,0.8050491213798523,-0.4442516267299652,-0.6469647288322449
1772718008056556800,0.718556884765625,1.4141069650650024,-1.3997864723205566,-1.3492709398269653
1772718008076429600,0.7384296875,1.9313467741012573,-2.6371614933013916,-1.8754693269729614
1772718008096301600,0.758301513671875,2.270559549331665,-3.184847831726074,-1.6326836347579956
1772718008116174600,0.778174560546875,2.480782985687256,-3.43414568901062,-1.0507577657699585
1772718008136046600,0.798046630859375,2.727653980255127,-3.613121271133423,-0.5030055046081543
1772718008155919600,0.817919677734375,3.005770444869995,-3.571979522705078,-0.34158217906951904
1772718008175791600,0.83779150390625,3.194859266281128,-3.37727952003479,-0.538224458694458
1772718008195664600,0.85766455078125,3.4527690410614014,-3.466184616088867,-0.7551199197769165
1772718008215536600,0.87753662109375,4.122176170349121,-3.6093058586120605,-0.7016294598579407
1772718008235408600,0.89740869140625,5.13433837890625,-3.24518084526062,-0.8205359578132629
1772718008255281700,0.91728173828125,6.05513858795166,-2.4533298015594482,-1.449772834777832
1772718008275153700,0.937153564453125,6.534357070922852,-1.6804301738739014,-2.0772135257720947
1772718008295027500,0.95702734375,6.733577728271484,-1.9148404598236084,-1.8740853071212769
1772718008314899700,0.976899658203125,6.435847282409668,-2.6106855869293213,-0.6629363894462585
1772718008334772500,0.9967724609375,5.618063926696777,-2.7954978942871094,0.7276222109794617
1772718008354644500,1.01664453125,5.0670881271362305,-2.26143479347229,1.176753044128418
1772718008374517800,1.036517822265625,4.90286111831665,-1.4597433805465698,0.9136771559715271
1772718008394389500,1.056389404296875,4.6167826652526855,-0.9663504362106323,0.5915293097496033
1772718008414262500,1.076262451171875,4.034159183502197,-0.9201754331588745,0.469656765460968
1772718008434134800,1.096134765625,3.256855010986328,-1.042582631111145,0.309871107339859
1772718008454007600,1.116007568359375,2.176276922225952,-0.7728184461593628,0.03782240301370621
1772718008473879600,1.135879638671875,0.8618302941322327,-0.07721354067325592,-0.23684534430503845
1772718008493751600,1.15575146484375,-0.04285096749663353,0.6437182426452637,-0.38107964396476746
1772718008513624600,1.17562451171875,-0.25947973132133484,1.0499799251556396,-0.30423617362976074
1772718008533496600,1.19549658203125,-0.08922988176345825,0.9189762473106384,0.004890555050224066
1772718008553369600,1.21536962890625,0.02785666473209858,0.2836359739303589,0.4084758162498474
1772718008573241600,1.23524169921875,-0.18299904465675354,-0.47187554836273193,0.7070571780204773
1772718008593114600,1.255114501953125,-0.6540583968162537,-1.1623293161392212,0.9263725280761719
1772718008612986600,1.274986572265625,-1.0891436338424683,-1.5458389520645142,0.9824969172477722
1772718008632859600,1.294859619140625,-1.425027847290039,-1.5508251190185547,0.9124001860618591
1772718008652731600,1.314731689453125,-1.7643909454345703,-1.1324542760849,0.7446200847625732
1772718008672604700,1.334604736328125,-2.0689690113067627,-0.5816130638122559,0.5650233626365662
1772718008692476400,1.354476318359375,-2.3250577449798584,-0.2117776870727539,0.45667600631713867
1772718008712349700,1.374349609375,-2.589510202407837,-0.07915160804986954,0.44945192337036133
1772718008732221700,1.3942216796875,-2.89742112159729,-0.137147918343544,0.549960732460022
1772718008752093400,1.414093505859375,-3.291393756866455,-0.16338002681732178,0.7053386569023132
1772718008771966700,1.433966796875,-3.725048065185547,-0.07190733402967453,0.7817256450653076
1772718008791838700,1.453838623046875,-4.119941234588623,0.06039886921644211,0.7033252716064453
1772718008811711500,1.47371142578125,-4.466602802276611,0.17557279765605927,0.5571567416191101
1772718008831583500,1.49358349609375,-4.802086353302002,0.27806735038757324,0.4541698396205902
1772718008851456800,1.513456787109375,-5.143795013427734,0.40589749813079834,0.34626156091690063
1772718008871328500,1.53332861328125,-5.231695175170898,0.4965411126613617,0.17110948264598846
1772718008891201500,1.553201416015625,-5.060500144958496,0.6263777613639832,0.04497041553258896
1772718008911073800,1.57307373046875,-4.722434997558594,0.5994622707366943,0.1089511588215828
1772718008930946600,1.592946533203125,-4.337810039520264,0.45968055725097656,0.295380562543869
1772718008950818600,1.612818603515625,-3.929672956466675,0.3298649787902832,0.460170179605484
1772718008970690600,1.632690673828125,-3.4787330627441406,0.14126229286193848,0.5720434188842773
1772718008990563600,1.6525634765625,-3.000208854675293,-0.09971246868371964,0.6299808025360107
1772718009010435600,1.672435546875,-2.4978928565979004,-0.29064157605171204,0.6419527530670166
1772718009030308600,1.69230859375,-1.9927613735198975,-0.4888615608215332,0.5564215779304504
1772718009050180600,1.7121806640625,-1.465335726737976,-0.6070584654808044,0.38177454471588135
1772718009070053600,1.7320537109375,-0.9214571118354797,-0.6107574701309204,0.12505538761615753
1772718009089925600,1.751925537109375,-0.5144743323326111,-0.5264918208122253,-0.09578871726989746
1772718009109798700,1.771798583984375,-0.2837088406085968,-0.37367939949035645,-0.21331946551799774
1772718009129670700,1.791670654296875,-0.1595630794763565,-0.1760420799255371,-0.229055255651474
1772718009149543400,1.81154345703125,-0.045785725116729736,0.022519929334521294,-0.19808153808116913
1772718009169415700,1.831415771484375,0.18130846321582794,0.11908404529094696,-0.19581592082977295
1772718009189288700,1.851288818359375,0.5159985423088074,0.11911547929048538,-0.21986132860183716
1772718009209160400,1.871160400390625,0.9005923271179199,0.010134552605450153,-0.24950972199440002
1772718009229033700,1.89103369140625,1.3129730224609375,-0.10983125865459442,-0.3064369261264801
1772718009248905700,1.91090576171875,1.7257754802703857,-0.1544274389743805,-0.4045524299144745
1772718009268777700,1.93077783203125,2.0580568313598633,-0.1442539244890213,-0.5022907853126526
1772718009288650500,1.950650390625,2.1900575160980225,-0.06195242330431938,-0.5758550763130188
1772718009308522000,1.97052197265625,2.246600866317749,0.049726687371730804,-0.6654675602912903
1772718009328395000,1.99039501953125,2.4219970703125,0.12142948061227798,-0.728757917881012
1772718009348266800,2.010266845703125,2.6782596111297607,0.1585206389427185,-0.7671633958816528
1772718009368140000,2.03014013671875,2.9804575443267822,0.20757867395877838,-0.8513804078102112
1772718009388012000,2.050011962890625,3.3009960651397705,0.26763486862182617,-0.9684243202209473
1772718009407884800,2.069884765625,3.7126548290252686,0.4039667248725891,-1.101947546005249
1772718009427756800,2.0897568359375,4.223047256469727,0.4200417101383209,-1.3160784244537354
1772718009447629800,2.1096298828125,4.675892353057861,0.15209203958511353,-1.4903708696365356
1772718009467501800,2.129501708984375,4.972105979919434,-0.24370796978473663,-1.547769546508789
1772718009487373800,2.149373779296875,5.061549186706543,-0.7541979551315308,-1.516491413116455
1772718009507246800,2.169246826171875,5.024886608123779,-1.134676456451416,-1.435659646987915
1772718009527118800,2.189118896484375,5.532222270965576,-1.985921859741211,-1.34700608253479
1772718009546991900,2.208991943359375,4.715623378753662,-1.9159218072891235,-0.65345299243927
1772718009566864100,2.228864013671875,1.258074164390564,0.0021654218435287476,-0.5695378184318542
1772718009586737000,2.24873681640625,-0.49674034118652344,1.193320393562317,-0.6268237233161926
1772718009606609000,2.26860888671875,-0.16156302392482758,1.351076602935791,-0.1986723393201828
1772718009626482000,2.28848193359375,0.8444678783416748,1.2536286115646362,-0.3094399869441986
1772718009646354000,2.30835400390625,1.2581074237823486,0.9899089336395264,-0.5762776136398315
1772718009666227000,2.32822705078125,1.213181495666504,0.40331515669822693,-0.40912407636642456
1772718009686098700,2.3480986328125,0.928508996963501,-0.34191077947616577,-0.06575415283441544
1772718009705972000,2.367971923828125,0.4548305571079254,-0.6328809261322021,0.1260867416858673
1772718009725844000,2.387843994140625,0.030666880309581757,-0.4508121609687805,0.19856418669223785
1772718009745716000,2.407716064453125,-0.2588692009449005,-0.19116829335689545,0.34937775135040283
1772718009765589000,2.427589111328125,-0.4788459241390228,-0.10119510442018509,0.6140288710594177
1772718009785461000,2.4474609375,-0.641526460647583,-0.1885981559753418,0.8575544953346252
1772718009805333800,2.467333740234375,-0.8260486125946045,-0.3519239127635956,1.005293607711792
1772718009825205800,2.487205810546875,-1.027592420578003,-0.3539964556694031,0.9858440160751343
1772718009845079000,2.5070791015625,-1.2129403352737427,-0.2166682779788971,0.8292749524116516
1772718009864950800,2.52695068359375,-1.3946431875228882,-0.1254439651966095,0.7478237748146057
1772718009884823800,2.54682373046875,-1.5580806732177734,-0.14379504323005676,0.8723690509796143
1772718009904696000,2.566696044921875,-1.7397769689559937,-0.2940257489681244,1.0622107982635498
1772718009924568800,2.58656884765625,-1.9713432788848877,-0.35405462980270386,1.1352256536483765
1772718009944440800,2.60644091796875,-2.2933905124664307,-0.2571238875389099,1.1630059480667114
1772718009964313900,2.62631396484375,-2.6203842163085938,-0.18151544034481049,1.1769267320632935
1772718009984185900,2.646185791015625,-2.845486879348755,-0.22470656037330627,1.1807934045791626
1772718010004057900,2.666057861328125,-3.1920254230499268,-0.32850775122642517,1.0671111345291138
1772718010023931000,2.685930908203125,-3.7526278495788574,-0.21476221084594727,0.7349269986152649
1772718010043803000,2.705802978515625,-4.267881870269775,0.18011394143104553,0.35327160358428955
1772718010063676000,2.725676025390625,-4.289174556732178,0.539763867855072,0.14455321431159973
1772718010083548000,2.7455478515625,-3.860426187515259,0.5903908014297485,0.23058344423770905
1772718010103421000,2.7654208984375,-3.29201078414917,0.3524704873561859,0.5017110705375671
1772718010123293000,2.78529296875,-2.9639241695404053,0.09122966974973679,0.7874732613563538
1772718010143166000,2.805166015625,-2.8624019622802734,-0.06103774160146713,0.93754643201828
1772718010163038000,2.825037841796875,-2.670346260070801,-0.06300915032625198,0.9323356747627258
1772718010182911000,2.844910888671875,-2.2700817584991455,-0.036180149763822556,0.8753718733787537
1772718010202783000,2.864782958984375,-1.7915284633636475,-0.13176561892032623,0.8604651093482971
1772718010222656000,2.884656005859375,-1.4440864324569702,-0.27970677614212036,0.8327679634094238
1772718010242528000,2.904528076171875,-1.2529101371765137,-0.2504161298274994,0.6298058032989502
1772718010262400000,2.92439990234375,-1.0447200536727905,-0.1390785425901413,0.33638402819633484
1772718010282272800,2.944272705078125,-0.7266879677772522,-0.006807820871472359,0.08371082693338394
1772718010302144800,2.964144775390625,-0.3508657217025757,0.03981402516365051,-0.04997663199901581
1772718010322017800,2.984017822265625,-0.056410808116197586,-0.0025499886833131313,-0.03732377663254738
1772718010341889500,3.0038896484375,0.16783663630485535,-0.11789178848266602,0.09426987916231155
1772718010361762800,3.0237626953125,0.3860103487968445,-0.1848265528678894,0.23677228391170502
1772718010381634800,3.043634765625,0.6212003231048584,-0.17220622301101685,0.28390172123908997
1772718010401507600,3.063507568359375,0.8562992215156555,-0.10691580921411514,0.2394188642501831
1772718010421379800,3.0833798828125,1.0775011777877808,-0.04862281680107117,0.1595434695482254
1772718010441252600,3.103252685546875,1.339898705482483,0.054470762610435486,0.04076744616031647
1772718010461124600,3.12312451171875,1.681474208831787,0.21814854443073273,-0.1511361300945282
1772718010480998000,3.142997802734375,2.0818660259246826,0.36213305592536926,-0.38859784603118896
1772718010500869600,3.16286962890625,2.5465633869171143,0.399367094039917,-0.6080136299133301
1772718010520741600,3.18274169921875,3.0184340476989746,0.3314027190208435,-0.7664767503738403
1772718010540615000,3.202614990234375,3.4139742851257324,0.1791110634803772,-0.8314258456230164
1772718010560487000,3.22248681640625,3.7507214546203613,0.03334274888038635,-0.8188236355781555
1772718010580359700,3.242359619140625,4.135416030883789,-0.14644497632980347,-0.8510336875915527
1772718010600231700,3.262231689453125,4.557808876037598,-0.3340931534767151,-0.9448949098587036
1772718010620104700,3.282104736328125,4.821806907653809,-0.577030599117279,-0.9112361669540405
1772718010639976700,3.301976806640625,4.8338775634765625,-0.7583457231521606,-0.7838905453681946
1772718010659849700,3.321849609375,4.637061595916748,-0.711159348487854,-0.77292400598526
1772718010679721700,3.3417216796875,4.882424354553223,-0.9741617441177368,-0.4794568717479706
1772718010699594800,3.3615947265625,3.1042730808258057,0.008171774446964264,0.06697601079940796
1772718010719466800,3.381466796875,0.20514708757400513,1.7369685173034668,-0.016630232334136963
1772718010739339800,3.40133984375,-0.6351839900016785,2.7312450408935547,-0.6065695285797119
1772718010759211800,3.421211669921875,-0.10965139418840408,2.6778247356414795,-1.222946047782898
1772718010779083800,3.441083740234375,0.6782910227775574,1.8736153841018677,-1.6958119869232178
1772718010798956500,3.46095654296875,0.8467323184013367,1.1392525434494019,-1.8966169357299805
1772718010818828800,3.480828857421875,0.6097275614738464,0.5148588418960571,-1.5457420349121094
1772718010838701800,3.500701904296875,0.36936789751052856,0.028917953372001648,-0.9774307608604431
1772718010858573600,3.520573486328125,0.18507979810237885,-0.166440948843956,-0.48388350009918213
1772718010878446800,3.54044677734375,0.058326561003923416,-0.11940205842256546,-0.06633761525154114
1772718010898318800,3.56031884765625,-0.05675867572426796,-0.10411032289266586,0.3447428345680237
1772718010918191600,3.580191650390625,-0.1643594205379486,-0.18509505689144135,0.6702011227607727
1772718010938063600,3.600063720703125,-0.313692569732666,-0.30331259965896606,0.8804420232772827
1772718010957936600,3.6199365234375,-0.5145119428634644,-0.38945454359054565,1.004676342010498
1772718010977808600,3.63980859375,-0.6883112192153931,-0.37848716974258423,0.9781181216239929
1772718010997681700,3.659681640625,-0.8366914987564087,-0.27927324175834656,0.8441137075424194
1772718011017554000,3.679553955078125,-0.9771628975868225,-0.14677083492279053,0.7061695456504822
1772718011037425700,3.69942578125,-1.2039148807525635,-0.11060033738613129,0.7074794769287109
1772718011057298700,3.719298583984375,-1.5444449186325073,-0.20179346203804016,0.8117340207099915
1772718011077171000,3.7391708984375,-1.8898205757141113,-0.2957805097103119,0.868401825428009
1772718011097043700,3.759043701171875,-2.2384510040283203,-0.3385251760482788,0.9001111388206482
1772718011116915700,3.778915771484375,-2.567106008529663,-0.24035127460956573,0.9565010070800781
1772718011136788700,3.798788818359375,-2.8302104473114014,-0.07311444729566574,1.0439058542251587
1772718011156660700,3.81866064453125,-3.055507183074951,-0.0015055295079946518,1.127383828163147
1772718011176533800,3.83853369140625,-3.194566011428833,-0.0116096381098032,1.1406434774398804
1772718011196405800,3.85840576171875,-3.189563512802124,-0.11154845356941223,1.1332765817642212
1772718011216278800,3.87827880859375,-3.0303776264190674,-0.24829740822315216,1.1164535284042358
1772718011236150800,3.89815087890625,-2.814612865447998,-0.3198796808719635,1.0404843091964722
1772718011256023600,3.9180234375,-2.610020875930786,-0.29604873061180115,0.8592677116394043
1772718011275895800,3.937895751953125,-2.336954116821289,-0.17121708393096924,0.5695636868476868
1772718011295768800,3.957768798828125,-1.9158793687820435,-0.05744922161102295,0.31238996982574463
1772718011315640600,3.977640625,-1.505889892578125,-0.04499955475330353,0.2550460696220398
1772718011335512600,3.9975126953125,-1.1275650262832642,-0.14386698603630066,0.35752883553504944
1772718011355385900,4.0173857421875,-0.7651689052581787,-0.326045960187912,0.5173789858818054
1772718011375257900,4.0372578125,-0.4366380274295807,-0.4752795398235321,0.5809115171432495
1772718011395130600,4.057130615234375,-0.13696584105491638,-0.4963659644126892,0.5078125596046448
1772718011415003000,4.0770029296875,0.10723971575498581,-0.40536683797836304,0.37011340260505676
1772718011434875600,4.096875732421875,0.35156238079071045,-0.23649649322032928,0.1851893663406372
1772718011454747600,4.11674755859375,0.6480591297149658,-0.03354354575276375,-0.046464189887046814
1772718011474621000,4.136620849609375,0.968532145023346,0.15099431574344635,-0.244753897190094
1772718011494492700,4.15649267578125,1.2799421548843384,0.3025124669075012,-0.3907678425312042
1772718011514365700,4.17636572265625,1.6273871660232544,0.3656107485294342,-0.5785375237464905
1772718011534237700,4.19623779296875,2.0599803924560547,0.3166654109954834,-0.7691470980644226
1772718011554110700,4.21611083984375,2.5348665714263916,0.18623144924640656,-0.8948268890380859
1772718011573982700,4.235982666015625,3.0383009910583496,0.041009195148944855,-0.9663089513778687
1772718011593854700,4.255854736328125,3.515738010406494,-0.13456134498119354,-0.9159989953041077
1772718011613727700,4.275727783203125,3.819878101348877,-0.23867636919021606,-0.753190815448761
1772718011633599700,4.295599853515625,3.95802903175354,-0.3212045133113861,-0.5772923827171326
1772718011653472800,4.31547265625,3.9924535751342773,-0.5502324104309082,-0.476458340883255
1772718011673344800,4.3353447265625,3.9413046836853027,-0.7574301958084106,-0.4914714992046356
1772718011693217800,4.3552177734375,3.917405843734741,-1.0077365636825562,-0.6129907369613647
1772718011713089800,4.37508984375,3.9510605335235596,-1.5915639400482178,-0.5471884608268738
1772718011732962800,4.394962890625,2.9363863468170166,-1.6704775094985962,-0.3736400306224823
1772718011752834800,4.414834716796875,0.9651197195053101,-0.5477325916290283,-0.6382319927215576
1772718011772707600,4.43470751953125,0.05608666315674782,0.5839260816574097,-0.822350263595581
1772718011792579600,4.45457958984375,0.08281994611024857,0.97560715675354,-0.6938874125480652
1772718011812452900,4.474452880859375,0.4672730565071106,0.9120548367500305,-0.4997303783893585
1772718011832324900,4.494324951171875,0.562766969203949,0.6303126215934753,-0.2920791506767273
1772718011852197600,4.51419775390625,0.45482563972473145,0.15490953624248505,0.016507746651768684
1772718011872070000,4.53406982421875,0.1346711367368698,-0.2526080310344696,0.2691202759742737
1772718011891942000,4.55394189453125,-0.2695603668689728,-0.32457235455513,0.32154837250709534
1772718011911814700,4.573814697265625,-0.6259533762931824,-0.17362134158611298,0.2498060017824173
1772718011931686700,4.593686767578125,-0.8652644753456116,0.10834965854883194,0.1168661117553711
1772718011951559700,4.6135595703125,-0.9797725081443787,0.3977721631526947,0.005489025264978409
1772718011971431700,4.633431640625,-1.0613504648208618,0.5314891338348389,0.03881063684821129
1772718011991304700,4.6533046875,-1.319985032081604,0.45847463607788086,0.3057694137096405
1772718012011176700,4.6731767578125,-1.8121305704116821,0.24849380552768707,0.6547627449035645
1772718012031049700,4.6930498046875,-2.350193500518799,0.07024618983268738,0.8768779039382935
1772718012050921700,4.712921630859375,-2.8148906230926514,0.08837676793336868,0.904697060585022
1772718012070794800,4.732794677734375,-3.0635430812835693,0.3890228867530823,0.7618286609649658
1772718012090666800,4.752666748046875,-3.093295097351074,0.6963625550270081,0.504604160785675
1772718012110539800,4.772539794921875,-2.9974887371063232,0.904176652431488,0.3298397958278656
1772718012130411500,4.79241162109375,-2.9851415157318115,0.801367461681366,0.4402136504650116
1772718012150283800,4.81228369140625,-2.976783514022827,0.4632723033428192,0.6189810633659363
1772718012170156800,4.83215673828125,-2.898446798324585,0.14842677116394043,0.7203530669212341
1772718012190028500,4.852028564453125,-2.7475202083587646,-0.04177401587367058,0.7640641331672668
1772718012209901800,4.87190185546875,-2.5415425300598145,-0.045693837106227875,0.7081315517425537
1772718012229773800,4.89177392578125,-2.2475574016571045,0.10022102296352386,0.5587889552116394
1772718012249646600,4.911646484375,-1.881824254989624,0.24794121086597443,0.38883793354034424
1772718012269518600,4.9315185546875,-1.5337839126586914,0.23376157879829407,0.2943885624408722
1772718012289391900,4.951391845703125,-1.2677814960479736,-0.02883809804916382,0.398301362991333
1772718012309264100,4.97126416015625,-1.0687806606292725,-0.30464035272598267,0.5637388825416565
1772718012329137200,4.99113720703125,-0.8229899406433105,-0.41995352506637573,0.6593164801597595
1772718012349009200,5.011009033203125,-0.5109278559684753,-0.42457640171051025,0.6408409476280212
1772718012368882200,5.030882080078125,-0.16559359431266785,-0.36617743968963623,0.5554722547531128
1772718012388754200,5.050754150390625,0.22467178106307983,-0.3603283166885376,0.4879720211029053
1772718012408627000,5.070626953125,0.5934843420982361,-0.44213587045669556,0.4422913193702698
1772718012428499200,5.090499267578125,0.8691794872283936,-0.5226880311965942,0.380553275346756
1772718012448372200,5.110372314453125,0.9874187707901001,-0.5057371854782104,0.3006410002708435
1772718012468244000,5.130243896484375,0.9819263815879822,-0.31224581599235535,0.1903463453054428
1772718012488116000,5.150115966796875,1.0228657722473145,-0.06650879234075546,0.0471787303686142
1772718012507989200,5.1699892578125,1.185789942741394,0.15169836580753326,-0.0824706107378006
1772718012527861000,5.189861083984375,1.5129975080490112,0.3640497922897339,-0.25583675503730774
1772718012547734000,5.209734130859375,1.8840519189834595,0.474921315908432,-0.4527868628501892
1772718012567606300,5.229606201171875,2.2008862495422363,0.45811665058135986,-0.6464764475822449
1772718012587479000,5.24947900390625,2.454859972000122,0.3334842622280121,-0.7736169099807739
1772718012607351000,5.26935107421875,2.707520008087158,0.09672512114048004,-0.811210036277771
1772718012627224300,5.289224365234375,2.965831995010376,-0.18707382678985596,-0.7918924689292908
1772718012647096000,5.309095947265625,3.262382745742798,-0.40806180238723755,-0.7656242847442627
1772718012666969000,5.328968994140625,3.4960501194000244,-0.5568187832832336,-0.7057068347930908
1772718012686841000,5.348841064453125,3.622148275375366,-0.653744101524353,-0.6446245908737183
1772718012706714000,5.368714111328125,3.577843427658081,-0.7160020470619202,-0.5309168100357056
1772718012726586000,5.388586181640625,3.39491605758667,-0.7941271066665649,-0.3982074558734894
1772718012746459000,5.408458984375,3.191084623336792,-0.8785228729248047,-0.38051992654800415
1772718012766331100,5.4283310546875,3.023909091949463,-0.9863361120223999,-0.3647741973400116
1772718012786203100,5.448203125,2.6219823360443115,-0.9385567307472229,-0.31323960423469543
1772718012806076200,5.468076171875,1.7170346975326538,-0.6200622320175171,-0.37807023525238037
1772718012825948000,5.487947998046875,0.928180992603302,-0.2660355269908905,-0.3645854890346527
1772718012845821200,5.5078212890625,0.678142786026001,-0.03876551613211632,-0.18584001064300537
1772718012865693200,5.527693115234375,0.707188606262207,0.00813757348805666,-0.006349558476358652
1772718012885566000,5.54756591796875,0.5541657209396362,0.08006297796964645,0.06808435171842575
1772718012905438200,5.567438232421875,0.1744367480278015,0.08379442244768143,0.10145075619220734
1772718012925311000,5.58731103515625,-0.22616596519947052,-0.00786686409264803,0.14280655980110168
1772718012945183000,5.607182861328125,-0.5247840285301208,-0.10339441895484924,0.24885235726833344
1772718012965056300,5.62705615234375,-0.6881085634231567,-0.14718513190746307,0.3519577980041504
1772718012984928300,5.64692822265625,-0.8322216272354126,-0.10809189081192017,0.4725428819656372
1772718013004801000,5.666801025390625,-1.0110081434249878,0.01812852919101715,0.5132637619972229
1772718013024673300,5.68667333984375,-1.2621746063232422,0.21787765622138977,0.4422794282436371
1772718013044546000,5.706546142578125,-1.5818017721176147,0.3604866564273834,0.35419175028800964
1772718013064418000,5.72641796875,-1.8854120969772339,0.46374353766441345,0.3147013187408447
1772718013084290000,5.7462900390625,-2.1040496826171875,0.5342273712158203,0.37086090445518494
1772718013104163000,5.7661630859375,-2.22255277633667,0.5555800795555115,0.5658451318740845
1772718013124035000,5.78603515625,-2.2623708248138428,0.473476380109787,0.8435834050178528
1772718013143908000,5.805908203125,-2.308093547821045,0.2872644364833832,1.0488258600234985
1772718013163780000,5.825780029296875,-2.364081382751465,0.02862168848514557,1.1277199983596802
1772718013183653000,5.845653076171875,-2.4179069995880127,-0.15660081803798676,1.0288076400756836
1772718013203525000,5.865525146484375,-2.410874128341675,-0.12774157524108887,0.7482579350471497
1772718013223398100,5.885398193359375,-2.449714422225952,0.046772539615631104,0.3743963837623596
1772718013243270100,5.905270263671875,-2.515699863433838,0.3174453675746918,0.04773604869842529
1772718013263143200,5.92514306640625,-2.614997148513794,0.7010347843170166,-0.19895654916763306
1772718013283015000,5.945014892578125,-2.685131072998047,1.2284526824951172,-0.4131205081939697
1772718013302888200,5.96488818359375,-2.728437662124634,2.0009782314300537,-0.5427034497261047
1772718013322760400,5.984760498046875,-2.7994778156280518,2.8470120429992676,-0.5888069868087769
1772718013342633200,6.00463330078125,-2.864698648452759,3.6448042392730713,-0.5591559410095215
1772718013362505200,6.024505126953125,-2.9160141944885254,4.1949310302734375,-0.5189406871795654
1772718013382377200,6.044377197265625,-2.7524588108062744,4.85362434387207,-0.5725192427635193
1772718013402250200,6.064250244140625,-2.3274717330932617,5.267031669616699,-0.653449296951294
1772718013422122200,6.084122314453125,-1.9361865520477295,5.709493637084961,-0.8282625675201416
1772718013441995300,6.103995361328125,-1.5066680908203125,5.816598892211914,-0.9527931809425354
1772718013461867300,6.1238671875,-1.1512451171875,5.328110694885254,-0.9283955097198486
1772718013481740300,6.143740234375,-0.9267197251319885,4.347952365875244,-0.6186890602111816
1772718013501612300,6.1636123046875,-0.911929726600647,3.499441385269165,-0.0714726373553276
1772718013521485300,6.1834853515625,-0.9062403440475464,2.5434679985046387,0.3643321990966797
1772718013541357300,6.203357421875,-0.8493734002113342,1.6237961053848267,0.5856601595878601
1772718013561230000,6.22322998046875,-0.6982712745666504,0.5880134701728821,0.6349572539329529
1772718013581102000,6.24310205078125,-0.5500616431236267,-0.2544881999492645,0.6023960709571838
1772718013600975400,6.262975341796875,-0.500691294670105,-0.3581985831260681,0.5188095569610596
1772718013620847000,6.28284716796875,-0.4730505645275116,-0.009313826449215412,0.3837769627571106
1772718013640720100,6.30272021484375,-0.4039005935192108,0.381033718585968,0.18782591819763184
1772718013660592400,6.32259228515625,-0.3168259561061859,0.6069808602333069,-0.07011852413415909
1772718013680465200,6.342465087890625,-0.2844754755496979,0.682099461555481,-0.2163797914981842
1772718013700337200,6.362337158203125,-0.2530072331428528,0.5551761388778687,-0.13724851608276367
1772718013720209200,6.382209228515625,-0.19459165632724762,0.3691081404685974,0.04050552099943161
1772718013740082200,6.402082275390625,-0.1544053554534912,0.3220704197883606,0.09808193892240524
1772718013759954200,6.4219541015625,-0.131881982088089,0.36896345019340515,0.01295261550694704
1772718013779827200,6.4418271484375,-0.10886950045824051,0.38538792729377747,-0.014434373006224632
1772718013799699200,6.46169921875,-0.12110387533903122,0.31132835149765015,0.10763483494520187
1772718013819572200,6.481572265625,-0.10365914553403854,0.09953854233026505,0.25245022773742676
1772718013839444200,6.5014443359375,-0.07656650245189667,-0.041214246302843094,0.2607085406780243
1772718013859317200,6.521317138671875,-0.03246999904513359,0.03196004778146744,0.0998614951968193
1772718013879189200,6.541189208984375,0.016167521476745605,0.16558639705181122,-0.0426083505153656
1772718013899062300,6.561062255859375,0.041697241365909576,0.30523112416267395,-0.024499351158738136
1772718013918934300,6.580934326171875,0.0847356766462326,0.299072802066803,0.05057697743177414
1772718013938807300,6.600807373046875,0.11873234063386917,0.2661377191543579,0.060162682086229324
1772718013958679300,6.62067919921875,0.13911257684230804,0.2582331895828247,-0.09393265098333359
1772718013978552300,6.64055224609375,0.11077140271663666,0.39763253927230835,-0.2837006151676178
1772718013998424300,6.66042431640625,0.04719405993819237,0.5103025436401367,-0.3283235728740692
1772718014018297000,6.680297119140625,0.01241315808147192,0.43015289306640625,-0.2135160267353058
1772718014038169000,6.700169189453125,0.009633408859372139,0.2573799192905426,-0.07212475687265396
1772718014058041300,6.720041259765625,0.05281829088926315,0.13491502404212952,0.06518706679344177
1772718014077914000,6.7399140625,0.20288929343223572,0.13477718830108643,0.17309994995594025
1772718014097786000,6.7597861328125,0.49238526821136475,0.048553235828876495,0.14360277354717255
1772718014117659400,6.779659423828125,0.6745421886444092,-0.36340421438217163,0.26315930485725403
1772718014137531400,6.799531494140625,0.7894437313079834,-1.004307746887207,0.6269189715385437
1772718014157404200,6.819404052734375,0.8522368669509888,-1.6017124652862549,0.8925704956054688
1772718014177276200,6.839276123046875,0.8815387487411499,-2.0360493659973145,0.9192787408828735
1772718014197149200,6.859149169921875,0.9214838147163391,-2.337508201599121,0.7083335518836975
1772718014217021200,6.879021240234375,1.03315269947052,-2.526808261871338,0.32537391781806946
1772718014236894200,6.898894287109375,1.1831963062286377,-2.7201719284057617,-0.0019258959218859673
1772718014256766200,6.91876611328125,1.3204405307769775,-3.0083835124969482,-0.16516855359077454
1772718014276639200,6.93863916015625,1.4181177616119385,-3.428068161010742,-0.23493090271949768
1772718014296511500,6.958511474609375,1.4754204750061035,-3.9585766792297363,-0.14231275022029877
1772718014316384500,6.978384521484375,1.8744300603866577,-4.271516799926758,-0.12016795575618744
1772718014336256500,6.998256591796875,2.3755853176116943,-4.256615161895752,-0.5502150058746338
1772718014356128500,7.01812841796875,2.9903676509857178,-4.8141889572143555,-0.6006423234939575
1772718014376001500,7.03800146484375,3.631870985031128,-6.265857696533203,0.2981732189655304
1772718014395873500,7.05787353515625,4.551474571228027,-7.223398685455322,1.5729999542236328
1772718014415746600,7.07774658203125,5.6028852462768555,-6.91733455657959,2.2774877548217773
1772718014435618300,7.097618408203125,6.619330406188965,-5.402340412139893,2.1753811836242676
1772718014455491600,7.11749169921875,7.090715408325195,-3.0735294818878174,1.3677414655685425
1772718014475363600,7.137363525390625,6.707950592041016,-1.145851492881775,0.7165737748146057
1772718014495236400,7.157236328125,5.612452030181885,-0.17903032898902893,0.6884185671806335
1772718014515108600,7.177108642578125,4.563844203948975,0.2349092811346054,0.8885568380355835
1772718014534981400,7.1969814453125,3.907015085220337,0.6019968390464783,0.8839988112449646
1772718014554853400,7.216853271484375,3.425246238708496,1.1023849248886108,0.5452530384063721
1772718014574726700,7.2367265625,2.9655959606170654,1.4662368297576904,0.16302555799484253
1772718014594598700,7.2565986328125,2.462697744369507,1.5538907051086426,-0.11410918831825256
1772718014614471400,7.276471435546875,1.942962884902954,1.5111889839172363,-0.2536012530326843
1772718014634343400,7.296343505859375,1.4785770177841187,1.3907212018966675,-0.1957358419895172
1772718014654216400,7.316216552734375,1.1313265562057495,1.3269758224487305,-0.08879496157169342
1772718014674088400,7.33608837890625,0.8932151198387146,1.3473507165908813,-0.02990766242146492
1772718014693960400,7.35596044921875,0.770568311214447,1.3880805969238281,0.02110305428504944
1772718014713833500,7.37583349609375,0.5369228720664978,1.2762722969055176,0.07875768095254898
1772718014733705500,7.39570556640625,-0.00052987365052104,1.0858073234558105,0.15154744684696198
1772718014753578500,7.41557861328125,-0.5374756455421448,0.7978288531303406,0.10240267962217331
1772718014773450500,7.435450439453125,-0.958118200302124,0.4864768981933594,-0.005995773244649172
1772718014793323500,7.455323486328125,-1.2383009195327759,0.21586081385612488,-0.15127211809158325
1772718014813195500,7.475195556640625,-1.4460190534591675,0.061410337686538696,-0.2561051547527313
1772718014833068300,7.495068359375,-1.6346666812896729,0.04451131075620651,-0.22486428916454315
1772718014852940500,7.5149404296875,-1.8779032230377197,0.08253547549247742,-0.06536048650741577
1772718014872813600,7.5348134765625,-2.2656989097595215,0.2156611680984497,0.17240655422210693
1772718014892685300,7.554685302734375,-2.731640577316284,0.46126338839530945,0.39998966455459595
1772718014912558600,7.57455859375,-3.2420902252197266,0.7889216542243958,0.5267108678817749
1772718014932430600,7.5944306640625,-3.9433374404907227,1.2142776250839233,0.6018567085266113
1772718014952303400,7.614303466796875,-4.9348344802856445,1.699513554573059,0.7896578907966614
1772718014972175600,7.634175537109375,-5.914565563201904,2.133474588394165,1.0919073820114136
1772718014992048400,7.65404833984375,-6.302555561065674,2.4405527114868164,1.202573299407959
1772718015011920400,7.67392041015625,-6.122775077819824,2.5996804237365723,1.0952767133712769
1772718015031792400,7.69379248046875,-5.628141403198242,2.6309962272644043,0.9183391332626343
1772718015051665700,7.713665771484375,-4.997062683105469,2.6212432384490967,0.7736921906471252
1772718015071537400,7.733537353515625,-4.321706295013428,2.688986301422119,0.5518405437469482
1772718015091410400,7.753410400390625,-3.684185266494751,2.8668408393859863,0.17341308295726776
1772718015111282700,7.77328271484375,-3.0918197631835938,3.1510047912597656,-0.1418357640504837
1772718015131155500,7.793155517578125,-2.5343809127807617,3.4523165225982666,-0.23849071562290192
1772718015151027500,7.81302734375,-1.9616403579711914,3.7167205810546875,-0.24817217886447906
1772718015170900500,7.832900390625,-1.524435043334961,3.8944640159606934,-0.3024486303329468
1772718015190772500,7.8527724609375,-1.257606029510498,3.845674991607666,-0.3864133656024933
1772718015210645500,7.8726455078125,-1.1869988441467285,3.4927051067352295,-0.4183461368083954
1772718015230517500,7.892517578125,-1.1978036165237427,3.1765074729919434,-0.3152286112308502
1772718015250390500,7.912390625,-1.1314034461975098,2.933854103088379,-0.14932489395141602
1772718015270262500,7.932262451171875,-1.0854542255401611,2.634185552597046,-0.14997512102127075
1772718015290135300,7.95213525390625,-1.0098170042037964,2.6086924076080322,-0.15693409740924835
1772718015310007600,7.972007568359375,-0.869300127029419,2.611687183380127,-0.10655968636274338
1772718015329880600,7.991880615234375,-0.4925920069217682,1.7086135149002075,-0.41105544567108154
1772718015349752300,8.01175244140625,0.011892175301909447,0.8999245166778564,-0.6261591911315918
1772718015369624300,8.031624267578126,0.45549434423446655,0.9750967025756836,-0.4692448377609253
1772718015389497600,8.05149755859375,0.617743730545044,0.9062339663505554,-0.350350022315979
1772718015409369300,8.071369384765624,0.3926168382167816,0.7959656715393066,-0.43883898854255676
1772718015429242400,8.091242431640625,0.13028530776500702,0.856269896030426,-0.407652348279953
1772718015449114600,8.111114501953125,-0.08854623883962631,0.7494036555290222,-0.19282925128936768
1772718015468987400,8.1309873046875,-0.2686397135257721,0.6836888194084167,0.3196884095668793
1772718015488859400,8.150859375,-0.08029898256063461,0.5270703434944153,0.7641998529434204
1772718015508732700,8.170732666015626,-0.0059949238784611225,0.25159192085266113,0.8273681402206421
1772718015528604400,8.1906044921875,0.04567122086882591,0.14647196233272552,0.7612708806991577
1772718015548477400,8.2104775390625,0.11078791320323944,0.11268839985132217,0.6002323627471924
1772718015568349700,8.230349609375,0.08946008235216141,0.05083085224032402,0.3109312057495117
1772718015588222500,8.250222412109375,0.06942261010408401,0.01965130679309368,0.06658767908811569
1772718015608094500,8.270094482421875,0.06867502629756927,-0.0076262857764959335,0.0037604509852826595
1772718015627967500,8.289967529296876,0.06054951623082161,-0.15224018692970276,0.14252790808677673
1772718015647839500,8.309839599609376,0.062308650463819504,-0.2229970246553421,0.29121649265289307
1772718015667712500,8.32971240234375,0.10609634220600128,0.014285449869930744,0.2238074243068695
1772718015687584500,8.34958447265625,0.17893491685390472,0.3706451952457428,0.010964717715978622
1772718015707456500,8.36945654296875,0.19144223630428314,0.5046360492706299,-0.05948435515165329
1772718015727329500,8.38932958984375,0.16445250809192657,0.40124571323394775,0.04876053333282471
1772718015747201500,8.409201416015625,0.16327662765979767,0.3211831748485565,0.18174004554748535
1772718015767074600,8.429074462890625,0.15406286716461182,0.2239951342344284,0.23963749408721924
1772718015786946600,8.448946533203125,0.1401515156030655,0.017787208780646324,0.2290140986442566
1772718015806819300,8.4688193359375,0.17265336215496063,-0.12223994731903076,0.21502290666103363
1772718015826691300,8.48869140625,0.19816954433918,-0.19356338679790497,0.18659766018390656
1772718015846564600,8.508564697265625,0.169372096657753,-0.18415719270706177,0.08390495181083679
1772718015866436600,8.5284365234375,0.12685272097587585,-0.045980509370565414,-0.007068321108818054
1772718015886309400,8.548309326171875,0.08869751542806625,0.06913696229457855,-0.0013969694264233112
1772718015906181600,8.568181640625,0.08592897653579712,0.03959301486611366,0.03164824843406677
1772718015926054400,8.588054443359376,0.08114136755466461,-0.10467923432588577,0.009784437716007233
1772718015945926400,8.607926513671876,0.05491820350289345,-0.1986825317144394,-0.020317453891038895
1772718015965799700,8.627799560546874,0.04001554846763611,-0.19639581441879272,0.03643767535686493
1772718015985671400,8.64767138671875,0.0023443810641765594,-0.2042921632528305,0.26369571685791016
1772718016005544400,8.66754443359375,-0.07925065606832504,-0.253721684217453,0.5115078091621399
1772718016025416400,8.68741650390625,-0.08737622946500778,-0.26669633388519287,0.6328232884407043
1772718016045288400,8.707288330078125,-0.03876643255352974,-0.26784664392471313,0.6482172608375549
1772718016065161500,8.727161376953125,0.04488087818026543,-0.32059845328330994,0.7860666513442993
1772718016085033500,8.747033447265625,0.07703392952680588,-0.47114434838294983,0.978660523891449
1772718016104906500,8.766906494140626,0.00603522127494216,-0.5690390467643738,1.0325038433074951
1772718016124778500,8.786778564453124,0.030489198863506317,-0.6832797527313232,0.8905798196792603
1772718016144651500,8.806651611328125,0.2016029953956604,-0.8005812764167786,0.6595317721366882
1772718016164523300,8.826523193359375,0.37717723846435547,-0.8705764412879944,0.5357232093811035
1772718016184396500,8.846396484375,0.4276338815689087,-0.7562373280525208,0.49120643734931946
1772718016204268500,8.8662685546875,0.42344921827316284,-0.4413393437862396,0.34546083211898804
1772718016224141600,8.8861416015625,0.3710784614086151,-0.2315467745065689,0.09109178930521011
1772718016244013600,8.906013671875,0.23227867484092712,-0.10960991680622101,-0.1237887293100357
1772718016263886300,8.92588623046875,0.10691317915916443,-0.08772743493318558,-0.2437618374824524
1772718016283758300,8.94575830078125,0.013548174872994423,-0.06707003712654114,-0.25975748896598816
1772718016303631400,8.96563134765625,-0.02549561858177185,0.10407546907663345,-0.2790869474411011
1772718016323503400,8.98550341796875,-0.05722380429506302,0.24992269277572632,-0.29004985094070435
1772718016343376100,9.005376220703125,-0.1281890571117401,0.3409593999385834,-0.20405317842960358
1772718016363248400,9.025248291015625,-0.16410568356513977,0.3823983073234558,-0.13809283077716827
1772718016383121200,9.04512109375,-0.1529770791530609,0.3670109808444977,-0.09478127211332321
1772718016402993200,9.0649931640625,-0.12775719165802002,0.33437255024909973,0.007946040481328964
1772718016422865200,9.084865234375,-0.07777878642082214,0.3184942603111267,0.13054068386554718
1772718016442738200,9.10473828125,-0.02393859624862671,0.35917726159095764,0.19164028763771057
1772718016462610200,9.124610107421875,0.003791846102103591,0.3656516373157501,0.2064058631658554
1772718016482483200,9.144483154296875,0.016964072361588478,0.3059283196926117,0.20571118593215942
1772718016502355500,9.16435546875,0.02452930249273777,0.24990475177764893,0.1845622956752777
1772718016522228200,9.184228271484375,0.06886355578899384,0.27729642391204834,0.21060611307621002
1772718016542100200,9.204100341796876,0.22332234680652618,0.26821085810661316,0.2404661476612091
1772718016561973200,9.22397314453125,0.35843172669410706,-0.2344471663236618,0.3437281548976898
1772718016581845200,9.24384521484375,0.21226820349693298,-0.6818526983261108,0.1584075391292572
1772718016601718300,9.26371826171875,-0.0211046002805233,-0.4824034571647644,-0.023347342386841774
1772718016621590000,9.283590087890625,-0.19916865229606628,-0.14606226980686188,-0.2277059257030487
1772718016641463300,9.30346337890625,-0.24017131328582764,0.1494709700345993,-0.2687615156173706
