time,seconds_elapsed,z,y,x
1772790940300359000,0.07435888671875,-1.1654326031386852,-0.31668519200384615,-0.5186302714321762
1772790940320392200,0.09439208984375,-1.4867466239869593,-0.3088964378237724,-0.5991598521742969
1772790940340425000,0.114425048828125,-1.448154735264182,-0.46735739950835703,-0.6889335004713386
1772790940360458500,0.13445849609375,-1.1310592088937759,-0.6877016936540603,-0.6640134326178581
1772790940380490500,0.154490478515625,-0.4064408662527799,-0.8949299011170864,-0.48993872221596535
1772790940400523500,0.1745234375,0.357286666983366,-0.9581400982677936,-0.3590443973708898
1772790940420556500,0.194556640625,1.0419482622891665,-0.9322761736929416,-0.39257878350839015
1772790940440589300,0.21458935546875,0.3231277922719717,-0.7395745042324066,-0.13071929707173258
1772790940460622600,0.23462255859375,-0.3433218545168638,-0.6883148571163415,-0.216509026831761
1772790940480654600,0.254654541015625,-0.6356634633809328,-0.5086608852773904,-0.098487956356816
1772790940500687600,0.2746875,-1.4302128358602524,-0.18234861775040626,0.42006110306531186
1772790940520720400,0.294720458984375,-2.0175176342636347,0.12576982143819332,0.9860152165345847
1772790940540753700,0.314753662109375,-1.6572504901647567,0.4040525098115206,1.5305463104858994
1772790940560786400,0.334786376953125,-0.5337953265339136,0.8085100932925939,1.6331342860400675
1772790940580818400,0.354818359375,1.0152116465330123,1.2745733613371848,1.7051327698022125
1772790940600851500,0.3748515625,2.361677693170309,1.8986387413829564,1.3419408242978155
1772790940620884500,0.394884521484375,3.6968420090705156,2.481052845135331,0.7402371328596026
1772790940640917500,0.41491748046875,4.8761236893415445,3.0029344465136525,0.05424100101441145
1772790940660950500,0.434950439453125,5.417260026288032,3.656862465381622,-0.29613413301482794
1772790940680982500,0.454982421875,5.73670240804553,4.569182477238774,-0.3613264438934624
1772790940701015600,0.475015625,6.119434481930733,5.550422296065092,-0.17695947205796836
1772790940721048600,0.495048583984375,6.6436606006085865,6.2613096349954604,-0.05698270093798637
1772790940741081600,0.51508154296875,6.86441581364274,6.970432302340865,-0.3461068090602755
1772790940761114600,0.535114501953125,6.808643657538294,7.801400311157107,-0.7347463534235954
1772790940781146600,0.555146728515625,6.17479279653728,8.70571821834445,-1.3215554772645235
1772790940801179400,0.575179443359375,6.035322951048612,10.013844305193423,-2.797466234460473
1772790940821212400,0.59521240234375,5.5701160075724125,10.68801197901368,-3.375901497709751
1772790940841245400,0.615245361328125,4.973922384792566,11.113229441928864,-5.592036747479439
1772790940861278500,0.635278564453125,4.969291802382469,12.545282352697848,-5.247214425271749
1772790940881310500,0.655310546875,3.758051972314715,13.095357198381423,-0.423845005518198
1772790940901343500,0.675343505859375,0.2528361124277115,13.058582588213682,6.172860951691866
1772790940921376500,0.69537646484375,-1.6571990522384643,11.772628585684298,9.102987936148047
1772790940941409500,0.715409423828125,-0.21529928571581838,11.798653838300705,8.636549989572167
1772790940961442600,0.735442626953125,0.5586778388559818,12.597764235085249,7.875981212627887
1772790940981474300,0.755474365234375,1.0392004248857498,13.64764738202691,7.848315791589021
1772790941001507600,0.775507568359375,1.4930404634341596,13.879844026529788,9.247233909997343
1772790941021540400,0.795540283203125,1.8591084027662872,13.334342480111122,11.686809081840515
1772790941041573600,0.81557373046875,2.6779706709861753,12.042981650102139,14.686927301889657
1772790941061606400,0.8356064453125,3.5911201194047924,8.977479980516433,17.603311592197418
1772790941081638700,0.855638671875,3.9115912596881386,4.921091542837024,17.412551704454422
1772790941101671400,0.87567138671875,3.8687656789183613,2.35069101973176,17.315207767033577
1772790941121704700,0.89570458984375,2.3874781971201298,0.2764496277272701,17.3817438937366
1772790941141737500,0.915737548828125,0.7476157718688249,-1.1360416734814642,14.861813913196324
1772790941161770500,0.9357705078125,-2.004534526310861,-1.7170622770488262,11.994032618016004
1772790941181802500,0.955802490234375,-4.376147045779228,-1.574481021541357,9.219669611245394
1772790941201835500,0.97583544921875,-5.377898322236538,-1.7578052063256502,7.025563822454214
1772790941221868500,0.99586865234375,-4.9549704315632574,-2.1974890014886856,5.896364562213421
1772790941241901600,1.015901611328125,-3.674591598817706,-2.8636089779317375,5.361045971634984
1772790941261934600,1.0359345703125,-2.3703768401935696,-3.6643764942735433,5.003647660970688
1772790941281966300,1.05596630859375,-1.6165961159542201,-4.15633291298747,4.664603045381606
1772790941301999600,1.07599951171875,-1.6134008270442486,-4.145869386640191,4.224188305595517
1772790941322032400,1.096032470703125,-2.0552295252814887,-3.549412144488096,4.049175437560677
1772790941342065700,1.116065673828125,-2.7660949446409937,-2.9024206468850373,4.101514112085104
1772790941362098700,1.1360986328125,-3.2701988972663876,-2.2080407906413075,4.407376004518568
1772790941382130700,1.156130615234375,-3.6713434106767173,-1.4546347449332475,4.772165009956062
1772790941402163500,1.17616357421875,-3.83197177952826,-0.8068278392940759,5.076827463471889
1772790941422196700,1.19619677734375,-3.630709202471375,-0.30354806253314015,5.249342669472098
1772790941442229500,1.2162294921875,-3.285702171346545,0.2473620649307966,5.372394464123249
1772790941462262500,1.236262451171875,-3.0374674152344463,0.6918933001250028,5.3993280637562275
1772790941482294500,1.25629443359375,-2.6865830165088176,1.3207593584507702,5.363584550201892
1772790941502327800,1.276327880859375,-2.0363228724986313,1.842510611447692,5.426214901638031
1772790941522360600,1.296360595703125,-1.4268036119386553,2.4497651419460773,5.038782687237858
1772790941542393600,1.3163935546875,-1.0246250793054699,3.0342198116153476,3.9340152729421853
1772790941562426600,1.336426513671875,-0.8639443957448005,3.8409938748955725,2.544966806641221
1772790941582458600,1.356458740234375,-0.9314905762732029,4.357216719859839,1.1535644706904888
1772790941602491600,1.37649169921875,-0.7797747049346566,4.754745380860567,0.10101941106319427
1772790941622524400,1.3965244140625,-0.6734712159886956,5.022966693946719,-0.6491337703287601
1772790941642557700,1.4165576171875,-0.41317222033441064,5.261421229800582,-1.1333411823511124
1772790941662590500,1.436590576171875,-0.10497925460487603,5.3411593679040665,-1.6581588371813296
1772790941682622700,1.456622802734375,0.1459144915834069,5.498087713193893,-2.242350472000241
1772790941702655500,1.476655517578125,-0.13324819449484349,5.618998404163122,-2.745430926796794
1772790941722688800,1.496688720703125,-0.13714549419432878,5.6987511553138495,-3.551681842985749
1772790941742721500,1.516721435546875,-0.017676234205067157,5.684309372985362,-4.12891825183928
1772790941762754600,1.536754638671875,-0.24647446844130752,5.278258382833004,-4.615768871846795
1772790941782786600,1.55678662109375,-0.46935997150242326,4.902537064492702,-5.028012871420383
1772790941802819600,1.576819580078125,-0.6161486155718565,4.554010042548179,-5.591771374541521
1772790941822852600,1.5968525390625,-0.07353519181013107,4.876404552109539,-6.004326924282312
1772790941842885400,1.616885498046875,1.0216475247994066,6.446781353202462,-6.203240892386436
1772790941862917600,1.636917724609375,0.9536088845789432,6.839416981464624,-7.430105577087402
1772790941882950700,1.65695068359375,0.8613798059538006,6.727353029295802,-7.999483089134096
1772790941902983700,1.676983642578125,0.7562614351391792,6.434162694647908,-7.578369554406404
1772790941923016400,1.697016357421875,0.6275427007675171,6.169049868971109,-6.867178848615288
1772790941943049700,1.7170498046875,0.33189562061727046,5.816410151010752,-6.238657658204436
1772790941963081500,1.73708154296875,-0.06619564270228147,5.534857647186517,-5.621542827948928
1772790941983114800,1.75711474609375,-0.6963929496318102,5.245678886267543,-4.890777068594097
1772790942003147500,1.7771474609375,-1.4418237786769865,5.091991130334138,-4.03104239949882
1772790942023180500,1.7971806640625,-2.2315192813843487,4.829084290269017,-2.821541522052884
1772790942043213600,1.817213623046875,-2.6647049466997386,4.728467614787816,-1.3203379181683064
1772790942063245600,1.83724560546875,-2.8227736941963433,5.084948226085305,0.14419336687922477
1772790942083278600,1.857278564453125,-3.3917733128413556,4.817425416657328,1.5013029726058245
1772790942103311600,1.8773115234375,-3.7497041229471564,4.192941518938541,3.06485811098516
1772790942123344600,1.8973447265625,-3.937122006785869,3.082005645141005,4.512304990240931
1772790942143377700,1.917377685546875,-3.9896401295304296,1.764718931236863,5.404966361904144
1772790942163409700,1.93740966796875,-4.216025749666988,0.6424743124395609,5.790160441988706
1772790942183442700,1.957442626953125,-4.809261691685021,-0.06262509073913097,5.674393543648719
1772790942203475700,1.977475830078125,-5.491369803115725,-0.18300503583252428,5.272589105024934
1772790942223508500,1.997508544921875,-5.9898319504618645,-0.2767372124969959,4.265722969771922
1772790942243541800,2.017541748046875,-5.930008473140001,0.08589958334267139,3.393590591396391
1772790942263573800,2.03757373046875,-5.683181245738267,0.3387912253499031,2.4821426861986517
1772790942283606500,2.0576064453125,-5.294524457979202,0.4889677582919597,1.7832865613237023
1772790942303639600,2.0776396484375,-4.7003299000620835,0.7675467992633581,1.0994941500678659
1772790942323672600,2.097672607421875,-3.93683120714575,1.1607681184589862,0.36030806063115595
1772790942343705600,2.11770556640625,-3.0392873241379856,1.3864356534540652,-0.3081573098942637
1772790942363737900,2.13773779296875,-2.11156866761893,1.2294336584061383,-0.3168994192764163
1772790942383770600,2.1577705078125,-1.413321906813979,0.9511375260293483,0.47054245928525923
1772790942403804000,2.177803955078125,-1.1334174624577165,0.341204716232419,1.2903615898385643
1772790942423836700,2.197836669921875,-0.40313744079321623,0.2705897957831621,2.155587257565558
1772790942443870000,2.217869873046875,0.025232640933990476,0.4202309066742658,2.6357185061901807
1772790942463901700,2.237901611328125,0.1931023592159152,0.8336071251481771,3.5828076336115595
1772790942483934700,2.257934814453125,0.6139958214521408,1.3701941282272339,5.013234989005327
1772790942503967700,2.2779677734375,1.3257099665954708,1.178172842246294,6.951098656317591
1772790942524000800,2.298000732421875,3.3424200838685034,0.6113561205983161,9.464296113732457
1772790942544033800,2.31803369140625,5.387851560974121,-0.7286702483803034,11.27332648038268
1772790942564065800,2.338065673828125,7.478216404783725,-1.9696184034913777,12.379551692271232
1772790942584098800,2.358098876953125,9.05833455542922,-2.778133757480979,11.992837855273484
1772790942604131600,2.378131591796875,9.163541481310128,-2.8097850332856176,10.422613322132825
1772790942624164900,2.398164794921875,7.3461226410210125,-2.2982605752706524,8.505037825089692
1772790942644197600,2.41819775390625,4.759413372671604,-1.7264245641559361,7.04576782157123
1772790942664229600,2.438229736328125,2.594139710611105,-1.3128688974618912,6.10024696637988
1772790942684262700,2.4582626953125,1.308025549083948,-0.9603285482227801,5.698759923142195
1772790942704295700,2.478295654296875,0.6271206759631633,-0.7343938867241143,5.514556032913923
1772790942724328700,2.49832861328125,0.23948913959860801,-0.4005336880356073,5.292049007776379
1772790942744360700,2.518360595703125,-0.10394655055627226,-0.1970306385755539,5.0372640993684525
1772790942764393700,2.538393798828125,-0.2884802572607994,0.1440612649321556,5.065004923731088
1772790942784426800,2.5584267578125,-0.5955345743492245,0.4719423892110586,4.592879871429503
1772790942804459800,2.578459716796875,-0.5116087752975523,0.9377274248361587,4.309911947849392
1772790942824492800,2.598492919921875,-0.5239166143372654,1.4613380419641733,3.7709354192852973
1772790942844524500,2.618524658203125,-0.5546943221777677,2.0814356874227524,3.339413011007011
1772790942864557800,2.638557861328125,-0.6774865891098976,3.082010321316123,3.4758532795414325
1772790942884590600,2.658590576171875,-1.2161255562826991,3.725858260196447,3.766571086595952
1772790942904623900,2.678623779296875,-1.8112731771409512,4.1835166879892345,3.8595191271454095
1772790942924656600,2.69865673828125,-2.656422856044769,4.2539585899591446,3.686251641473174
1772790942944689000,2.71868896484375,-3.5285885521680114,4.245826136907935,3.531590364332497
1772790942964721700,2.7387216796875,-4.464213451766968,4.356964206403494,3.293829655961692
1772790942984754700,2.758754638671875,-5.2767736972332,4.97960335303843,2.986959755529463
1772790943004787700,2.77878759765625,-6.161124921190738,5.457938073635101,2.354716037464142
1772790943024820700,2.79882080078125,-6.552965015161037,5.8689978318601845,1.3421470143944023
1772790943044852700,2.818852783203125,-6.60172875380814,5.889879291847348,0.09783201319873333
1772790943064885500,2.838885498046875,-6.360373820337653,5.610310070794821,-1.1648597716867923
1772790943084918800,2.858918701171875,-5.846802366665005,5.247595533543825,-2.0842232723146674
1772790943104951600,2.87895166015625,-5.431863721179962,4.896826577891409,-2.609421450895071
1772790943124984800,2.89898486328125,-5.153976754125952,4.833403030250966,-2.821729738101363
1772790943145016600,2.9190166015625,-4.9384284620851275,5.044139830356836,-3.4702567747086284
1772790943165049900,2.9390498046875,-4.7288341100126505,5.013855751252174,-4.466293765172362
1772790943185082600,2.95908251953125,-4.386705264672637,4.679731056408584,-5.248842903256416
1772790943205116000,2.979115966796875,-3.8815076715916392,4.533940191204846,-5.483590401285887
1772790943225148700,2.999148681640625,-3.409087727996707,4.888206049062311,-5.223644164592027
1772790943245181000,3.019180908203125,-3.4101796148866415,5.2072319589734075,-5.484961105117201
1772790943265213700,3.039213623046875,-3.918953897410631,5.08915269203782,-6.058999594712257
1772790943285246700,3.059246826171875,-4.206047084227204,4.983209268575907,-6.379940106073022
1772790943305279700,3.07927978515625,-4.027105060049891,5.166019658619165,-6.46756110638082
1772790943325311700,3.099311767578125,-3.4324376239240166,5.1749786256223915,-6.728122844624519
1772790943345344800,3.1193447265625,-2.552050042900443,4.916601245680451,-6.88742960948348
1772790943365377800,3.139377685546875,-1.8240426423430443,4.325458768810331,-6.974817970079183
1772790943385410600,3.15941064453125,-0.7218167292237282,3.9077512431338426,-6.544018323117494
1772790943405443600,3.179443603515625,0.5041027835816144,3.5469095140174027,-5.788692707523703
1772790943425475600,3.1994755859375,0.9283771204277872,3.297321881991625,-4.742288634869456
1772790943445508600,3.219508544921875,0.8278571833193301,3.4433494785606857,-3.568828792619705
1772790943465541600,3.239541748046875,0.8741507324606179,4.169214021870494,-2.4459452913969755
1772790943485574700,3.25957470703125,0.7279448567152023,5.1910862953364845,-1.6324328597724436
1772790943505607700,3.279607666015625,0.40002895338386296,5.896127246326207,-0.6473392881274223
1772790943525639400,3.299639404296875,0.23754735788106918,6.088167821529507,1.0066413865864277
1772790943545672700,3.319672607421875,0.1256152153983712,5.566814043417573,2.7762039584621787
1772790943565705500,3.33970556640625,0.20531448279619216,4.401978821650147,4.221878275087476
1772790943585738800,3.35973876953125,0.5250970562934875,3.1073440845370293,5.265481903368235
1772790943605771500,3.379771484375,0.9702724346101284,1.9390514157921075,5.977486263629793
1772790943625803800,3.3998037109375,1.459094939212501,0.9164163412600755,6.345913333308697
1772790943645836500,3.41983642578125,2.0510019707143305,0.008252280038595199,6.462680933123827
1772790943665869800,3.439869873046875,2.5115856383040547,-0.7474895151406526,6.230412976950407
1772790943685902600,3.459902587890625,2.6742741545557975,-1.3237936115801334,6.04012070671916
1772790943705935600,3.479935546875,2.5871964673444627,-1.5148241329580545,5.752788450449705
1772790943725967600,3.499967529296875,2.2492837783947586,-1.629739382904768,5.563066673582792
1772790943746000600,3.520000732421875,1.8740145877361296,-1.7121067004680632,5.308472903832793
1772790943766033700,3.54003369140625,1.4628523920498788,-1.9067115732014177,5.1884705598801375
1772790943786066400,3.56006640625,1.3817267451107502,-1.9275293203026056,5.109866978764534
1772790943806099700,3.580099609375,1.2277452669277786,-1.9546470443308352,5.138714303064346
1772790943826131500,3.60013134765625,1.2332608154788613,-1.959951580479741,5.348008795407414
1772790943846164700,3.620164794921875,1.4466718032300472,-1.9289444477975368,5.6420595462769265
1772790943866197500,3.640197509765625,1.605675201228261,-1.7378543051868676,6.010546821710467
1772790943886230800,3.660230712890625,1.717103485842049,-1.6130986292272804,6.358891472825408
1772790943906262500,3.680262451171875,1.934832044531405,-0.9642810852408409,6.627206893935799
1772790943926295800,3.7002958984375,1.5348796635150908,-0.662327013900876,6.533772238913178
1772790943946328600,3.72032861328125,0.9726280578255653,-0.571799770757556,6.333948170226812
1772790943966361900,3.74036181640625,0.3971124814152717,-0.6034148062050342,5.956220188239216
1772790943986394600,3.76039453125,-0.2101066855087876,-0.6384621541887522,5.72489798848331
1772790944006426600,3.780426513671875,-0.6913423882439732,-0.5132622415930033,5.509747171327471
1772790944026459600,3.800459716796875,-1.2367761301234363,-0.257048177164793,5.130379605439305
1772790944046492700,3.82049267578125,-1.852131841751933,0.0038350481182336804,4.7090158953428265
1772790944066525700,3.840525634765625,-2.437033086144924,0.3702227209240198,4.304675216239691
1772790944086558500,3.860558349609375,-3.0544854777917263,0.6716355249941348,3.545409630848467
1772790944106590700,3.8805908203125,-3.527129001009464,0.6299480083435773,2.9349422757834196
1772790944126623700,3.900623779296875,-3.5222444438382983,0.2231727955698967,2.578404673601687
1772790944146656800,3.92065673828125,-3.167471513241529,-0.06611877807378769,2.5260093004539605
1772790944166689500,3.940689453125,-2.8010066835463046,-0.00623626404106617,2.5005022264927623
1772790944186722800,3.960722900390625,-2.472250529998541,0.5662485663712025,2.5355863993555308
1772790944206754600,3.980754638671875,-2.229346613520384,1.3580109384804964,2.540565064550936
1772790944226784800,4.00078466796875,-1.878651161495596,2.3651100057065486,2.5145257834091783
1772790944246817500,4.020817626953125,-1.5857121712602673,3.020263182455301,2.3737770040258765
1772790944266850800,4.040850830078125,-1.3705784513697028,3.5818554474532602,2.284640046197176
1772790944286882600,4.060882568359375,-1.3520634282529354,3.4733114861041305,1.917367991772294
1772790944306915800,4.080915771484375,-1.3721768264770506,3.445889810693264,1.7620324686318636
1772790944326948600,4.100948486328125,-1.7548726600050926,3.0347049647837876,1.3773808248609303
1772790944346981600,4.120981689453125,-2.1133748402580617,3.97337639247179,2.1620862641960383
1772790944367014100,4.14101416015625,-2.819424676029384,3.982544618311524,1.9003899689644574
1772790944387046100,4.161046142578125,-3.114712859739363,4.696186808907985,1.3659475766986608
1772790944407079200,4.1810791015625,-3.3215175810933113,5.362307954394817,0.6285416486769915
1772790944427112200,4.2011123046875,-3.0389357342213392,6.150051153990626,-0.568750320059061
1772790944447145200,4.221145263671875,-2.1817051569014785,7.091712995666265,-2.476463763779402
1772790944467178000,4.241177978515625,-0.9756266551196574,7.45088591478765,-4.42235817733407
1772790944487210000,4.2612099609375,-0.0993298505410552,7.437140882551669,-6.244639070701599
1772790944507243300,4.2812431640625,0.4104012943163514,7.312527245411276,-7.829645577910542
1772790944527276000,4.301276123046875,0.9460556927204131,7.098330952501296,-8.55247002287209
1772790944547309000,4.32130908203125,1.170651506830752,6.632308600988984,-8.966020428869127
1772790944567342000,4.341342041015625,1.3529412340007723,6.3485495270311825,-9.353230524951218
1772790944587374300,4.361374267578125,1.7057970789298413,6.233044494497776,-9.665968440634012
1772790944607407000,4.381406982421875,2.2988185014143583,6.441169358539581,-9.806918880069254
1772790944627440000,4.401440185546875,2.2010735819771883,6.723236241626739,-10.039149426841735
1772790944647473200,4.42147314453125,1.3590459806166588,7.1081970974773165,-9.637648355078696
1772790944667506200,4.441506103515625,0.5179132822692394,8.109542131221295,-8.836811865153908
1772790944687538200,4.4615380859375,-0.21439678391814232,8.857976818257569,-8.18562583847046
1772790944707571000,4.481571044921875,-0.8292831244692206,9.28101343000233,-7.420187994185089
1772790944727604200,4.501604248046875,-1.527116189906746,9.298214740172028,-6.208883282187581
1772790944747637000,4.521636962890625,-2.3695696154639125,9.16042364155054,-4.606094450050592
1772790944767669200,4.541669189453125,-3.3559023735150695,9.020728755134343,-2.721965295535326
1772790944787702000,4.561701904296875,-4.427691647316515,9.029442222943901,-0.6871019741952419
1772790944807735300,4.5817353515625,-5.301106174457073,9.233858880117536,1.6842787823438643
1772790944827768000,4.60176806640625,-6.00694207521677,8.755006273126602,3.9086698192834852
1772790944847801000,4.621801025390625,-6.100932026034593,7.421956757423281,6.058925944954156
1772790944867833000,4.6418330078125,-5.5107566406309605,5.505369102373719,8.07823630785346
1772790944887866400,4.661866455078125,-4.409319832062721,3.2240479714661836,9.90355554600358
1772790944907899100,4.681899169921875,-3.2861820638179777,1.0930068338751793,11.60975506825447
1772790944927932200,4.70193212890625,-2.0051357070744036,-0.9008364948123693,11.96430967992544
1772790944947965200,4.721965087890625,-1.1693339944913983,-2.3325322627067564,10.96692595102787
1772790944967997200,4.7419970703125,-0.7760472088441253,-2.544344290828705,9.591329086974262
1772790944988030200,4.7620302734375,-0.9188722099795937,-1.9175532852113246,8.463556644666195
1772790945008063000,4.78206298828125,-1.743828995682299,-0.9428834924250841,7.206285131263733
1772790945028096300,4.80209619140625,-2.8023367631062865,0.029147184029221535,5.621311941802501
1772790945048129000,4.82212890625,-3.8152182131260632,0.6980617596268653,3.426829136392474
1772790945068161300,4.842161376953125,-4.455000217741728,0.5426280368089675,1.5427397293657064
1772790945088194000,4.862194091796875,-4.58793335493803,0.008476151922345162,0.23505203393399715
1772790945108227300,4.882227294921875,-4.4454321789294475,-0.45176469357907767,-0.6461258206844329
1772790945128260000,4.902260009765625,-3.8928880205228924,-0.48113633401393885,-1.2681520961180328
1772790945148293400,4.92229345703125,-2.9101395506992933,-0.5196306075811385,-1.5372989996165036
1772790945168325000,4.9423251953125,-2.3576216957777736,-0.8822738331615925,-0.6476283342018723
1772790945188358100,4.962358154296875,-1.9412427883565424,-0.29178806663453577,0.8729293739721179
1772790945208391200,4.98239111328125,-1.2814461697161197,0.5404331571131944,2.064835850277543
1772790945228424200,5.002424072265625,-0.10109276856034993,1.5452888293266296,2.663700445832312
1772790945248457200,5.022457275390625,0.5748313935384154,2.22918528547883,3.96720325679481
1772790945268489200,5.0424892578125,0.7552300462648273,2.6227251691043376,7.980992323675752
1772790945288522200,5.062522216796875,0.39440205341279505,2.072570243921876,12.723905227923392
1772790945308555000,5.082554931640625,0.135015204167366,0.013948445853590964,16.778778000342847
1772790945328588300,5.10258837890625,0.835241156090796,-2.0384750820964572,19.97818895868063
1772790945348621000,5.12262109375,1.741404398883879,-4.199907266297936,19.86694041454792
1772790945368653300,5.1426533203125,1.08523766117841,-4.085670061743259,17.33549184564948
1772790945388686300,5.162686279296875,-0.2821504697173834,-2.1377684000194073,13.480572321254014
1772790945408719400,5.18271923828125,-1.3813570350155233,-0.2857856113493442,9.153789902624487
1772790945428752400,5.20275244140625,-1.7022224353134632,0.3302946151614189,5.980767769518494
1772790945448785400,5.222785400390625,-1.1731386474713683,0.6017179391592741,3.9908898373305797
1772790945468817200,5.242817138671875,0.021145956142246722,0.850271259701252,2.869300467571616
1772790945488850400,5.262850341796875,0.7804571342408657,0.8785463370710611,3.0550849049896
1772790945508883200,5.28288330078125,0.501252070325613,1.277896368280053,3.5835789102450013
1772790945528916500,5.30291650390625,-0.21310615958571433,2.2550094625651833,4.241269496516884
1772790945548949200,5.32294921875,-0.983889456552267,3.1324609901368614,4.454150030653178
1772790945568981500,5.3429814453125,-1.5344775124549865,3.9107074625909326,4.387108292515576
1772790945589014300,5.36301416015625,-1.9301473938465117,4.807831658881902,4.526015827946365
1772790945609047300,5.38304736328125,-2.1333461996629834,5.447069473618269,4.572194810797273
1772790945629080300,5.403080322265625,-2.3417414050787686,5.591305510595441,4.093513760980963
1772790945649113300,5.42311328125,-2.311799271279573,5.29152410711944,2.6802456301808357
1772790945669145300,5.443145263671875,-2.506657826513052,4.946288527935743,1.418756791344285
1772790945689178400,5.463178466796875,-3.001109569174051,4.600756596153975,0.6829840174823999
1772790945709211400,5.48321142578125,-3.2862644814044235,4.608816568490862,0.5125321737527847
1772790945729244400,5.503244384765625,-3.907924553874135,4.823381110191345,0.581758854714036
1772790945749277400,5.52327734375,-4.833547114896774,4.955633279386163,0.11254326011836528
1772790945769309200,5.54330908203125,-5.2902159471303225,5.1673050222545855,-0.733549837115407
1772790945789342500,5.563342529296875,-5.539990333899855,5.2731940851807595,-1.8759411718845367
1772790945809375200,5.583375244140625,-5.5335255217999215,5.424017683854699,-2.8795588267356154
1772790945829408500,5.603408447265625,-5.336516510534286,5.600872380363941,-3.656398355001211
1772790945849441300,5.623441162109375,-4.878023385483027,5.793145010757446,-4.29895099337399
1772790945869473500,5.6434736328125,-4.251507105153799,5.7868555552244185,-4.9310477041840555
1772790945889506300,5.66350634765625,-3.7058795942679046,5.44203206397295,-5.598102915650606
1772790945909539600,5.68353955078125,-3.37699426138252,4.908604401707649,-6.22328297894001
1772790945929572400,5.703572265625,-2.964003827355802,4.970138190078735,-6.218415665164589
1772790945949605400,5.72360546875,-2.251394779199362,5.946820491731167,-6.067391575482487
1772790945969637400,5.743637451171875,-2.5387758430466056,6.2638347695589065,-6.548695667278766
1772790945989670400,5.76367041015625,-3.4194650373652578,6.786639331001043,-6.998847664964199
1772790946009703400,5.783703369140625,-4.098535388535261,7.368402861890196,-8.122764016366004
1772790946029736200,5.803736083984375,-3.617113807839155,7.590583723813295,-8.463744860714673
1772790946049769500,5.82376953125,-2.438751288239658,6.858209360218048,-7.6377879580587145
1772790946069801200,5.84380126953125,-0.7486500833526253,5.921242982882261,-6.6735530500471585
1772790946089834500,5.86383447265625,0.6490475533500314,5.14752772411704,-6.368317472818493
1772790946109867300,5.8838671875,2.191676515817642,5.568398682260513,-5.97678542188406
1772790946129900500,5.903900634765625,3.7816876994460817,6.566737519925832,-4.357718824163079
1772790946149932300,5.923932373046875,5.616921013367175,7.333318689027428,-2.2889023798167702
1772790946169965300,5.94396533203125,6.974678853869438,7.212135610857605,-0.8445534665763378
1772790946189998300,5.963998291015625,7.134609888106584,6.311411344248056,0.46998307183682914
1772790946210031400,5.98403125,5.894713872396945,5.061992297911644,2.3572166221082207
1772790946230064400,6.004064453125,3.9007694214224813,3.0985388467907904,4.32452031891644
1772790946250096400,6.024096435546875,1.9405039526879786,1.210066110113263,6.0156315776288505
1772790946270129400,6.04412939453125,0.6932008755922318,0.03200198893845081,6.633685150039196
1772790946290162400,6.064162353515625,0.014694880306720733,-0.561579405516386,6.242262404698133
1772790946310195500,6.084195556640625,-0.44020328899249433,-0.6607125644415617,5.267975473749638
1772790946330228200,6.104228271484375,-0.5655670138478279,-0.3854629601538181,4.383369690509141
1772790946350260200,6.12426025390625,-0.7436801859855652,-0.19666648143827914,3.415976026205718
1772790946370293500,6.14429345703125,-0.7155890868805348,0.03982932156324386,2.274777992874384
1772790946390326300,6.164326171875,-0.797787185356766,0.10546060838103294,1.1991229835554957
1772790946410359300,6.184359375,-0.9504818385995923,0.054684945389628405,0.17910393674075603
1772790946430392300,6.204392333984375,-1.0698808098316193,-0.004763853400945663,-0.6961345909565687
1772790946450424300,6.22442431640625,-1.287073946470022,-0.0820867470562458,-1.4415391165167093
1772790946470457300,6.244457275390625,-1.5222542829588055,-0.07295593061745166,-2.058864374652505
1772790946490490400,6.264490478515625,-2.0243406121514735,0.12284428938031196,-2.5314491534203287
1772790946510523400,6.2845234375,-2.596947753769159,0.5865870055228471,-2.946160419890284
1772790946530556400,6.304556396484375,-3.446464980232715,1.2862076850295066,-3.3841011707782744
1772790946550588400,6.32458837890625,-4.536435515151918,1.7294576482415198,-3.752189217761159
1772790946570621200,6.34462109375,-4.341268332360684,3.1634242836773394,-3.3221751682192084
1772790946590654500,6.364654541015625,-4.762291266195476,4.6111493953526015,-2.014986362220347
1772790946610687200,6.384687255859375,-5.565425803929567,5.1317637532740825,0.582586829970777
1772790946630720300,6.40472021484375,-4.405281370326876,5.39648787189424,4.068171522192657
1772790946650752300,6.424752197265625,-2.2354212572589516,4.098353602227569,7.279709263914823
1772790946670785500,6.44478564453125,0.5590574858233333,1.2582424042612312,10.628415296185016
1772790946690818300,6.464818359375,3.511502392810583,-1.4756640889585018,13.24176590322256
1772790946710851300,6.484851318359375,5.196635746157169,-3.8627123702287673,14.100849414932727
1772790946730884400,6.50488427734375,5.601841517657041,-4.937140760362148,14.405229836636781
1772790946750916400,6.524916259765625,4.801694179040194,-5.611138338312506,12.498868976569176
1772790946770949400,6.544949462890625,3.498790210753679,-5.0810126402020455,10.31538628860116
1772790946790982100,6.564982177734375,1.7311726354658603,-3.939019364839792,8.136600818538666
1772790946811015400,6.585015380859375,0.1223207038976252,-2.673659822049737,6.285362710756063
1772790946831048200,6.605048095703125,-1.2348423855818806,-1.6062258208483458,4.959017661127448
1772790946851080400,6.62508056640625,-2.262807861356437,-0.7918465432614088,4.045148958523571
1772790946871113200,6.64511328125,-2.892933272093534,-0.03497428274750709,3.1619246927693485
1772790946891146500,6.665146484375,-3.3514521161079407,0.5392968465596437,2.7615894499152898
1772790946911179300,6.68517919921875,-3.5615617242261766,1.1012994459241627,2.7669816643476484
1772790946931212500,6.705212646484375,-3.6808477366030212,1.691987457025051,2.965506340873241
1772790946951244300,6.725244384765625,-3.7920503957673906,2.110858181262016,3.16729294180423
1772790946971277300,6.74527734375,-3.6420924740120766,2.683741655603051,3.5832834344297644
1772790946991310300,6.765310302734375,-3.6038346395492553,3.208304458889365,3.9047485541865226
1772790947011343400,6.78534326171875,-3.3532609190955758,3.7452345763176678,3.901292276252806
1772790947031376400,6.80537646484375,-3.2640769072547555,4.191286737468839,3.468793424157798
1772790947051408400,6.825408447265625,-3.1185090371519326,4.63774631037712,2.924531940928101
1772790947071441400,6.84544140625,-3.1878119982197877,4.857485039845109,2.3817624498218297
1772790947091474200,6.86547412109375,-3.393490053631365,4.908644733718037,1.9177485155224798
1772790947111507500,6.885507568359375,-3.471519926512241,4.64731493371129,1.6101152295023202
1772790947131540200,6.905540283203125,-3.5723072823852298,4.4796974366247655,1.289079441073537
1772790947151572500,6.925572509765625,-3.908828516976535,4.515581819954514,0.9410632912606001
1772790947171605200,6.945605224609375,-4.270631784601509,4.836275663077831,0.41578269509375093
1772790947191638500,6.965638427734375,-4.409948193094134,5.500435153102875,-0.6855529911875724
1772790947211671300,6.98567138671875,-4.184788023099303,5.999268471848964,-2.7642046008497476
1772790947231704300,7.005704345703125,-3.542660916662216,6.115940210074186,-4.385235192120075
1772790947251736300,7.025736328125,-3.198881966027617,5.796698319324851,-5.394207652002573
1772790947271769300,7.045769287109375,-2.785692502297461,5.424909664258361,-5.987047872701287
1772790947291802400,7.06580224609375,-2.1327903193458915,5.457488576301932,-5.993472937312722
1772790947311835400,7.08583544921875,-1.692304560150206,5.761195044267177,-6.3272361053675406
1772790947331868400,7.105868408203125,-1.7460607002571225,6.066858491519093,-6.999381917971372
1772790947351900400,7.125900390625,-2.2115935146868226,6.438185374292731,-7.731285156923532
1772790947371933400,7.145933349609375,-2.651185832174122,6.61683630656898,-9.166365306559204
1772790947391966500,7.165966552734375,-2.283976029330492,6.706832219314575,-10.421582225519417
1772790947411999500,7.18599951171875,-1.7588357184171675,6.438846468549967,-10.504176337575911
1772790947432032300,7.2060322265625,-1.388975985586643,6.258716111370921,-9.406857485720515
1772790947452064300,7.226064208984375,-0.9816285258829593,5.742890156769752,-7.9291183440536255
1772790947472097300,7.24609716796875,-0.3003495770190842,5.226638085711002,-6.2939844086289405
1772790947492130300,7.26613037109375,0.8253431546717882,5.1738656959444285,-4.57508264119327
1772790947512163300,7.286163330078125,1.949955087122321,4.894301151067018,-3.084772187244892
1772790947532196400,7.3061962890625,3.3786943432986734,5.146308995977043,-1.8805138866275548
1772790947552228400,7.326228271484375,4.193437193500995,5.679705094060301,-0.967171545985341
1772790947572261400,7.346261474609375,3.5913586043357846,6.195621649554371,0.355710795968771
1772790947592294400,7.36629443359375,2.1951894923746584,6.9853855413228265,3.0358015278488395
1772790947612327400,7.386327392578125,-0.04991816481265705,6.492611961007118,5.5379532751142975
1772790947632360400,7.4063603515625,-1.355311031872034,4.746995205125212,7.450815187638997
1772790947652392400,7.426392333984375,-1.163189208126068,3.090634941798448,9.491971471643447
1772790947672425200,7.44642529296875,-0.7272136198312044,0.9928934317409992,10.631616138052939
1772790947692458500,7.46645849609375,0.08753569664452225,-1.2466063270032406,10.52187799848318
1772790947712491300,7.4864912109375,0.8245387794863432,-2.6228485032230613,10.050340682941675
1772790947732524300,7.506524169921875,1.2163455557089298,-3.2097663481354712,9.148380152535438
1772790947752556300,7.526556396484375,1.280684537693858,-3.463299210655689,7.677851088377833
1772790947772589600,7.546589599609375,1.1675561711639164,-2.37754629343152,7.1007438588619225
1772790947792622300,7.566622314453125,1.0691285301595925,-2.287734505081177,5.345120672750473
1772790947812655400,7.5866552734375,0.8834422924190759,-1.4956483078449965,3.908393632690608
1772790947832688400,7.6066884765625,0.4068102840870619,-1.0162374824494123,2.486194591937959
1772790947852721400,7.626721435546875,0.04539977863933891,-0.872852509343624,1.2499106292456388
1772790947872753400,7.64675341796875,0.06525014201309531,-0.7969652014493942,0.38750966355055566
1772790947892786200,7.6667861328125,0.25152499329652633,-0.6982324400186538,-0.4316945499747991
1772790947912819500,7.6868193359375,0.5394822130639105,-0.06870119578242302,-1.3375684544324875
1772790947932852200,7.706852294921875,0.764755122718215,0.48792204863131045,-1.6236492493361234
1772790947952885500,7.726885498046875,0.8615214794468135,0.14147241748273373,-1.6169930063173175
1772790947972917200,7.746917236328125,0.4157528114121407,-0.43940380917787547,-1.4450287121981382
1772790947992950500,7.766950439453125,-0.033864860200881954,-0.5850538046061993,-1.2229825825706124
1772790948012983300,7.7869833984375,-0.22205109806358814,-0.22655133209228515,-0.5325368509054184
1772790948033016300,7.807016357421875,-0.32767595709562297,0.5801029042005539,1.4854223896458745
1772790948053049300,7.82704931640625,0.5017757654061541,2.1190613614618776,4.5378789919584985
1772790948073081300,7.847081298828125,2.4597546210408208,2.29809807818532,6.794167388418316
1772790948093114400,7.8671142578125,5.786093338680267,2.099899564874172,8.127605026656388
1772790948113147100,7.887147216796875,7.652450689661502,0.7054705745786428,8.496582131433486
1772790948133180400,7.907180419921875,7.92513833450675,-0.9162310478210449,9.154518801420927
1772790948153213200,7.927213134765625,7.318461896157264,-2.4160990191876888,8.964208995532989
1772790948173245400,7.947245361328125,5.705237594723701,-2.539255443257093,7.1601172543287275
1772790948193278200,7.9672783203125,3.276692935460806,-1.5335434464752673,5.034145675086974
1772790948213311500,7.9873115234375,0.6444073263287544,-0.5954559561550616,3.3112244428768753
1772790948233344300,8.00734423828125,-1.6586419445231555,-0.4042337115973234,2.9292414337933064
1772790948253377500,8.02737744140625,-2.377477612109482,-0.013814590340852737,2.924844367878139
1772790948273409300,8.0474091796875,-2.210795057785511,0.7692436663091182,2.8412779036581512
1772790948293442300,8.0674423828125,-2.248043130683899,1.7930892856746912,2.1924273341849445
1772790948313475300,8.087475341796875,-2.5184780281662937,3.0735359229594468,0.8444520520284772
1772790948333508400,8.10750830078125,-2.5547686542093753,3.458790208798647,-0.5725152255505324
1772790948353541400,8.127541259765625,-2.1153797503396867,3.342549847728014,-1.5386837319731712
1772790948373573000,8.147572998046876,-1.4649816591635345,2.8598119237363337,-1.8657827659636734
1772790948393606000,8.16760595703125,-0.8455458386145531,2.357529341319203,-1.6281518214523791
1772790948413639200,8.18763916015625,-0.5712238705657422,1.8769202460497616,-1.0802812078148125
1772790948433672000,8.207671875,-0.7874550303041935,1.31171446672976,-0.5248889665007591
1772790948453705000,8.227705078125,-1.3326149236783384,0.9400707730919122,-0.01922375590801239
1772790948473737000,8.247737060546875,-2.01572695145458,0.6039321080774068,0.3325444399148226
1772790948493770200,8.267770263671874,-2.7330548448264596,0.33749475579857824,0.6676321345716715
1772790948513803000,8.287802978515625,-3.209145293627679,0.18549860621392725,0.932773601821065
1772790948533836000,8.3078359375,-3.531869765795767,0.09280570946931839,1.0652245084583758
1772790948553869000,8.327869140625,-3.8563635857239364,0.0687368516176939,1.0560136125206947
1772790948573901000,8.347901123046874,-4.143490967071056,0.1411503459215164,1.0027554850637912
1772790948593934000,8.36793408203125,-4.311759037020802,0.2958464021146297,0.8659493058264255
1772790948613966800,8.387966796875,-4.547409621369838,0.755855192425847,0.6844973446547985
1772790948634000100,8.408000244140625,-4.961449272188544,1.2903998760223387,0.21455518935024737
1772790948654033000,8.428032958984375,-4.977372817507386,1.9604770656585693,-0.20851006396710872
1772790948674066200,8.448066162109376,-4.874110011431575,2.6658073549836874,-0.7894494189918041
1772790948694098000,8.468097900390624,-4.712561020603776,3.357409563207626,-1.4403496144711971
1772790948714131200,8.488131103515625,-4.529594855476915,4.114207589441538,-2.3230916496664284
1772790948734164000,8.5081640625,-3.7854070122301575,4.8338522353231905,-4.262859104773402
1772790948754197200,8.528197265625,-2.2885122114554046,5.282030887109041,-6.317362361606955
1772790948774230000,8.54822998046875,-1.29785779081285,5.405796967509389,-7.1473103797256945
1772790948794262000,8.568261962890626,-0.5941070257641374,5.1871360964059825,-6.9189458607316014
1772790948814295000,8.588294921875,0.5497767395198345,5.33671466345489,-5.684997939771414
1772790948834328000,8.608328125,1.0700104275606572,4.999487034159898,-5.4903258470207446
1772790948854361000,8.628361083984375,0.5678314516484737,5.444664750564098,-5.631189192694425
1772790948874393900,8.648393798828126,0.430721321028471,6.070742054954171,-5.778869817167521
1772790948894426000,8.668426025390625,2.7002754417747257,6.668045684802532,-4.984382404008508
1772790948914459000,8.688458984375,4.878566406318545,6.535168661707639,-4.322448188817501
1772790948934492200,8.7084921875,6.3006508807808155,5.60505229639709,-3.2876240793198344
1772790948954525000,8.72852490234375,6.2471834944874045,4.516916283428669,-1.9528081384658813
1772790948974558200,8.74855810546875,4.284564740625024,3.4695711305320263,-0.520446600139141
1772790948994591000,8.768591064453124,2.057019623568654,2.5986896290004253,1.2405413278758526
1772790949014623000,8.788623046875,-0.09333119464814663,2.9277380434930325,3.948943669743836
1772790949034656000,8.808656005859374,-2.183688439673185,3.1850001556694507,6.503357811427116
1772790949054689000,8.82868896484375,-3.071642656558752,2.540102999997139,8.98647343431115
1772790949074722000,8.84872216796875,-2.3448458008348942,1.0184399609297514,11.336759964895247
1772790949094754800,8.8687548828125,-0.2884463915238157,-1.007770682877302,11.299037260222434
1772790949114787000,8.888787109375,1.2815326789557933,-2.476902739718556,10.349896460968255
1772790949134820000,8.908820068359375,2.215688675045967,-3.2779952502310272,9.117411598297952
1772790949154853000,8.92885302734375,1.988034934669733,-3.0651719992399213,8.712032808318734
1772790949174886000,8.948885986328126,0.33975685551166535,-2.3690923533409833,7.8777979066610335
1772790949194919200,8.968919189453125,-1.5782124631546437,-1.397652043995261,6.435580744752287
1772790949214951000,8.988950927734376,-2.9521500156939027,-0.724267629507184,4.492458718520402
1772790949234984000,9.00898388671875,-3.6381180174231527,-0.4393377582043409,2.574450675278902
1772790949255017000,9.029016845703126,-3.7073850303947924,-0.7150123099058866,1.0062439117014408
1772790949275050000,9.049050048828125,-3.242631675904989,-0.9696008189588785,0.0040498599126935
1772790949295083000,9.0690830078125,-2.4954981345951555,-1.2222796949982642,-0.775169256965816
1772790949315115000,9.089114990234375,-1.6265326958179473,-1.4218331300497054,-1.651608100363612
1772790949335148000,9.10914794921875,-0.9732103146929293,-1.613582613351941,-2.6042396643429995
1772790949355181000,9.12918115234375,-0.5743605611562729,-1.4971639731049537,-3.718659873124957
1772790949375214800,9.14921484375,-0.28810386169645935,-1.0598907462149858,-4.200883417853713
1772790949395247600,9.16924755859375,-0.6810030727982521,-0.6831143658638,-3.4157086074411867
1772790949415281000,9.189281005859375,-1.018951344517991,-0.1295043317914009,-2.5072011396095157
1772790949435312600,9.209312744140625,-0.9428256247580051,0.8250824579089879,-1.4003458131238817
1772790949455345700,9.229345703125,-0.4281926793336868,1.6956407188355922,-0.043187107558548446
1772790949475378700,9.249378662109375,0.9803928466081618,1.869487465700507,1.7402771484196184
1772790949495411700,9.26941162109375,3.0285785908579825,1.4487427642852067,4.171911590391397
1772790949515444700,9.28944482421875,6.015913317179679,1.02498835965991,5.333858104979992
1772790949535476700,9.309476806640625,10.031915383934974,2.6951784108966588,4.1425677147462965
1772790949555509800,9.329509765625,13.078809383684396,3.845317583313584,2.1988398315757514
1772790949575542800,9.349542724609375,14.09547298259139,3.849687468960881,2.110756182192266
1772790949595575800,9.369575927734376,11.577448543411492,2.4233880071520804,2.7126076846033333
1772790949615608600,9.389608642578125,7.696064790460467,1.3313853818833827,3.614116964110732
1772790949635640600,9.409640625,3.2648505219757555,0.7132762798935175,4.207899434095621
1772790949655673900,9.429673828125,-0.4828032443128526,0.5707260040462017,4.300683223994076
1772790949675706600,9.44970654296875,-2.504137368124723,0.2061404122263193,4.177154751741886
1772790949695739600,9.46973974609375,-3.33431393430233,-0.4590671255469322,4.032188646924496
1772790949715772700,9.489772705078124,-3.4094673749640583,-1.2324486223131417,3.4947666543260216
1772790949735804700,9.5098046875,-3.2130311951503154,-1.6259306382715701,2.8987609553337097
1772790949755837700,9.529837646484374,-3.0954315284252165,-1.3134481586545705,2.5407658478200434
1772790949775870700,9.54987060546875,-3.2040064694344994,-0.3027484365880489,2.0380752691239117
1772790949795903700,9.56990380859375,-3.696042675386369,1.0274848526507616,1.7383523178368805
1772790949815936800,9.589936767578125,-4.151208701841533,1.841337476015091,1.1725085328742861
1772790949835969800,9.6099697265625,-4.625522788619995,2.4765385825812816,0.5890905127763748
1772790949856001500,9.63000146484375,-4.860844287145137,2.5903841574698685,0.33637948803305623
1772790949876034800,9.650034912109374,-4.889530575664341,2.5520056192368266,0.5179898546367884
1772790949896067600,9.670067626953125,-5.07548306312561,2.1726532509177923,0.8686118030339479
1772790949916100900,9.690100830078125,-5.257050175109505,1.8949469011276958,1.45204677426666
1772790949936133600,9.710133544921876,-5.461620561540126,1.7086527606219053,2.0139576036944984
1772790949956166000,9.730165771484375,-5.743319195836782,1.4642074599206447,2.5465339098274704
1772790949976198700,9.75019873046875,-5.931031386446953,1.293077570798993,2.8195000793531535
1772790949996231700,9.770231689453125,-6.052723583182692,1.222000293534994,2.757154682338238
1772790950016264700,9.7902646484375,-5.987883154481649,1.1630261265188455,2.4117481305018065
1772790950036297700,9.810297607421875,-5.870749643963575,1.107634494164586,1.81066001367867
1772790950056329700,9.830329833984376,-5.792651674282551,1.0843868895679711,1.1177008378878235
1772790950076362500,9.850362548828125,-5.725370282170176,1.2762468475073576,0.5952057807862758
1772790950096395800,9.870395751953126,-5.737078840142488,1.529700215050578,0.37625732491314406
1772790950116428500,9.890428466796875,-5.459931877800822,1.7383412119209765,0.37019057222008706
1772790950136461800,9.9104619140625,-5.21636569802165,2.2774428281694648,0.34040625933110713
1772790950156494600,9.93049462890625,-4.849817573957145,2.272563823956251,0.006200023683905601
1772790950176526800,9.95052685546875,-4.263343673419953,2.1700281631112097,-0.43267420866191386
1772790950196559600,9.9705595703125,-3.2928310003131624,2.1127730749726292,-0.6280085647135972
1772790950216593000,9.990593017578124,-2.538638772663474,1.9542606753617524,-1.6933113991051911
1772790950236625700,10.010625732421875,-2.1898355641260743,2.212967725649476,-2.605067931860685
1772790950256658700,10.03065869140625,-2.1168948310777544,2.6387363927066323,-2.902391420790553
1772790950276690700,10.050690673828125,-1.783704786735773,3.011591215699911,-3.8673394455075263
1772790950296724000,10.070723876953124,-1.1876029338926075,3.5918320670664308,-5.211855527120829
1772790950316756700,10.0907568359375,-0.3977110318303108,3.716162795612216,-6.861352334418893
1772790950336789500,10.11078955078125,2.070706203615665,5.370275572273135,-6.8859449238836765
1772790950356822800,10.13082275390625,3.4292306445762515,7.626632357794046,-6.507128562137484
1772790950376855600,10.15085546875,1.7543264242991805,7.119371402442455,-7.820901130440831
1772790950396887800,10.1708876953125,0.9216948661848903,6.939729705563187,-7.621595532670617
1772790950416920600,10.190920654296875,2.230318088901043,5.924449669969081,-7.194122984305023
1772790950436953900,10.210953857421876,4.747599016237259,5.091040113219618,-5.9546256125241515
1772790950456986600,10.230986572265625,6.4862511938035485,4.383031544595957,-3.7133103287905453
1772790950477020000,10.25102001953125,6.333472953930497,2.835299413770437,-0.7405842657968401
1772790950497051600,10.2710517578125,4.555578899300098,1.1721540203481913,3.1121491467311975
1772790950517085000,10.2910849609375,2.2136817191377283,-0.1739724190711975,7.1960431387126444
1772790950537117700,10.31111767578125,0.5210898664787411,-2.135717312708497,10.912025317060946
1772790950557150700,10.331150634765624,-1.0943255152583122,-3.547629352724552,13.705448413610458
1772790950577183700,10.351183837890625,-2.0504595344007015,-3.7490672863483425,12.418279774594307
1772790950597215700,10.3712158203125,-2.586914143271744,-2.966200752878189,10.090973137581347
1772790950617248800,10.391248779296875,-3.1492613182902334,-0.793791247588396,7.959299547305703
1772790950637281500,10.411281494140624,-3.6543016749829054,1.0549696564257145,5.2226060537159436
1772790950657314800,10.431314697265625,-4.262960227060318,1.9496423679113386,2.1862340325027705
1772790950677347600,10.45134765625,-4.517161782622337,1.8852572817623614,0.2651417595103383
1772790950697380900,10.471380859375,-4.376112558987736,1.0010521882772445,-0.4712558682516217
1772790950717412600,10.49141259765625,-3.955364058180153,0.3285048091351986,0.13904957424998282
1772790950737446000,10.51144580078125,-3.104817196407914,-0.2959697362333536,0.7314613404035568
1772790950757478700,10.531478759765625,-2.4474983660578724,-0.5911766714006662,1.0015209748327731
1772790950777512000,10.551511962890626,-1.9117893148571252,-0.5479372491329908,0.9342211702808737
1772790950797544700,10.571544677734375,-1.4434011109963059,-0.39704233878850936,0.6948430898413062
1772790950817576700,10.59157666015625,-1.2125740012809634,-0.08633329858481884,0.7062149632051586
1772790950837609700,10.611609619140625,-1.1418281479284167,-0.12298515915572643,0.7128235676899551
1772790950857642800,10.631642822265626,-1.1498542179957032,-0.17189502827525138,0.9361199896395206
1772790950877675800,10.65167578125,-1.3450398132264614,-0.08233867599070072,1.2587328181266784
1772790950897708500,10.67170849609375,-1.7246563854396342,-0.003277414235472679,1.252413259716332
1772790950917741800,10.691741943359375,-1.793982727383077,0.20698387731313705,0.9144450411871075
1772790950937773800,10.71177392578125,-1.266756842367351,0.36447862431406974,0.7037111636906862
1772790950957806800,10.731806884765625,-0.4162359918192029,0.45380175236463544,0.5758844097226857
1772790950977839600,10.751839599609376,0.6007467560395598,0.611779898968339,0.06676233667433261
1772790950997873000,10.771872802734375,1.3526821446731685,0.7877414460301398,-0.65643532551378
1772790951017905700,10.79190576171875,2.349677020383626,1.31016665276587,-1.6628189379468559
1772790951037937700,10.811937744140625,3.3779429404094814,1.4257237077474594,-2.5097040623411533
1772790951057970700,10.831970703125,3.9285891562402244,0.9644313073664903,-2.640637842413783
1772790951078003700,10.852003662109375,4.356143537670373,0.5539046331048011,-2.7484248479157682
1772790951098036700,10.87203662109375,4.581881215292215,0.238823369166255,-2.958084081918001
1772790951118069800,10.89206982421875,4.33104767485857,-0.009236614900827408,-2.572936179062724
1772790951138102800,10.912102783203125,3.64382996532917,-0.15729484051465986,-1.9330001529291272
1772790951158134800,10.932134765625,2.8934511584877964,-0.19739304214715955,-1.5048729400470853
1772790951178167800,10.952167724609374,2.105922478425503,-0.21004151131808757,-0.7193032850980758
1772790951198200600,10.97220068359375,1.2464594658784567,-0.10498480756282806,0.0511190696015954
1772790951218233900,10.99223388671875,0.867014158578962,0.36294834600687026,0.9910665085747837
1772790951238266600,11.0122666015625,0.9561398643612861,1.9076859711915253,2.001486829178035
1772790951258298600,11.032298583984375,0.14894932923465967,2.220257882657647,2.2494649801805613
1772790951278331600,11.05233154296875,-0.7058966910362243,2.6584096459478137,2.8641633969441056
1772790951298364700,11.07236474609375,-1.6044038661181925,2.042597714984417,3.1450702963411805
1772790951318397700,11.092397705078126,-2.1457292958959937,1.3766495879769325,3.506705221661925
1772790951338430700,11.1124306640625,-2.478522157613933,0.6233750596940517,3.7809853963956233
1772790951358463700,11.132463623046876,-2.9977137892559167,-0.16879823130369184,3.87201328253746
1772790951378495700,11.152495849609375,-3.345831353616714,-0.7368646607518196,3.7765243253335354
1772790951398528800,11.17252880859375,-3.696958621187508,-1.3872650900155306,3.5046494581758973
1772790951418561800,11.192561767578125,-4.073878501662612,-2.090181303936243,3.1575624059066176
1772790951438594800,11.2125947265625,-4.3751945673599835,-2.433362288677692,2.825895625609159
1772790951458627600,11.232627685546875,-4.678564935238659,-2.4227584770768877,2.685563610333204
1772790951478660900,11.252660888671874,-4.745631807817518,-2.1353438032209873,2.3105364117369054
1772790951498692900,11.27269287109375,-5.046267490035295,-1.837633360800147,1.723537902803719
1772790951518725600,11.2927255859375,-5.7370238950848575,-1.1181517965257166,1.5355398809894918
1772790951538758700,11.312758544921875,-6.650975307536124,-0.22108722146749496,1.7133397493943572
1772790951558791700,11.332791748046875,-7.188046294739842,0.5045616332650185,2.3609067087978124
1772790951578824700,11.35282470703125,-7.172843464910984,0.9569710544884205,3.493980472384393
1772790951598856700,11.372856689453124,-6.497514346095919,1.2788748579233884,4.669934761798381
1772790951618889700,11.3928896484375,-5.4308033984720705,1.3067150510072707,5.62864359986484
1772790951638922800,11.4129228515625,-4.319524410325289,1.1501888567775487,6.283738324424624
1772790951658955800,11.432955810546876,-3.2261607258364555,1.1271996108561753,6.41030426467657
1772790951678988800,11.45298876953125,-2.3808579021975396,1.48853584549129,6.154081432420015
1772790951699021800,11.473021728515626,-1.882710227628052,1.9875363374978303,5.440653761357069
1772790951719053800,11.4930537109375,-1.52142060861364,2.856899835681915,4.846157590144872
1772790951739086600,11.513086669921876,-1.569027724571526,3.682567984524369,4.170371959733963
1772790951759120000,11.533119873046875,-1.956730572606623,4.382627639970183,3.555703645847738
1772790951779152600,11.553152587890626,-2.348693416173756,5.242499671709537,3.257921014973521
1772790951799185700,11.573185546875,-2.9331241204455494,5.8734472124844785,2.740670580527186
1772790951819217700,11.5932177734375,-3.4276784466981884,6.539892183098196,2.1964356930434703
1772790951839250700,11.613250732421875,-3.8764009961023924,7.173989127814769,1.3417173908054827
1772790951859283700,11.63328369140625,-4.0341438726454975,7.622751132446527,-0.25084990704655646
1772790951879316700,11.653316650390625,-3.8868256517440076,7.595332964166999,-2.046764187014103
1772790951899349800,11.673349853515624,-3.134627520520985,7.5322642213135955,-3.647880702024698
1772790951919382800,11.6933828125,-1.910478232258558,7.290276250636577,-4.580206560078263
1772790951939414800,11.713414794921874,-0.7417135620877147,6.688363665688038,-5.194100674721598
1772790951959447600,11.733447509765625,0.07388795077055692,6.209754804325104,-6.133772803884744
1772790951979480800,11.753480712890624,0.5712869989298284,5.856553360828757,-7.059843108674883
1772790951999513600,11.773513671875,0.595992547249794,5.41582677861452,-7.766359392914175
1772790952019546600,11.793546630859375,0.3776502405762672,5.2085068012148135,-8.339410040515661
1772790952039579600,11.81357958984375,0.3554045064985752,5.353208117616176,-8.554554427930713
1772790952059612000,11.83361181640625,0.8020202928818762,5.464540832901001,-9.105079939991235
1772790952079644700,11.853644775390626,1.7488930010735988,5.444505760610103,-9.597374212357401
1772790952099677700,11.873677734375,2.1366355965971944,5.244994411134719,-9.333993325039744
1772790952119710700,11.893710693359376,1.7041840907752512,4.954661219483613,-9.05227540152073
1772790952139743700,11.91374365234375,1.3811153352141379,5.156445774587988,-9.086666915944217
1772790952159775700,11.933775634765626,1.4359440729886292,5.453472326397896,-8.895888908022641
1772790952179808500,11.95380859375,1.3286632634431124,5.8642135201931,-8.022794406616688
1772790952199841800,11.973841796875,0.8677828779291361,6.583280658447742,-6.832222101524472
1772790952219874600,11.99387451171875,0.22308102563321588,7.790864888617396,-5.586595433208346
1772790952239907800,12.013907958984374,-0.7745224834948777,9.047211103868484,-3.159129801353812
1772790952259940600,12.033940673828125,-2.332137125909328,9.722708564987778,-0.4429056798189878
1772790952279972900,12.053972900390624,-3.374180665266514,9.879483765542506,2.5992823341965674
1772790952300005600,12.074005615234375,-3.3763948341846466,9.52111631758511,5.449611559316516
1772790952320039000,12.094038818359374,-2.7125626764178277,8.405795360571146,7.67261669485569
1772790952340071700,12.11407177734375,-1.3725930060625076,7.359631526413559,10.385766231250763
1772790952360104700,12.134104736328124,-0.08951366392029449,5.352288080161809,12.94024963877797
1772790952380136400,12.154136474609375,1.4691618674576281,2.8470588251471516,14.579599730592966
1772790952400169500,12.17416943359375,3.181174459901452,0.16620295411348343,15.307818143552542
1772790952420202500,12.194202392578125,4.279683398324251,-2.0649843188375234,14.421207157969475
1772790952440235300,12.2142353515625,4.535149274733662,-2.91696296697855,12.674232557737827
1772790952460268500,12.2342685546875,4.284415687543153,-2.673526551058888,10.797497605127095
1772790952480301300,12.25430126953125,3.881970905189216,-1.970563575387001,9.01696969486177
1772790952500333600,12.27433349609375,3.5081101200237867,-0.9465303244948386,7.028133965203166
1772790952520366300,12.294366455078125,3.0010055242776867,0.03658814768493175,4.9542152292817825
1772790952540399600,12.314399658203126,2.276306079224497,0.2413239538103342,3.164881496748328
1772790952560432400,12.334432373046875,1.6949020292975008,0.15502689558267593,1.8419636450894177
1772790952580465700,12.354465576171876,1.2024077043145893,-0.5287725299358368,0.8466735274702311
1772790952600498400,12.37449853515625,1.0424608879864214,-1.306886315920949,0.20629472600519655
1772790952620530400,12.394530517578126,1.043719802006334,-2.1315537632882595,-0.43662294628769155
1772790952640563500,12.4145634765625,0.8742633990548551,-2.5766765346348284,-1.1784084045678376
1772790952660596500,12.434596435546876,0.24492621608600018,-2.6576941911548375,-1.8324004285827278
1772790952680629500,12.45462939453125,-0.3045581163585186,-2.1969091557741165,-1.7505100808814167
1772790952700662300,12.474662353515624,-0.5334254703082144,-1.2731886289805172,-0.8088149214580654
1772790952720695600,12.494695556640625,-0.4028752827256918,0.11822948906123637,0.7791668021693825
1772790952740727600,12.5147275390625,0.3024672815591097,1.7404168491512535,1.9967966255351899
1772790952760760600,12.534760498046875,2.211807449698448,3.3959073439061638,3.0515836188703775
1772790952780793300,12.55479345703125,4.084208464758098,4.703920618030429,3.1078935351133343
1772790952800826600,12.57482666015625,6.673741266095638,6.532602026090026,5.352779078549147
1772790952820859400,12.594859375,12.81264617217183,2.4562995121508835,-2.401899375052005
1772790952840892700,12.614892578125,13.31024848781824,3.666642685639858,-7.370063488578796
1772790952860924400,12.63492431640625,10.296928256368636,2.5073089838981626,-7.6022870210886
1772790952880957400,12.65495751953125,7.107269461238384,3.339669908377528,-4.228738808506727
1772790952900990500,12.674990478515625,5.773329718697071,3.3910224944740532,0.022470044352859257
1772790952921023500,12.6950234375,4.076300175851583,3.339425578227639,2.5079934590309856
1772790952941056500,12.715056396484375,2.7702830439805983,2.153490285286307,3.9846757851213215
1772790952961089300,12.73508935546875,2.6099048504978417,2.279150801131129,5.107359379857778
1772790952981121500,12.75512158203125,1.0088235529311,2.2158330519527194,5.566615890496969
1772790953001154300,12.775154296875,-0.051477089259028434,1.584497973164916,5.792727662128209
1772790953021187600,12.7951875,0.05858830950371921,0.5715700536549091,5.288107576674222
1772790953041220400,12.815220458984374,0.12126023505926131,-0.4106768963873386,4.970623927769065
1772790953061253600,12.835253662109375,0.20553777015805244,-0.6028495735377073,5.141594242414832
1772790953081285400,12.855285400390626,-0.4541209378490224,-0.2644745277732611,4.763838495637476
1772790953101318400,12.875318359375,-1.57561747822538,-0.2795253819108009,4.308323217353225
1772790953121351400,12.895351318359374,-2.0066871743001045,0.2549596804529428,4.082349100627005
1772790953141384400,12.915384521484375,-2.224898401939869,0.9179331755638122,3.71499784348607
1772790953161417500,12.93541748046875,-2.247021240290254,1.7127426602840423,3.0805972396478056
1772790953181450200,12.9554501953125,-2.3085291635677216,2.89497383801043,2.3581366595625877
1772790953201482500,12.975482421875,-2.891200749212503,3.5487621561467644,1.2326315776646137
1772790953221515500,12.995515625,-3.6599870271429418,3.6506320465594526,0.05886603046655654
1772790953241548500,13.015548583984375,-4.166021947830915,3.4838743811726567,-0.7959066323071717
1772790953261581300,13.035581298828125,-4.612867012925446,3.309570538190007,-1.3575801458477974
1772790953281614600,13.055614501953125,-5.266679588720202,3.103907095825672,-1.7829484154105186
1772790953301647400,13.0756474609375,-5.762454104417563,2.762798825705051,-1.7185259198606013
1772790953321679600,13.0956796875,-5.929400570374727,2.60302619690001,-1.246565994992852
1772790953341712400,13.11571240234375,-6.060022508019209,2.4543992314875123,-0.7401479202061891
1772790953361745700,13.13574560546875,-6.105237614274024,2.6191800438433885,-0.5465414108604193
1772790953381778200,13.155778076171876,-6.011945582592487,2.8433494492352005,-1.0284861386477946
1772790953401811200,13.175811279296875,-5.638716081067919,3.156175043201446,-1.9491110375136136
1772790953421844200,13.19584423828125,-4.959491708379984,3.4452468366146087,-3.2137609707295893
1772790953441876200,13.215876220703125,-4.29402756549716,3.7319630068123337,-4.453966198518872
1772790953461909200,13.2359091796875,-3.6912002037912606,4.172775513744354,-5.2846039524674415
1772790953481942300,13.2559423828125,-3.163129976905882,4.122288604566455,-5.649806214880943
1772790953501975300,13.275975341796874,-2.3427409375101327,3.412790674167871,-5.293578117039799
1772790953522008000,13.296008056640625,-1.0756035713925958,2.594290517258644,-4.4215860239177935
1772790953542041300,13.316041259765624,0.19807576371431349,1.5193044932425022,-4.213157208493351
1772790953562073300,13.3360732421875,1.4144666929349303,1.3603478569954632,-4.030989208006859
1772790953582106000,13.356106201171874,2.255572064884007,2.675446120944619,-3.9449008240938186
1772790953602139100,13.37613916015625,1.4448986560776829,3.5777369062185285,-4.589269571977853
1772790953622172200,13.396172119140624,-0.08429419397264719,4.53285970249176,-5.170966467371582
1772790953642205200,13.416205078125,-1.2651833094403147,5.423723669344186,-5.837623034909368
1772790953662238200,13.43623828125,-1.3732424098819493,6.015919162398577,-6.581464548936486
1772790953682270200,13.456270263671875,-0.305269771759212,6.22568711747229,-6.6759227017879486
1772790953702303200,13.47630322265625,1.3894915338933467,6.415415908601879,-5.180566654887795
1772790953722336300,13.496336181640626,3.026224136686325,5.994762392601371,-2.900928947022557
1772790953742369300,13.516369384765625,3.5210032116055485,4.884059743037819,-0.534169420543313
1772790953762402300,13.53640234375,2.99186126383543,3.391128877457976,1.493974237152934
1772790953782435000,13.55643505859375,2.007078657835722,1.7279302925437687,2.832936484031379
1772790953802467000,13.576467041015626,0.6249509307086467,0.3550567159742117,4.032351144009828
1772790953822500400,13.596500244140625,-0.8749111954391002,0.04303367056250572,5.755004957455396
1772790953842533000,13.616533203125,-1.8288298766195774,-0.5504372492551803,7.685762007632851
1772790953862566100,13.636566162109375,-1.8145440155051649,-1.3328326580822467,9.8195550742805
1772790953882599200,13.65659912109375,-1.0312008044339716,-1.921274936082959,9.56106488161385
1772790953902632200,13.676632080078125,-0.18356106228008864,-1.8274562501788139,8.181638814660907
1772790953922664200,13.696664306640624,0.13182137656211854,-1.469675077676773,6.743490509626269
1772790953942697200,13.716697265625,-0.8103001915797591,-0.9073562519699334,5.877742863851785
1772790953962730200,13.736730224609374,-2.278583376506716,-0.3838607856541872,5.180387206667661
1772790953982763300,13.75676318359375,-3.4144019087567923,-0.01985971572399139,4.215888679283857
1772790954002796300,13.77679638671875,-4.231188247485458,0.0022533318847417832,2.7612168172106144
1772790954022828300,13.796828369140625,-4.572452000428736,-0.2727116102427244,1.1711676396593451
1772790954042861300,13.816861328125,-4.217754180894792,-0.8274433418214321,-0.20226181722730396
1772790954062894300,13.836894287109375,-3.240236305201053,-1.2171996152549982,-1.2439388613596558
1772790954082927000,13.856927001953125,-1.9148022329375147,-1.62837393977046,-0.9985992421671748
1772790954102960000,13.876960205078126,-0.9427028751611709,-2.087324160939455,-0.13289777362197636
1772790954122993200,13.8969931640625,-0.3707176648341119,-2.3878368012994526,0.45290684935152525
1772790954143025200,13.917025146484375,0.227124163544178,-2.534660516682267,0.5613517342403531
1772790954163058200,13.93705810546875,0.8046282834231853,-2.6037562647402286,0.6840221283584833
1772790954183091200,13.95709130859375,1.359740538752079,-1.8357108683049679,1.1856474159106611
1772790954203124200,13.977124267578125,1.9682420005716383,-0.5057277544349432,1.9728473024100064
1772790954223157200,13.9971572265625,2.945243305045366,0.6488835949599743,3.0092887839764355
1772790954243190300,14.017190185546875,4.974328042984008,1.0125754528105257,3.4303976425290106
1772790954263222300,14.03722216796875,7.960787155514955,0.1659603775292635,3.3361998941794035
1772790954283255300,14.05725537109375,9.649043024796248,-1.1978303133964538,2.4111679925262925
1772790954303288300,14.077288330078124,9.156206900638342,-2.1232132204443217,0.8083087255015968
1772790954323321300,14.0973212890625,7.498549583238363,-2.0204437508434054,0.6315045901358127
1772790954343354000,14.11735400390625,5.02790648843646,-0.5570382549554109,1.8854282544150947
1772790954363387100,14.13738720703125,2.21572023922801,0.5051379718482494,2.6255805585354564
1772790954383419600,14.157419677734374,0.22268179718255995,1.8107593823999166,3.459121632710099
1772790954403452700,14.17745263671875,-1.2348290877088903,2.2391426158696413,3.9814308118507262
1772790954423485700,14.197485595703125,-2.1607975395597516,2.723227862817049,4.290425741612911
1772790954443518700,14.217518798828126,-3.2186484505102038,2.03449799515903,3.7216838971212503
1772790954463551700,14.2375517578125,-3.707980658200383,1.108348779913783,3.206881440348923
1772790954483584800,14.257584716796876,-3.809832136173546,0.12153437582552433,2.669830326889455
1772790954503616800,14.27761669921875,-3.8780966941043733,-0.6249398247927427,2.0799472024306653
1772790954523649800,14.29764990234375,-3.900527137099206,-0.7017027464777231,1.584596757364273
1772790954543682800,14.317682861328125,-3.741060797764361,-0.6895657339602709,1.0782444412901997
1772790954563715600,14.337715576171876,-3.2650743938595053,-0.17743220413625238,0.7548924848735332
1772790954583748900,14.357748779296875,-2.661893104149401,0.6001058277875184,0.3401911552757025
1772790954603781600,14.37778173828125,-1.9282215403504668,1.504957403460145,0.0017938976794481276
1772790954623813600,14.397813720703125,-1.325039812248945,2.4651842448741195,-0.5195125341594219
1772790954643846700,14.4178466796875,-1.0965933140598236,2.956765985056758,-1.1443085665673016
1772790954663879700,14.437879638671875,-0.7119824406906962,2.916613422888517,-1.756264991146326
1772790954683912700,14.45791259765625,-0.4016879726372659,2.5600895569711923,-2.130241511645913
1772790954703945700,14.47794580078125,-0.382514631742239,1.9454186127364634,-2.1255723507910966
1772790954723978800,14.497978759765624,-0.60054582663998,1.28002811961174,-1.7137679116785525
1772790954744010800,14.5180107421875,-0.973100351512432,0.6992600295007229,-1.1902315288305283
1772790954764043800,14.538043701171874,-1.1559691937446595,0.2899801404297352,-0.7019394778430461
1772790954784076800,14.558076904296875,-0.8600584942221641,0.06539221736490726,-0.3113280488848686
1772790954804109800,14.57810986328125,-0.5715246070779859,0.17779460770785807,-0.20911270603537557
1772790954824142600,14.598142578125,-0.4314801765717566,0.5258499204874039,-0.5071124867916107
1772790954844174600,14.618174560546874,-0.3372656232178211,1.1655091755062341,-1.07513858422935
1772790954864208000,14.638207763671875,-0.2792014106534421,1.9022627770990133,-1.6590221760123967
1772790954884240600,14.65824072265625,-0.3309386121533811,2.3976678749620914,-2.4282401233583686
1772790954904273700,14.678273681640626,-0.37634558771848675,2.7284108184129,-3.0848586964845657
1772790954924306700,14.698306640625,-0.28552739880457517,2.9627982509583233,-3.6044682612776753
1772790954944339700,14.718339599609376,-0.15172887695059178,3.0949709251761433,-3.8790041643381117
1772790954964372700,14.738372802734375,0.08276596149206161,3.3087025231838223,-4.118731788867712
1772790954984404700,14.75840478515625,0.47686581708788867,3.404070192095637,-4.354745945832133
1772790955004437800,14.778437744140625,1.0217781654417515,3.318309724962711,-4.58774689245522
1772790955024470800,14.798470703125,1.6089526154637335,3.2547201731055972,-4.516525238284468
1772790955044503800,14.81850390625,2.3494196846216915,3.677956106814742,-4.075888672441244
1772790955064536800,14.838536865234374,2.857276852300763,4.161311870443821,-3.4618811605513096
1772790955084569600,14.858569580078125,2.4572651423126457,3.951949573561549,-3.20583310033977
1772790955104601600,14.8786015625,1.5959353129804132,3.4464591350138187,-2.8880151049137113
1772790955124634600,14.898634521484375,1.0004185665488243,3.008601970756054,-2.3360808950990437
1772790955144667600,14.918667724609374,0.6119499948382378,2.5598311982959507,-1.7193758146882057
1772790955164700700,14.93870068359375,0.37773674981594085,2.3003274446725843,-0.9795172328174113
1772790955184733700,14.958733642578125,0.003567903348337859,2.1365403195291757,-0.2312842058330774
1772790955204765700,14.978765625,-0.5799883379101753,1.8572966771692037,0.2241559613883495
1772790955224798700,14.998798828125,-1.2149182263195515,1.453184546124935,0.540586886370182
1772790955244831700,15.018831787109375,-1.8876082288026808,0.854821762612462,0.8431815937012433
1772790955264864800,15.03886474609375,-2.323985383635759,-0.09019172757863998,1.3329884331658481
1772790955284897800,15.058897705078126,-2.4606790424093603,-0.7916606653004884,2.1301561714500186
1772790955304930600,15.0789306640625,-2.5029694933891293,-1.1240548830896615,3.1922669318020342
1772790955324963800,15.0989638671875,-2.4543209055542943,-1.2796020031541586,4.292112087264657
1772790955344995800,15.118995849609375,-2.357799828823656,-1.3813754474550486,5.349870497626066
1772790955365028600,15.139028564453126,-2.255955072852224,-1.4957196195155382,5.99394347743392
1772790955385061400,15.159061279296875,-2.25626618462801,-1.5925503467172384,6.189891581469774
1772790955405094700,15.1790947265625,-2.4127727973744273,-1.5901573141008614,5.88573561617136
1772790955425127400,15.19912744140625,-2.700418649637699,-1.4678554610341787,5.266592494958639
1772790955445159400,15.219159423828126,-2.8411680135428905,-1.368539346757531,4.5166962109372015
1772790955465192400,15.2391923828125,-2.7871465004980562,-1.2255331438362598,3.57994435313493
1772790955485225500,15.2592255859375,-1.9976830529808998,-1.1192845999479293,2.0952014701858164
1772790955505258500,15.279258544921875,-0.8320563885748385,-0.9009095600485801,0.6192822374224662
1772790955525291500,15.29929150390625,-0.2513840139232576,-0.8325000406891107,-0.5710857772693038
1772790955545324500,15.319324462890625,0.3579157586671412,-0.6254822611063718,-1.855035454238951
1772790955565357600,15.339357666015625,1.1883271565139293,-0.40436932067573067,-2.9449925451546908
1772790955585389600,15.3593896484375,1.0574036055743694,-0.7142448326647282,-1.980406924009323
1772790955605422600,15.379422607421875,0.28494039269685745,-1.201257949757576,-0.6109066232651472
1772790955625455600,15.39945556640625,-0.16924495215788482,-1.0126520251780748,0.4960518713340163
1772790955645488400,15.41948828125,0.5084580561816692,-0.12933540496528148,0.8584688869431615
1772790955665521700,15.439521728515626,2.6606571326136588,0.857376707792282,0.6795137110233307
1772790955685553700,15.4595537109375,4.966297881263494,0.8848141652941703,1.530901407533884
1772790955705586400,15.47958642578125,6.207030932319164,-0.06306465120017528,2.3716434991285205
1772790955725619500,15.499619384765625,6.516959635800123,-0.9943529828995465,2.8835242232352494
1772790955745652500,15.519652587890626,5.510630383902788,-1.9699656094938516,3.0609844844222067
1772790955765685500,15.539685546875,4.511849647688865,-1.889413232398033,3.475066805338859
1772790955785718500,15.559718505859376,3.46184258210659,-0.5102677359521389,4.165216768927872
1772790955805750500,15.57975048828125,1.8670517629861831,0.7200748539924621,4.583062534031272
1772790955825783600,15.599783447265626,0.15247253492474555,1.3294476918190716,4.760543253484368
1772790955845816600,15.619816650390625,-1.2911338893853128,0.9949152929574251,5.228827704709768
1772790955865849600,15.639849609375,-1.6532723803140221,0.7357160752385854,5.80264933668375
1772790955885882600,15.659882568359375,-1.7477287795998155,0.4116401884615421,5.975242868617177
1772790955905915400,15.679915283203124,-1.6739770224295556,0.259582664078474,5.748935282152891
1772790955925947400,15.699947509765625,-1.7176143579736352,-0.02208674412369728,5.05056547949016
1772790955945980700,15.719980712890624,-1.8817690012551842,-0.20575053612589836,4.326389912180602
1772790955966013400,15.740013427734375,-2.4405298422195014,-0.3250286574572325,3.2291336041674015
1772790955986046500,15.76004638671875,-2.7939164330244064,-0.4722936868667602,2.169796107921004
1772790956006079500,15.78007958984375,-2.6805378911256788,-0.46801907828748224,1.2419082323148847
1772790956026112500,15.800112548828125,-2.395155746010691,-0.41121114939451214,0.5043792624354362
1772790956046144500,15.82014453125,-2.1572961073100565,-0.21753332837820052,-0.18019523910880086
1772790956066177500,15.840177490234375,-2.08601380899325,0.18758184222877025,-1.070123386415839
1772790956086210600,15.86021044921875,-2.1771217746339735,0.5860778869569301,-2.0889310116142035
1772790956106243600,15.88024365234375,-2.056320973780006,1.2565852847039698,-2.55653157222867
1772790956126276600,15.900276611328126,-1.8550199644088745,1.9075030158400534,-2.7445938914507626
1772790956146309600,15.9203095703125,-1.7647966726481914,2.090257876303792,-2.810397612226009
1772790956166342400,15.94034228515625,-1.6785329321682452,2.1294348714381455,-2.487211367765069
1772790956186374400,15.96037451171875,-1.5793429284892975,1.9219155720740555,-1.7489122902959584
1772790956206407400,15.980407470703126,-1.638772438057512,1.3337357444018125,-1.0614116721719502
1772790956226440400,16.0004404296875,-1.4518389767348765,0.8855126689523458,-0.2627478501111269
1772790956246473500,16.020473388671874,-1.2229171161189674,0.36032033559083937,0.7086404367864132
1772790956266506500,16.040506591796873,-0.8988342150792479,0.015842881298065183,1.6388626005589961
1772790956286539500,16.06053955078125,-0.583519142384827,-0.299620659956336,2.1970693147718907
1772790956306571500,16.080571533203123,-0.45419425881355996,-0.5140741424977779,2.4737659029975534
1772790956326604500,16.1006044921875,-0.33345570954084397,-0.4164233310848474,2.5636566018030047
1772790956346637600,16.120637451171874,-0.4819076106473803,-0.3595949439257383,2.290203525543213
1772790956366670600,16.140670654296876,-0.9510247133046388,-0.06465922691524029,1.7802736432433128
1772790956386703600,16.16070361328125,-1.6565423418954013,0.4032622362166643,1.1585127407476306
1772790956406736400,16.180736328125,-2.4926646647349,0.8478770580410957,0.5544897395163774
1772790956426768400,16.200768310546874,-3.1141821138635275,1.2452116577744483,0.0728670832902193
1772790956446801400,16.220801513671876,-3.539326219281554,1.5026456193864344,-0.3382815222620964
1772790956466834400,16.24083447265625,-3.7156130527749656,1.5742583187013863,-0.7724749033153057
1772790956486867500,16.260867431640627,-3.6633030198231338,1.6278244891941547,-1.124255374097824
1772790956506900200,16.280900146484374,-3.067906392639875,2.217501861947775,-1.0912637896001338
1772790956526933500,16.30093359375,-2.1183390385366976,3.5415292822837827,-0.9762029937028884
1772790956546965200,16.32096533203125,-2.163013900434971,3.348427799850702,-2.014454739561677
1772790956566998500,16.34099853515625,-2.0334426408872006,2.723732889729738,-2.7956857807844875
1772790956587031300,16.36103125,-1.8128244982361792,1.9258634329169988,-3.255259686809778
1772790956607064600,16.381064697265625,-1.518131650070846,1.4306763617187737,-3.132973615834117
1772790956627097300,16.401097412109376,-0.798125769661367,0.973372738713026,-2.939168953567743
1772790956647130400,16.42113037109375,0.07006108595877886,1.1423796443313359,-2.8590029454410075
1772790956667165200,16.441165283203127,0.774106011648476,2.096609875679016,-3.025283640965819
1772790956687197400,16.461197509765626,3.0952769223853944,2.842813442662358,-4.118316193804144
1772790956707230200,16.481230224609376,6.64238634288907,2.885887445235252,-5.464421590435505
1772790956727263500,16.501263427734376,9.83493969041705,1.7607307383835316,-5.7851084192961455
1772790956747296300,16.521296142578127,10.400718301188945,0.14328735795021055,-5.033931740075349
1772790956767329500,16.54132958984375,8.284199609947205,-0.45286476377546786,-3.6587381961256265
1772790956787362300,16.5613623046875,4.9190252579569815,-0.31918694569170475,-1.6080115352213382
1772790956807394600,16.58139453125,1.6188742900192736,0.15195114139914512,0.3727916946291923
1772790956827427300,16.60142724609375,-1.0119996987491846,0.8514660224437713,1.9524495342865584
1772790956847460600,16.621460693359374,-2.878455541668832,1.3112357433021067,3.193481276027858
1772790956867493400,16.641493408203125,-3.8373753921374676,1.2740887926906346,4.000648138017953
1772790956887526400,16.6615263671875,-4.055265571129322,0.9275701879590749,4.296776279683411
1772790956907559400,16.681559326171875,-4.08472635115236,0.2885322797089815,4.264613839486241
1772790956927591400,16.70159130859375,-3.9210122912451624,-0.4382873723685741,4.091263643966615
1772790956947624400,16.72162451171875,-3.6059450558319686,-0.952193757084012,3.9236958312407135
1772790956967657200,16.7416572265625,-3.3787893281057473,-1.3049901269108055,3.552977435754239
1772790956987690500,16.7616904296875,-3.1948084329783915,-1.431705120244622,3.1235104987010356
1772790957007723300,16.78172314453125,-2.86320419652313,-1.330275374814868,2.517746499021351
1772790957027756500,16.801756591796874,-2.5985774007976055,-1.2574193974405525,1.8032862700402736
1772790957047789300,16.821789306640625,-2.0844714018568395,-1.0359323630005122,0.9400634665682911
1772790957067821600,16.841821533203124,-1.427104640711844,-0.8066238411545753,0.4888327337354421
1772790957087854300,16.861854248046875,-0.5151581383422017,-0.9859989960521459,-0.07888444388359785
1772790957107887600,16.8818876953125,0.18733809660077094,-1.1570762782037258,-0.12039455814063549
1772790957127920400,16.90192041015625,0.27156916220933197,-1.1968898176759482,0.06977028631865978
1772790957147953400,16.921953369140624,-0.26345366029292344,-1.041236314627528,0.5479971626266836
1772790957167986400,16.941986328125,-0.7756935731008648,-0.7662772177189588,1.2186685187637805
1772790957188018400,16.962018310546874,-0.6542106352016329,-0.1038373910933733,1.5536588905259965
1772790957208051500,16.982051513671873,0.21822423325181006,0.41858840016424653,1.1649217310070992
1772790957228084200,17.002084228515624,1.7100126507982611,0.2748772638440132,0.40595308273583647
1772790957248117500,17.022117431640623,3.4176024583637714,-0.10894026719033717,-0.11643296103328465
1772790957268150300,17.042150390625,4.475163884848356,-0.2548871997386217,-0.5412272301003337
1772790957288183600,17.06218359375,4.634522964416444,-0.15673896019756792,-0.7218351416632532
1772790957308215300,17.08221533203125,3.8796331098914143,-0.02972644522190094,-0.29443361270725726
1772790957328248600,17.10224853515625,2.4830825973972677,0.15444471178054808,0.4206953093156218
1772790957348281300,17.12228125,0.7395370948314667,-0.022273791128396985,0.9805708335235714
1772790957368313900,17.14231396484375,-0.5679249751508235,-0.28700141687989233,1.398489663863182
1772790957388347000,17.162346923828125,-1.4447057638540863,-0.40818332600593565,1.8236597805052994
1772790957408380000,17.1823798828125,-2.186377824887633,-0.45515550506114955,2.01696643012166
1772790957428412000,17.202411865234374,-2.7053298025548456,-0.48589668028354643,2.0522160226792097
1772790957448445000,17.22244482421875,-2.9894305295571684,-0.45769233006238935,1.880406919121742
1772790957468478000,17.24247802734375,-3.047199120175838,-0.31547640073597427,1.5585975159719585
1772790957488510700,17.2625107421875,-3.009998978072405,-0.1581646090865135,1.2749413178667426
1772790957508544000,17.2825439453125,-2.936254819686711,0.13544541227817536,1.0619164068236946
1772790957528576800,17.30257666015625,-2.842406907688081,0.6031564475297928,1.0667407582402229
1772790957548608800,17.32260888671875,-2.880867863507569,0.9038450289785861,1.037265949691832
1772790957568641800,17.342641845703124,-2.944594485747814,1.0400175864875316,1.0280392716631293
1772790957588674800,17.3626748046875,-2.9411846773043275,1.077085626643896,1.031368708346784
1772790957608707800,17.382707763671874,-2.915961096459627,1.0684598371177911,1.112749937482178
1772790957628740900,17.402740966796873,-2.9376833911851046,0.8627624924838543,1.1931854102000594
1772790957648774000,17.42277392578125,-3.067985303094983,0.6817968535244464,1.3824322630316017
1772790957668807000,17.442806884765623,-3.2640143634125587,0.4737392094999551,1.5097519442602991
1772790957688839000,17.4628388671875,-3.4803391927838323,0.21180209124982355,1.4269398055389522
1772790957708872000,17.482871826171873,-3.635209728761017,0.06918401086330414,1.4067825681731103
1772790957728905000,17.502905029296876,-3.800097508622706,0.13284838152229786,1.2604554041355847
1772790957748937700,17.522937744140624,-3.9943458230033513,0.24598785396814346,1.021411377955973
1772790957768971000,17.542970947265626,-4.153462910509109,0.44650341205000876,0.7547717811033129
1772790957789003800,17.563003662109374,-4.170821749328077,0.6674234602570533,0.4663108130648732
1772790957809035800,17.583035888671876,-3.986302801801264,0.8266542372703551,0.1838543461382389
1772790957829068800,17.60306884765625,-3.6191570041045544,0.9683768301218747,0.039303836384415626
1772790957849101800,17.623101806640626,-3.292046279676258,1.2231518016576766,0.07194178513884544
1772790957869134800,17.643134765625,-3.141207483433187,1.2182757200539112,-0.15195990922749042
1772790957889168000,17.66316796875,-2.9601705328032373,1.1375059008151291,-0.2107633958518505
1772790957909201000,17.683200927734376,-2.680278363406658,1.0349164639562367,-0.1429495042979717
1772790957929233000,17.70323291015625,-2.291781588514894,0.8989975889474153,-0.09898176775574684
1772790957949266000,17.723265869140626,-1.9077508531212806,0.8775088107168674,-0.08576572782993316
1772790957969299000,17.743298828125,-1.45998735800758,0.9146943397730588,-0.1371031163573265
1772790957989332000,17.76333203125,-1.0568879111371934,0.9512263733565807,-0.2605816119879484
1772790958009364700,17.78336474609375,-0.7243185559768229,1.027918567892909,-0.36751813814044
1772790958029398000,17.80339794921875,-0.43384149887561796,0.9679033673912286,-0.5208236167579889
1772790958049430000,17.823429931640625,-0.024231939458847045,0.9470230764478444,-0.6553162583559751
1772790958069462800,17.843462890625,0.3857107974350452,1.0426438433378935,-0.7067594453454017
1772790958089495800,17.863495849609375,0.6915022549808025,1.0582231052637099,-0.8158604560554027
1772790958109528800,17.88352880859375,1.0029285035431383,1.0770675064653157,-0.9516010518878698
1772790958129561900,17.903561767578125,1.3371347391903399,1.1767986312836407,-0.9312976840496062
1772790958149595000,17.923594970703125,1.6571370929181575,1.2342641473025082,-0.9877186594516039
1772790958169627000,17.943626953125,1.7399772886902092,1.2719804222345352,-1.0237158555060624
1772790958189660000,17.963659912109375,1.6404975082844495,1.359184658434987,-1.1319359917283058
1772790958209693000,17.98369287109375,1.2408768434405326,1.4047557385206222,-1.2143325353860854
1772790958229726000,18.003725830078125,0.7256184595942496,1.5585972237110137,-1.2582850743591785
1772790958249759000,18.023759033203124,0.27982582616209983,1.6042735177367924,-1.2439695487588642
1772790958269791700,18.043791748046875,0.013718728750944136,1.6653426112055778,-1.4527730427145957
1772790958289823700,18.06382373046875,0.11996961072683333,1.7843991987407206,-1.4585545487254856
1772790958309856800,18.083856689453125,0.26455460727214813,1.8994570720285175,-1.4572294376015662
1772790958329889800,18.103889892578124,0.6713701520562172,1.8917343688219785,-1.2484767970502375
1772790958349922800,18.1239228515625,1.303544019755721,1.613482075586915,-1.103731056985259
1772790958369956600,18.14395654296875,2.3386913698583838,1.256307052284479,-0.9708429279744625
1772790958389989400,18.1639892578125,3.1374124750643966,0.7752069586277007,-1.015937622720003
1772790958410021600,18.184021728515624,3.835395908758044,0.3747439977407455,-1.183042494109273
1772790958430054400,18.204054443359375,4.50346701926887,0.6148223354041576,-0.9372896179407835
1772790958450087400,18.22408740234375,4.612506655180454,0.3488905945599079,-0.6725263363540173
1772790958470120400,18.244120361328125,3.998883758693933,0.07349076814651488,-0.22804887717366218
1772790958490153500,18.264153564453125,3.124476421123743,0.0645756402850151,0.19847733025252817
1772790958510186500,18.2841865234375,2.0526444772243497,0.3576695288211107,0.48126726691722865
1772790958530219500,18.304219482421875,0.9862298821985721,1.025348425143957,0.5154612129420042
1772790958550251500,18.32425146484375,-0.12617372606396673,1.9077409162491559,0.1886123543202877
1772790958570284300,18.3442841796875,-1.1950475508101284,2.8960534499406814,-0.501770541241765
1772790958590317600,18.364317626953124,-2.048747031394392,3.541306579443812,-1.53368782338202
1772790958610350300,18.384350341796875,-2.747748263828456,3.5773066981077193,-2.824605001276731
1772790958630383600,18.404383544921874,-2.963139904002845,3.3283611633777617,-3.90726170605123
1772790958650416400,18.42441650390625,-2.9222914685249326,2.79124282990098,-4.709204111391306
1772790958670448600,18.44444873046875,-2.6648949163138864,2.2479542833566666,-5.095911518648267
1772790958690481400,18.4644814453125,-2.410398761719465,1.797384352520108,-5.058294027915597
1772790958710514400,18.484514404296874,-2.3592533886328337,1.2758750915855168,-4.939146839487552
1772790958730547500,18.50454736328125,-2.2231726010605692,1.0917547879874705,-4.676958376824856
1772790958750580500,18.52458056640625,-2.0502593356534837,1.0986895556867122,-4.457460470375419
1772790958770613500,18.544613525390623,-2.0135950539924203,1.0691039802402258,-4.284275986811519
1772790958790645200,18.564645263671874,-1.8655016109347342,1.1289414860874414,-3.943171223822236
1772790958810678500,18.584678466796873,-1.7031129544124006,1.0564163481026887,-3.4421190599828955
1772790958830711300,18.604711181640624,-1.3105296408593654,1.0542425111949443,-2.8359435568928717
1772790958850744600,18.62474462890625,-0.9501428159035742,1.05773795209527,-2.0742980906277895
1772790958870777300,18.64477734375,-0.7461676188871263,1.0358160431444645,-1.2899679143458604
1772790958890810400,18.664810302734374,-0.6104582949757575,1.0639648637861012,-0.4405477185159921
1772790958910842400,18.68484228515625,-0.2866366752207279,1.0501350758761168,0.3712199152678251
1772790958930875600,18.704875732421876,-0.032229367953538895,1.0052654220581054,1.2377680637702344
1772790958950908400,18.724908447265626,0.14991349809169768,0.5865197855055332,1.9551298594117164
1772790958970941400,18.74494140625,0.5604173759996891,0.11618658505678177,2.653984230720997
1772790958990974500,18.764974365234377,1.1983375322662293,-0.41780338726639743,3.21169906976372
1772790959011007500,18.785007568359376,1.692688883292675,-1.088079898867011,3.589049450610578
1772790959031039500,18.80503955078125,2.3821359593093394,-0.67735156455338,4.520367885187268
1772790959051072300,18.825072265625,2.83247734208703,0.7656395043373108,5.494872258278727
1772790959071105500,18.84510546875,2.2963702314794063,0.9968220033615827,5.436620560318231
1772790959091138300,18.86513818359375,1.675142705208063,0.5356862548470497,5.092487973940372
1772790959111171600,18.885171630859375,1.3868915805280209,-0.09262275411784648,5.0892771952003235
1772790959131204400,18.905204345703126,1.3033809381484984,-0.6267635330885648,5.107290406274795
1772790959151236600,18.925236572265625,0.9167780872445553,-1.1723065805613995,5.085822670832276
1772790959171269400,18.945269287109376,0.5860065022211521,-1.459962077435851,5.145304787370562
1772790959191302700,18.965302734375,0.3889945683460682,-1.6126806960761546,4.951805245530605
1772790959211335400,18.98533544921875,0.21868943961076437,-1.576383055770397,4.548773310938477
1772790959231368400,19.005368408203125,0.007214096097275614,-1.5342799440562724,3.990223482376337
1772790959251401500,19.0254013671875,-0.1852138709884137,-1.2458411878496407,3.6274712434634564
1772790959271433500,19.04543359375,-0.5257003559488803,-1.1472983960330485,3.2479698220625517
1772790959291466500,19.065466552734375,-1.122059836814925,-1.9048358424574137,2.603122643011808
1772790959311499500,19.08549951171875,-1.1471896018963306,-1.7922405598908662,2.635275730858743
1772790959331532500,19.105532470703125,-1.1284743800323456,-1.8381389722347259,2.096492679040134
1772790959351565300,19.1255654296875,-1.204507818398997,-1.7765034770548342,1.581577117282152
1772790959371598800,19.145598876953127,-1.1173568467557429,-1.3173662088811398,1.2314663332775235
1772790959391632000,19.1656318359375,-0.9964098423641174,-0.4042652757793665,1.0244719345703721
1772790959411664000,19.185663818359377,-0.8569242878496647,1.074237835997343,0.894451177689433
1772790959431696600,19.205696533203124,-1.0312135177850723,1.747736232253909,0.5700342223897576
1772790959451729700,19.225729736328127,-1.2683973030507565,2.203319607338309,0.9128069185912608
1772790959471762700,19.2457626953125,-1.428510708117485,2.1074843209147454,1.4072078078478574
1772790959491795700,19.265795654296873,-1.2949123850107191,1.7220640308588742,1.7913655306220053
1772790959511828700,19.285828857421876,-1.2020856327533722,1.080727782538533,2.194393958082795
1772790959531860700,19.30586083984375,-1.1151530531011522,0.7024959426820278,2.650078747715056
1772790959551893800,19.325893798828126,-1.3735796790122985,0.3616121289670467,2.9741186863958835
1772790959571926800,19.3459267578125,-1.673051139756292,0.2537286773532629,3.067770783561468
1772790959591959800,19.365959716796876,-1.8658958709493279,0.46232408151626586,2.958874355512857
1772790959611992800,19.385992919921875,-2.070468010945618,0.9469055875480175,2.574814247894287
1772790959632025600,19.406025634765626,-2.3055217984452843,1.672367979797721,1.9352642984688282
1772790959652057600,19.4260576171875,-2.571337803955376,2.5076041674524543,1.0757125847250222
1772790959672091000,19.4460908203125,-2.836891943658888,3.235817319715023,-0.06075812782347202
1772790959692123600,19.46612353515625,-3.0695047677472234,3.6257249843180177,-1.2022300096601246
1772790959712156700,19.48615673828125,-3.0677266521587967,3.8965187782406803,-2.3061779242664575
1772790959732189700,19.506189697265626,-3.004425561854243,4.152545211142301,-3.14620952950418
1772790959752222700,19.52622265625,-2.8067139552772042,4.33996221819818,-3.997437067016959
1772790959772255700,19.546255859375,-2.464689154833555,4.412848882971704,-4.685471353626251
1772790959792287700,19.566287841796875,-2.0572588391520084,4.462617122486233,-5.188849914586544
1772790959812320800,19.58632080078125,-1.5623603756368158,4.177960222905874,-5.7284220709562295
1772790959832353800,19.606353759765625,-0.9054886314671486,4.027044854295253,-6.157594408977031
1772790959852386800,19.62638671875,-0.46711372694559394,3.881374108339846,-6.607127982503175
1772790959872419800,19.646419921875,-0.04161445141434669,3.9473450023755428,-6.934252735456824
1772790959892451800,19.666451904296874,0.21592702569272368,4.120555497163534,-7.0114932115256785
1772790959912484600,19.686484619140625,0.20169278516769407,3.7129178223416206,-7.129408227810263
1772790959932518000,19.706517822265624,0.7707727755725383,3.4918908066287635,-6.7369695834249255
1772790959952550700,19.726550537109375,1.41134330021739,3.2194708728089925,-6.355518781521916
1772790959972583700,19.746583740234374,1.7626479701817035,3.0394480676576494,-6.042447103840113
1772790959992616700,19.76661669921875,1.8245944310069082,3.014136516268551,-5.66005054551959
1772790960012649700,19.786649658203125,1.521641411757469,3.4961873347789045,-4.902925187027454
1772790960032681700,19.806681640625,0.9553881692111491,4.441739754152298,-3.8318478608876463
1772790960052714800,19.82671484375,0.5902560128917917,6.377066011941433,-2.4039877256333826
1772790960072747800,19.846747802734374,-0.1076584106862545,8.259531032636762,-1.2820283535182475
1772790960092780800,19.86678076171875,-1.3171651333510874,9.195497293019294,-0.4025134636759758
1772790960112813800,19.886813720703124,-2.5093536414682864,9.005204438266158,0.7697025159925222
1772790960132846800,19.906846923828127,-3.1463164970099924,8.738953548470139,2.6676106050133703
1772790960152878800,19.92687890625,-3.65852601467967,8.0107216915071,4.732380404317379
1772790960172911600,19.94691162109375,-3.9234567617878318,7.165556815034151,7.1829065937638275
1772790960192944600,19.966944580078124,-4.058949228078126,5.843320954290032,9.358582991895078
1772790960212977700,19.986977783203123,-4.308544751149416,3.907267551270127,11.05874031137228
1772790960233008600,20.007008544921874,-4.035354709739983,2.0302105270981787,12.114807699906825
1772790960253041000,20.027041015625,-3.2287855213820933,-0.016555998003482817,12.257981660610437
1772790960273073700,20.04707373046875,-1.9747627806425094,-1.6267267570853232,12.179471018475294
1772790960293106700,20.067106689453126,-0.7267103464841842,-2.8939883341044186,11.881260809838771
1772790960313139700,20.0871396484375,0.6527928773581981,-3.5432203041106463,10.660960305958985
1772790960333172700,20.1071728515625,2.4003555066108704,-3.8445278942406174,8.75357302545309
1772790960353205800,20.127205810546876,4.0433506769299505,-3.964400474333763,7.147718960526585
1772790960373237500,20.147237548828127,4.939900288203359,-3.87749668238461,5.9921712070643895
1772790960393270500,20.1672705078125,5.041209622123837,-3.5635569896966217,5.485138799771666
1772790960413303600,20.187303466796877,4.311903998449445,-2.990231616806984,5.37679299134314
1772790960433336600,20.207336669921876,3.253588538727164,-2.123019743698835,4.87276531882435
1772790960453369600,20.22736962890625,2.2913643860161304,-1.240741818884015,4.146623127616942
1772790960473402600,20.247402587890626,1.396917299979925,-0.389167075368762,3.165100107935071
1772790960493435600,20.267435546875,0.526584006915614,-0.00492518144249916,2.1733798116266727
1772790960513467600,20.287467529296876,0.019211992404982448,0.25929391026496884,1.3534541519589722
1772790960533500700,20.307500732421875,-0.32982918960675595,0.45604397833347315,0.5174770828090608
1772790960553533400,20.327533447265626,-0.2110989114165306,0.658932695287466,-0.08802169006317853
1772790960573566700,20.347566650390625,0.4705693472921848,1.3567132998853921,-0.9670064185515046
1772790960593599500,20.367599609375,0.6018807285055517,1.8190169231355189,-1.4658549348667262
1772790960613632800,20.3876328125,1.2731073804378508,2.5104952127188445,-1.42011785056442
1772790960633664500,20.40766455078125,3.5714112103283404,2.9004397022008894,-4.024672864466905
1772790960653698600,20.427698486328126,5.701306100493669,2.632709387502074,-6.690686555677652
1772790960673731600,20.447731689453125,5.970500642526149,1.7462597299605607,-6.259104818427562
1772790960693764600,20.4677646484375,3.949967459833622,0.5638660551488399,-3.566409748779237
1772790960713797600,20.487797607421875,1.363377433949709,-0.39332594861388204,-1.8027672146022318
1772790960733830700,20.50783056640625,-0.3975346523500979,-0.8958405862212181,-0.9383066860288382
1772790960753862700,20.527862548828125,-1.6191420010447501,-0.9093816203176974,-0.6597045564427971
1772790960773895400,20.5478955078125,-2.531557289969921,-0.6359878730297088,-1.0428916806191206
1772790960793928700,20.5679287109375,-2.9252383356317875,-0.17335457943379878,-1.608093952807784
1772790960813961500,20.58796142578125,-3.11465353076756,-0.14272270980477333,-2.241568673972785
1772790960833994800,20.607994873046874,-2.632259890168905,0.07492109321057797,-1.9061840421959757
1772790960854027500,20.628027587890625,-1.9295637487396597,-0.10829495502412319,-1.0810367023572325
1772790960874060500,20.648060546875,-0.8726166547611355,-0.46691608548164365,0.6273454246297478
1772790960894092500,20.668092529296874,0.20178397058248518,-0.13520692734718323,2.543435651551187
1772790960914125600,20.68812548828125,1.0326303988456726,0.6175719263732433,3.392031379255652
1772790960934158600,20.70815869140625,0.8259878823161124,0.8334083877056837,2.9071400766223667
1772790960954191600,20.728191650390624,0.5543078070782125,1.0652250929802656,2.299503853330016
1772790960974224600,20.748224609375,0.40541956038102506,1.234939854606986,2.2355963215649126
1772790960994257700,20.768257568359374,-0.015196838479489088,1.2512217118442057,2.4170891992688177
1772790961014289700,20.78828955078125,-0.7291863812088966,1.1699077027261255,2.5217574882283804
1772790961034322400,20.808322509765624,-1.613636973887682,0.8619009072184562,2.296834634120762
1772790961054355700,20.828355712890627,-2.2375953864276408,0.5259960509598255,1.7362135522425173
1772790961074388500,20.848388427734374,-2.1689622874453662,0.5669090761065483,0.9722907886952161
1772790961094421500,20.86842138671875,-1.1376450170248746,0.8838906207084655,-0.40395167978554963
1772790961114454500,20.88845458984375,0.5699006591379642,1.1885334927409887,-1.6516875953406094
1772790961134486800,20.90848681640625,1.9101357024312018,0.9304360987842082,-2.019953921499848
1772790961154519600,20.92851953125,2.479503277605772,0.23292495877742767,-1.7444646632373333
1772790961174552600,20.948552490234373,2.475563600069284,-0.515582793495059,-1.2345061393648384
1772790961194585600,20.968585693359376,2.0120750048182905,-0.8300491404056548,-1.2555606178313492
1772790961214618600,20.98861865234375,1.5503602873720228,-0.8261755138427018,-1.8744851278573273
1772790961234651600,21.008651611328126,1.1448016107812524,-0.4756424127727747,-2.014661660310626
1772790961254683400,21.028683349609373,0.6561363425672054,0.33480478606224057,-1.6308511435389519
1772790961274716700,21.048716552734376,0.0745021371461451,1.0382628517746926,-1.4898223781704902
1772790961294749400,21.06874951171875,-0.4975425482831895,1.4566326407521961,-0.8546288703888654
1772790961314782700,21.08878271484375,-0.9403563120350241,1.1632131735235451,-0.4101455659896135
1772790961334815500,21.1088154296875,-1.174157469125092,0.7530325362205504,0.0209790751427412
1772790961354848500,21.1288486328125,-1.327487936053425,0.2613403214007616,0.36560265990793706
1772790961374882000,21.148882080078124,-1.2867479293860495,-0.20536533620059488,0.8327741814553737
1772790961394913800,21.168913818359375,-1.33541858292222,-0.6205331142663956,1.2859729994907974
1772790961414947000,21.188947021484374,-1.3504467868365346,-0.7676309704154729,1.5998603774696587
1772790961434979800,21.208979736328125,-1.3200447804406283,-0.5912544128119945,1.6376178611949086
1772790961455013000,21.22901318359375,-1.198591068635881,-0.2752361602842808,1.2658476185679435
1772790961475046000,21.2490458984375,-0.992069255876541,-0.04149345538318157,0.6700017863124609
1772790961495079200,21.2690791015625,-0.8071256531968712,0.1416746620565653,0.09726444244384765
1772790961515111000,21.28911083984375,-0.7992600343883037,0.35877778232395646,-0.3467816395819187
1772790961535144200,21.309144287109376,-0.7732436957307159,0.6296382117420435,-0.5948229189485311
1772790961555177000,21.329177001953123,-0.8893329578928649,0.921115312731266,-0.8142179495453834
1772790961575210000,21.3492099609375,-1.0651520277440547,0.993915760526061,-1.0666460656940937
1772790961595243000,21.369242919921874,-1.245522769550234,1.0819003334492445,-1.3056640806496143
1772790961615275800,21.38927587890625,-1.274076809991896,1.0554238299340009,-1.5499024606019258
1772790961635308000,21.40930810546875,-1.08113431751281,0.8616460556745529,-1.887882369568944
1772790961655340800,21.4293408203125,-0.7489221782922745,0.715095312014222,-1.7908914833694696
1772790961675374000,21.4493740234375,0.013396949450671672,1.5884417423546313,-1.072779453882575
1772790961695406800,21.46940673828125,0.44969256348013875,2.3942384850353,-0.934127354517579
1772790961715440000,21.489440185546876,-0.19185294367671013,2.50966343806982,-1.3051613918244838
1772790961735473000,21.509472900390627,-0.8884791175425052,2.64207868887186,-1.506041107043624
1772790961755505200,21.529505126953126,-1.119640135387331,2.5871447371572254,-1.6988164262622594
1772790961775538000,21.549537841796877,-1.1700739992037414,2.226547922712564,-2.108470993864536
1772790961795571200,21.5695712890625,-1.0571978538691997,1.7504636113911867,-2.408177578538656
1772790961815604000,21.58960400390625,-0.8070239463880657,1.2036790394246577,-2.5963018570810554
1772790961835637000,21.609636962890626,-0.07410334708690643,0.6913251448482275,-2.720271351099014
1772790961855670000,21.629669921875,0.9467312538944184,0.2843786671608686,-2.6233184588223692
1772790961875702000,21.649701904296876,1.7194072327397762,-0.2878273463100195,-2.24354640378654
1772790961895735000,21.669735107421875,2.3423662589788434,-0.8142033364981413,-1.503487915429473
1772790961915767800,21.689767822265626,2.676177357828617,-1.2524860326915979,-0.8097598010927438
1772790961935801000,21.709801025390625,2.6807833903193474,-1.4067676628649235,-0.1284890172690153
1772790961955833900,21.729833740234376,2.3384254123985766,-1.3260533732056616,0.5563415048629046
1772790961975867100,21.7498671875,1.7192343603909015,-0.8499170394361019,1.421751881507039
1772790961995899000,21.76989892578125,0.8254489531338214,-0.35894437106251714,2.2079668486222626
1772790962015932200,21.78993212890625,0.06492752246260643,0.006027005204558372,2.722886794294417
1772790962035965000,21.80996484375,-0.6151297939181327,0.09328735550642013,2.9118139136523005
1772790962055998200,21.829998291015624,-1.2244975171782075,-0.09275660963058471,2.733440337012708
1772790962076031000,21.850031005859375,-1.626728072259575,-0.3592547521859407,2.4310604414761063
1772790962096064000,21.87006396484375,-1.8358803796529768,-0.5912836389064788,1.909227063153684
1772790962116096000,21.890095947265625,-1.7994981298036872,-0.8184972342997789,1.2061167879655956
1772790962136129000,21.91012890625,-1.553694400230795,-0.868966023299098,0.5709679961085319
1772790962156162000,21.930162109375,-1.219894845688343,-0.9516934063464403,0.06492547663599252
1772790962176194800,21.95019482421875,-0.8201919093884528,-0.9708914432913064,-0.40078707827478643
1772790962196228000,21.97022802734375,-0.4391700004220009,-0.9464829782217741,-0.7568401118099689
1772790962216260900,21.9902607421875,-0.0727509095646441,-0.8418944765001535,-1.1188882941067217
1772790962236293000,22.010293212890623,0.09292239465154707,-0.7148767008274793,-1.2253826294496655
1772790962256326000,22.030325927734374,0.1152653054933995,-0.6105547410875558,-1.1724795990407466
1772790962276359200,22.050359130859373,-0.08982581687569617,-0.4267296210438013,-0.954595849789679
1772790962296392000,22.070391845703124,-0.21413732926435766,-0.18222937528491018,-0.5135697001069783
1772790962316425000,22.090425048828124,-0.052230537974834436,-0.051124038037657735,-0.15003800125420091
1772790962336458000,22.1104580078125,0.5468458736997097,-0.04476034822463989,0.2524494511976838
1772790962356490000,22.130489990234373,1.3786369624018668,-0.12933482044339178,0.6328545434400439
1772790962376522200,22.150522216796876,2.0408885729789734,-0.3349474094033241,0.835334387332201
1772790962396555500,22.170555419921875,2.567969496566057,-0.6722907740324735,1.0102037552431224
1772790962416588300,22.19058837890625,2.990049830499291,-1.0673545062243939,1.0391042710348963
1772790962436621300,22.210621337890625,3.199531369847059,-1.4060066153645514,1.0165972556725145
1772790962456654300,22.230654296875,3.1471915262788532,-1.6701374442666768,1.2102151631951332
1772790962476686300,22.250686279296875,3.0356846234709023,-1.1675059022814034,1.8843439663097261
1772790962496719400,22.27071923828125,2.626422854578495,-0.007587678650021553,2.5740052695989606
1772790962516752100,22.290752197265626,1.7530407684028149,1.0944710612088442,3.024267449660599
1772790962536785400,22.310785400390625,0.7374351541161537,1.9498527957916258,3.3419650335773823
1772790962556818200,22.330818115234376,-0.2805939609903842,1.9182851066172122,3.4807658937633037
1772790962576850400,22.350850341796875,-0.9537010929070413,1.3963017984300852,3.4184660894557832
1772790962596883200,22.37088330078125,-1.3570447237968444,0.3536988716244697,3.1801401484176512
1772790962616916500,22.39091650390625,-1.4491758950054645,-0.3480804472208023,3.244306331118941
1772790962636949200,22.41094921875,-1.393069976902008,-0.7069850707948208,3.229728355190158
1772790962656982500,22.430982421875,-1.291637893384695,-0.590830049920082,2.797831560641527
1772790962677015300,22.451015380859374,-1.0409608586870134,-0.3106599403649568,2.0560767897605894
1772790962697047300,22.47104736328125,-0.5817630924977362,-0.14797697707116603,1.3877034814327955
1772790962717080300,22.491080322265624,-0.11248787666931748,-0.0472737923502922,0.8104080358684063
1772790962737113300,22.51111328125,0.08264657289609313,-0.15415946509838102,0.36781039908528324
1772790962757146400,22.531146484375,0.09631400985121727,-0.4384153826624155,0.311470964486897
1772790962777179100,22.55117919921875,0.18877485140562056,-0.571010666206479,0.18824585909545422
1772790962797212400,22.57121240234375,0.29963498074263334,-0.40012160010337827,-0.06476005694121122
1772790962817244400,22.591244384765623,0.14017434049621225,0.029025018954277036,-0.33604484925121064
1772790962837277400,22.61127734375,-0.21138196614161134,0.671642539256811,-0.49972822175920006
1772790962857310200,22.631310302734374,-0.4488542129598558,1.2678992904007433,-0.9385796577513217
1772790962877343500,22.651343505859376,-0.42840559143200513,1.4701888724178076,-1.2230208687543869
1772790962897376300,22.671376220703124,-0.3594508592799306,1.3567372652828693,-0.953702408081293
1772790962917409500,22.691409423828127,-0.5534057436719536,0.8984598288089036,-0.3964391121983528
1772790962937441300,22.711441162109374,-0.8873217642009258,0.26393852120041844,0.18581950873136518
1772790962957474600,22.731474609375,-1.32440166047588,-0.13857903412878514,0.703247053310275
1772790962977507300,22.75150732421875,-1.7254805613040922,-0.2289852812409401,1.232716917860508
1772790962997540400,22.771540283203127,-2.1065791887685656,-0.10665478660166262,1.6376736830353735
1772790963017573400,22.791573486328126,-2.345901739628613,0.09727847096920013,1.6114216359257698
1772790963037606100,22.811606201171877,-2.3636346724569797,0.39342064116001124,1.1082453195393085
1772790963057638400,22.831638427734376,-2.245266359446943,0.7829939592421055,0.5001993464022875
1772790963077671200,22.851671142578127,-2.038067378078401,1.2900368879288435,-0.04962649295628071
1772790963097704400,22.871704345703126,-1.9667200517013668,1.718631133800745,-0.6282715995639562
1772790963117737200,22.8917373046875,-2.012188840456307,2.1484394316375255,-1.100180086505413
1772790963137770500,22.9117705078125,-2.1977289477244017,2.4256314021646976,-1.6196405982166528
1772790963157803300,22.93180322265625,-2.318010693140328,2.3904519522339105,-2.1320780794233083
1772790963177835500,22.95183544921875,-2.321293075811863,2.321828497862816,-2.375374794611335
1772790963197868300,22.971868408203125,-1.8427260077640413,2.8924720843225717,-2.134491570305824
1772790963217901600,22.991901611328124,-1.3617480791822074,3.8038574456781147,-2.041501151919365
1772790963237934300,23.011934326171875,-1.963866415835917,3.174488114005327,-3.0390456243366
1772790963257967400,23.03196728515625,-2.458411389738321,2.6850013002753257,-3.5253245819360015
1772790963278000400,23.05200048828125,-2.7002371555909512,2.2075381018161773,-3.8441625680595632
1772790963298032400,23.072032470703125,-2.6399492756277323,1.9995757348597047,-4.168910070487857
1772790963318065400,23.0920654296875,-2.329696162497997,1.8945663773775099,-4.356887634035945
1772790963338098200,23.11209814453125,-1.830956659515202,1.741924915626645,-4.615739061230421
1772790963358131500,23.13213134765625,-1.1570540663719178,1.6508856313079594,-4.8943157641142605
1772790963378164700,23.152164794921877,-0.5135875280246138,1.6113170065075157,-5.002035549598932
1772790963398197800,23.17219775390625,0.20866364709362387,1.506044614174962,-4.585010745489597
1772790963418229800,23.192229736328127,0.9598458792723715,1.3323691322237252,-3.6535219227820632
1772790963438262800,23.2122626953125,1.7665898396752773,1.0193722733438015,-2.589750535741448
1772790963458295800,23.2322958984375,2.533774966019392,0.775329708224535,-1.666744294697046
1772790963478328800,23.252328857421876,2.8549627301394938,0.4662573293119669,-0.83059917550385
1772790963498361900,23.27236181640625,2.700844181573391,0.15821896962225437,0.04649579371511936
1772790963518394600,23.29239453125,2.2951684544742106,0.2523316700369119,1.2633189768731594
1772790963538426600,23.312426513671873,1.7179028195261954,0.6345405968308448,2.407451017829776
1772790963558459600,23.332459716796876,1.0490741686463356,0.7430944950520992,3.2654680693522096
1772790963578492700,23.35249267578125,0.6859050194956362,0.6274620367467403,3.922777255091071
1772790963598525700,23.372525634765626,0.48132674201950426,0.30700901664197444,4.255284870126843
1772790963618558700,23.392558837890626,0.30794834331870075,-0.19502923562526703,4.12790089149028
1772790963638591700,23.412591796875,0.23005495629906653,-0.51209319781363,3.732404613099992
1772790963658623700,23.432623779296875,0.27409290853329,-0.7120663195818662,3.13069222689867
1772790963678656800,23.45265673828125,0.4044518113274127,-0.6932984907478094,2.5462743821084497
1772790963698689800,23.472689697265626,0.4784417611677199,-0.67416241312325,1.982037155559659
1772790963718722800,23.492722900390625,0.501591019956395,-0.5903741228461266,1.4824460041835903
1772790963738755600,23.512755615234376,0.6065348744543269,-0.47803135373592376,0.9547168458208442
1772790963758787600,23.53278759765625,0.7076583669465035,-0.3667413085490465,0.6827651140347123
1772790963778820900,23.55282080078125,0.8083902663052082,-0.565081860679388,0.6428901997640729
1772790963798853600,23.572853515625,0.9831821850657463,-0.8049369109809398,0.9171969702437519
1772790963818886700,23.59288671875,1.2551438537240027,-1.0450491509139537,1.1942471942126751
1772790963838919700,23.612919677734375,1.6445675342023371,-1.2510375874489545,1.3225368895173073
1772790963858952700,23.63295263671875,2.065949364477396,-1.2847481338709592,1.4854562919154763
1772790963878984700,23.652984619140625,2.394699672806263,-1.2735779205590485,1.7010004923030733
1772790963899017700,23.673017822265624,2.549915953481197,-1.241601650583744,1.8864809783384202
1772790963919050800,23.69305078125,2.514565238636732,-1.4066110109984873,1.8837600289419292
1772790963939083800,23.713083740234374,2.3489573278069495,-1.626318760806322,1.8438783926695583
1772790963959116800,23.73311669921875,2.103918737387657,-1.6820482468128204,1.9449016031250357
1772790963979149800,23.75314990234375,1.793783113157749,-1.4889005871504544,2.069915345498919
1772790963999181800,23.773181884765624,1.5971978802621363,-0.6863181303411722,2.4664514883309603
1772790964019214600,23.793214599609374,1.5316414122462272,0.7736953850209712,3.01259951595962
1772790964039248000,23.813247802734374,0.8469242873609065,1.585900241178274,3.06175225392431
1772790964059280600,23.83328076171875,0.037436288946866986,1.5219143834799527,2.8526465621516106
1772790964079313700,23.853313720703124,-0.36500820114612575,1.0911661744445562,2.841341908805072
1772790964099346700,23.8733466796875,-0.6840682325225323,0.3281330532133579,2.7429505081579086
1772790964119378700,23.893378662109374,-0.982090078980103,-0.4462450533747673,2.6930866993144154
1772790964139411700,23.91341162109375,-1.0701111114561557,-0.9604536359071731,2.6333915245473385
1772790964159444700,23.93344482421875,-0.7766368453003466,-1.1052911459088326,2.4292723890155554
1772790964179477800,23.953477783203127,-0.24058687170743942,-0.9268944806545972,2.216332233646512
1772790964199510800,23.9735107421875,0.11811784538030623,-0.7797182985723018,1.9205778937295077
1772790964219543800,23.993543701171873,0.3252550135590136,-0.504118565672636,1.9223130469590424
1772790964239575600,24.013575439453124,0.3181098179794848,-0.10647124672830104,2.2480171194598078
1772790964259608800,24.03360888671875,-0.24741554868370294,0.19719781183600424,2.820078756023943
1772790964279641600,24.0536416015625,-1.1323885578013957,0.23490707250535486,3.3403134669780727
1772790964299674600,24.073674560546873,-2.0146365258693693,0.23958266310095785,3.971550346088409
1772790964319707600,24.093707763671876,-2.807604182115197,0.02103752733170986,4.389453394336998
1772790964339740700,24.11374072265625,-3.4036160185873507,-0.0855856950879097,4.688444231957197
1772790964359772700,24.133772705078126,-4.015764750868081,-0.0002887538135051727,4.976439336049556
1772790964379805400,24.153805419921873,-4.716764317512512,0.1427104348450899,5.181747389104962
1772790964399838200,24.173838134765624,-5.425063393515348,0.3475432716041803,5.156759662842751
1772790964419871200,24.193871337890624,-6.0679030321359635,0.7894441582947969,5.07380431625843
1772790964439904300,24.213904296875,-6.683583445674181,1.2233324189215897,4.726855795677006
1772790964459936300,24.233936279296874,-7.184339256915449,1.6145979278743265,4.103897500090301
1772790964479969300,24.25396923828125,-7.477115750065446,2.0712954016804694,3.50362800617367
1772790964500002000,24.274001953125,-7.719550295466184,2.343004556882381,2.7529361878603695
1772790964520035300,24.294035400390626,-7.826293344873189,2.4994307978689667,1.9560455129519103
1772790964540068000,24.314068115234374,-7.927445442405342,2.8668174185842275,1.3676838989719748
1772790964560101400,24.334101318359377,-8.077662891879678,3.176839645567536,0.6913932416483759
1772790964580133000,24.354133056640624,-8.181471641400456,3.4830268244326112,0.19958909088671206
1772790964600166400,24.37416650390625,-8.045596021011471,3.7910973328262565,-0.14350129296183586
1772790964620199200,24.39419921875,-7.722058478894829,4.021166902172565,-0.4246458005070686
1772790964640232400,24.414232421875,-7.333341485381126,4.089498680120706,-0.8227537227004766
1772790964660265200,24.43426513671875,-6.8603884578228,4.157541119733453,-1.1644412540137767
1772790964680298200,24.45429833984375,-6.267794905361533,4.493269450381398,-1.2432850736260412
1772790964700330200,24.474330322265626,-5.721687794265151,4.74437011731863,-1.2321446709305048
1772790964720363300,24.49436328125,-5.266986462712287,4.7983735101848835,-1.2470371196359396
1772790964740396300,24.514396240234376,-4.794276888521015,4.829263738489151,-1.109346558779478
1772790964760429000,24.534428955078123,-4.330812697058916,4.8137347454458475,-0.8995739275306462
1772790964780462300,24.55446240234375,-3.8479537770360706,4.794890928766131,-0.5746083984375
1772790964800494000,24.574494140625,-3.3648896898299454,4.780235211426019,-0.20150749172866345
1772790964820527400,24.59452734375,-2.925183682835102,4.744572361892462,0.13560966292917728
1772790964840560000,24.61456005859375,-2.4733406633228063,4.646652085888386,0.32004794643521306
1772790964860593400,24.634593505859375,-1.9902040954023599,4.586280327033997,0.3964303443700075
1772790964880626200,24.654626220703125,-1.6518308032035827,4.498015768125653,0.2634486918568611
1772790964900659200,24.6746591796875,-1.496445011180639,4.41426488724947,-0.023256372424960134
1772790964920691200,24.694691162109375,-1.5395377184540033,4.561572586756944,-0.12809446499347685
1772790964940724200,24.71472412109375,-1.7707637643590568,4.856857847857475,-0.197796946772933
1772790964960757200,24.73475732421875,-1.6568591527596115,5.378121025076508,-0.4348948073208332
1772790964980790000,24.7547900390625,-1.2248363937437534,5.746559200671315,-1.039278166297078
1772790965000823300,24.7748232421875,-0.6400874173030257,5.945667814564705,-1.5693997727543114
1772790965020855300,24.794855224609375,-0.011539338885247706,5.914372512590885,-2.152793535193801
1772790965040888300,24.814888427734374,0.7019383087992668,6.117580378496647,-3.6103257551342245
1772790965060921000,24.834921142578125,1.974074359986931,6.302011647740006,-5.597202167418599
1772790965080954400,24.854954345703124,3.4918495978355404,5.9244835722386835,-7.438402865311503
1772790965100987100,24.874987060546875,4.35956299072504,5.526958418369293,-8.282164889249206
1772790965121020400,24.8950205078125,4.041027786940336,4.937497903236746,-8.591189337366819
1772790965141052200,24.91505224609375,3.7404701383948322,4.860643796136975,-8.362040974518656
1772790965161085200,24.935085205078124,3.835143979823589,4.699902322299778,-8.190871337908506
1772790965181118200,24.9551181640625,4.160925501474738,4.607022086289525,-7.983482386925816
1772790965201151200,24.975151123046874,4.520693463879823,4.250847179940343,-7.8811203290820115
1772790965221184300,24.995184326171874,4.846183893629909,3.8580996157363057,-7.395157013303041
1772790965241216300,25.01521630859375,4.807378069895505,3.667978318157792,-6.7075622871547935
1772790965261249300,25.035249267578124,4.086702327400445,3.989037487462163,-5.692855083012581
1772790965281282300,25.0552822265625,2.7635212947607037,4.940879362368584,-4.271540423879027
1772790965301315300,25.0753154296875,1.0080349598366767,6.05373480605185,-2.514281745520234
1772790965321348000,25.09534814453125,-0.715997083159536,6.7177522572576995,-0.5173994875282049
1772790965341381400,25.11538134765625,-2.0349955694176254,7.225563247707486,1.8082324942708015
1772790965361413000,25.1354130859375,-2.8170997402131555,6.7287061974704265,3.8358904142767187
1772790965381447000,25.155447021484374,-2.8352503139317036,5.474591102272272,5.801987657904625
1772790965401479700,25.175479736328125,-2.526827338838577,4.71937888392508,8.084703458040952
1772790965421513000,25.195512939453124,-2.607703541061282,3.39718277066946,9.951922394287585
1772790965441545700,25.215545654296875,-2.5788918725967407,1.6015554909497498,11.783410676461457
1772790965461578800,25.235578857421874,-2.530236270499229,-0.8690425956666469,12.568382657778262
1772790965481610800,25.25561083984375,-2.3902710427090526,-2.100981514891982,13.36159289060831
1772790965501643800,25.275643798828124,-1.9790603317059576,-3.717136024558544,11.61790564148426
1772790965521676800,25.2956767578125,-1.3909342800475657,-3.2703841907054185,10.131021070331334
1772790965541709600,25.31570947265625,-1.0588334922470153,-2.3958529344946147,8.596100490283966
1772790965561742800,25.335742919921874,-0.9162285636030137,-1.0958674840033054,6.909463746637106
1772790965581774600,25.355774658203124,-1.0630454108536243,0.010420271727442742,4.868138535806536
