time,seconds_elapsed,z,y,x
1772790940300359000,0.07435888671875,-0.09184147417545319,-0.1296072155237198,-0.05033823475241661
1772790940320392200,0.09439208984375,-0.1658753901720047,-0.06743316352367401,0.24530768394470215
1772790940340425000,0.114425048828125,-0.22125548124313354,0.05548476427793503,0.558617353439331
1772790940360458500,0.13445849609375,-0.23988375067710876,0.10596099495887756,0.8090373873710632
1772790940380490500,0.154490478515625,-0.19220131635665894,0.12175139784812927,0.8264780044555664
1772790940400523500,0.1745234375,-0.09389360249042511,0.025698602199554443,0.590126633644104
1772790940420556500,0.194556640625,-0.031573496758937836,-0.03586169704794884,0.11806058883666992
1772790940440589300,0.21458935546875,0.02106308378279209,-0.22687533497810364,-0.18755845725536346
1772790940460622600,0.23462255859375,-0.020161498337984085,-0.3170533776283264,-0.3379165530204773
1772790940480654600,0.254654541015625,-0.09419553726911545,-0.09308286756277084,-0.4256401062011719
1772790940500687600,0.2746875,-0.18143700063228607,0.153453528881073,-0.31566640734672546
1772790940520720400,0.294720458984375,-0.2531549632549286,0.23287685215473175,-0.031101947650313377
1772790940540753700,0.314753662109375,-0.2610247731208801,0.21441194415092468,0.28094905614852905
1772790940560786400,0.334786376953125,-0.21961195766925812,0.2334071397781372,0.47777360677719116
1772790940580818400,0.354818359375,-0.1421584039926529,0.1976655274629593,0.47006160020828247
1772790940600851500,0.3748515625,-0.13792133331298828,0.1157323569059372,0.32720205187797546
1772790940620884500,0.394884521484375,-0.26894012093544006,0.1217324510216713,0.04261226952075958
1772790940640917500,0.41491748046875,-0.4850115180015564,0.4008776843547821,-0.335038423538208
1772790940660950500,0.434950439453125,-0.7309603691101074,1.0638936758041382,-0.6299319267272949
1772790940680982500,0.454982421875,-1.0027978420257568,1.8258236646652222,-0.8135430812835693
1772790940701015600,0.475015625,-1.2359840869903564,2.5777974128723145,-0.9623674750328064
1772790940721048600,0.495048583984375,-1.434470295906067,3.189563751220703,-1.1410986185073853
1772790940741081600,0.51508154296875,-1.6796611547470093,3.727315664291382,-1.2928236722946167
1772790940761114600,0.535114501953125,-1.943445086479187,4.385900497436523,-1.3030219078063965
1772790940781146600,0.555146728515625,-2.1570281982421875,5.458192348480225,-1.072951078414917
1772790940801179400,0.575179443359375,-2.5358963012695312,6.696854114532471,-0.8126052021980286
1772790940821212400,0.59521240234375,-3.1205477714538574,7.83087682723999,-0.4418056011199951
1772790940841245400,0.615245361328125,-4.615879058837891,8.426137924194336,-0.2332807183265686
1772790940861278500,0.635278564453125,-6.475784778594971,8.0035400390625,-0.485360711812973
1772790940881310500,0.655310546875,-7.535269260406494,7.478837013244629,-0.6474267840385437
1772790940901343500,0.675343505859375,-7.280571937561035,7.517056941986084,0.13855749368667603
1772790940921376500,0.69537646484375,-6.728704929351807,6.599130630493164,1.1278345584869385
1772790940941409500,0.715409423828125,-6.5885796546936035,4.086940288543701,1.1916476488113403
1772790940961442600,0.735442626953125,-6.860013008117676,1.3046103715896606,0.6986566185951233
1772790940981474300,0.755474365234375,-7.33735466003418,-0.4407675266265869,0.2171212136745453
1772790941001507600,0.775507568359375,-7.651522159576416,-1.0520120859146118,-0.07845091819763184
1772790941021540400,0.795540283203125,-7.651461124420166,-1.0286377668380737,-0.1230185478925705
1772790941041573600,0.81557373046875,-7.245824337005615,-0.6414409279823303,-0.06638414412736893
1772790941061606400,0.8356064453125,-6.355529308319092,-0.05017949640750885,-0.09652093797922134
1772790941081638700,0.855638671875,-5.731160640716553,0.20074616372585297,-0.45807692408561707
1772790941101671400,0.87567138671875,-5.068974494934082,-0.31120455265045166,-1.1253011226654053
1772790941121704700,0.89570458984375,-3.857672929763794,-1.4895015954971313,-1.7480155229568481
1772790941141737500,0.915737548828125,-2.610722064971924,-2.866720676422119,-2.3485820293426514
1772790941161770500,0.9357705078125,-1.4924050569534302,-3.941333532333374,-2.5019795894622803
1772790941181802500,0.955802490234375,-0.7276129722595215,-4.423376560211182,-2.0615127086639404
1772790941201835500,0.97583544921875,-0.2808564603328705,-4.3337178230285645,-1.2965065240859985
1772790941221868500,0.99586865234375,0.005683946423232555,-3.765190839767456,-0.5396851301193237
1772790941241901600,1.015901611328125,0.24571797251701355,-2.777836561203003,0.017177104949951172
1772790941261934600,1.0359345703125,0.5034302473068237,-1.526546835899353,0.3177862763404846
1772790941281966300,1.05596630859375,0.7594367861747742,-0.2517077326774597,0.43460410833358765
1772790941301999600,1.07599951171875,0.9441143870353699,0.7973151206970215,0.44920629262924194
1772790941322032400,1.096032470703125,1.0490531921386719,1.4616549015045166,0.4841506779193878
1772790941342065700,1.116065673828125,1.1455539464950562,1.8121916055679321,0.592191755771637
1772790941362098700,1.1360986328125,1.27951979637146,1.9927679300308228,0.7631182670593262
1772790941382130700,1.156130615234375,1.447313666343689,2.1420395374298096,1.0313159227371216
1772790941402163500,1.17616357421875,1.6601555347442627,2.3456194400787354,1.349871277809143
1772790941422196700,1.19619677734375,1.8844773769378662,2.524644613265991,1.604739785194397
1772790941442229500,1.2162294921875,2.1505746841430664,2.610588312149048,1.7505571842193604
1772790941462262500,1.236262451171875,2.445239305496216,2.5576531887054443,1.8264967203140259
1772790941482294500,1.25629443359375,2.7748606204986572,2.3690719604492188,1.8199939727783203
1772790941502327800,1.276327880859375,3.204134464263916,2.0653493404388428,1.7245144844055176
1772790941522360600,1.296360595703125,3.622690439224243,1.7370368242263794,1.53719162940979
1772790941542393600,1.3163935546875,3.903494358062744,1.4090195894241333,1.2735284566879272
1772790941562426600,1.336426513671875,3.9168050289154053,1.0315494537353516,0.9606002569198608
1772790941582458600,1.356458740234375,3.7186388969421387,0.6675487756729126,0.6745240688323975
1772790941602491600,1.37649169921875,3.420788288116455,0.345702201128006,0.39610832929611206
1772790941622524400,1.3965244140625,3.104016065597534,0.15387499332427979,0.1834806203842163
1772790941642557700,1.4165576171875,2.8379697799682617,0.10016153752803802,0.021903173997998238
1772790941662590500,1.436590576171875,2.6081395149230957,0.1347706913948059,-0.14456617832183838
1772790941682622700,1.456622802734375,2.3797197341918945,0.14207619428634644,-0.3585810959339142
1772790941702655500,1.476655517578125,2.152637481689453,0.12438671290874481,-0.429279625415802
1772790941722688800,1.496688720703125,1.8800004720687866,0.15330195426940918,-0.44486698508262634
1772790941742721500,1.516721435546875,1.6033762693405151,0.21243903040885925,-0.4469960927963257
1772790941762754600,1.536754638671875,1.3705284595489502,0.3193340599536896,-0.332827091217041
1772790941782786600,1.55678662109375,1.1974655389785767,0.41070446372032166,-0.1012306958436966
1772790941802819600,1.576819580078125,1.0667308568954468,0.5531958341598511,0.2549186944961548
1772790941822852600,1.5968525390625,0.9271092414855957,0.7730323076248169,0.5197297930717468
1772790941842885400,1.616885498046875,0.6694308519363403,0.8597027063369751,0.4872855544090271
1772790941862917600,1.636917724609375,0.0693698599934578,0.7822020053863525,0.3612789511680603
1772790941882950700,1.65695068359375,-0.6743713021278381,0.5239197611808777,0.13543398678302765
1772790941902983700,1.676983642578125,-1.3537404537200928,0.11334548145532608,-0.17831093072891235
1772790941923016400,1.697016357421875,-1.9419755935668945,-0.38361167907714844,-0.5598796606063843
1772790941943049700,1.7170498046875,-2.485882043838501,-0.8166797161102295,-0.9638078212738037
1772790941963081500,1.73708154296875,-2.9886679649353027,-1.1853363513946533,-1.362227439880371
1772790941983114800,1.75711474609375,-3.441352367401123,-1.475983738899231,-1.697680115699768
1772790942003147500,1.7771474609375,-3.8319075107574463,-1.6750726699829102,-1.9238020181655884
1772790942023180500,1.7971806640625,-4.080187797546387,-1.689993143081665,-1.9674320220947266
1772790942043213600,1.817213623046875,-4.170679092407227,-1.4712103605270386,-1.8956859111785889
1772790942063245600,1.83724560546875,-4.173506259918213,-1.133553385734558,-1.7642323970794678
1772790942083278600,1.857278564453125,-4.118508815765381,-0.6663966774940491,-1.4886704683303833
1772790942103311600,1.8773115234375,-3.9291985034942627,-0.20377777516841888,-1.154916524887085
1772790942123344600,1.8973447265625,-3.569216728210449,0.1376543492078781,-0.8568181395530701
1772790942143377700,1.917377685546875,-3.0834736824035645,0.22708794474601746,-0.7146702408790588
1772790942163409700,1.93740966796875,-2.516782522201538,0.011429042555391788,-0.6951549649238586
1772790942183442700,1.957442626953125,-1.9131109714508057,-0.44469478726387024,-0.6512786746025085
1772790942203475700,1.977475830078125,-1.3296855688095093,-0.9602518081665039,-0.48453253507614136
1772790942223508500,1.997508544921875,-0.8730714917182922,-1.413954257965088,-0.20884564518928528
1772790942243541800,2.017541748046875,-0.5654716491699219,-1.704200029373169,0.07300945371389389
1772790942263573800,2.03757373046875,-0.4121161699295044,-1.8889490365982056,0.3475354015827179
1772790942283606500,2.0576064453125,-0.37848180532455444,-1.948742151260376,0.6017282605171204
1772790942303639600,2.0776396484375,-0.49038633704185486,-1.857555627822876,0.795825719833374
1772790942323672600,2.097672607421875,-0.799841046333313,-1.6585479974746704,0.914319634437561
1772790942343705600,2.11770556640625,-1.2512363195419312,-1.403408169746399,0.937745213508606
1772790942363737900,2.13773779296875,-1.681296944618225,-1.014003038406372,0.8701997399330139
1772790942383770600,2.1577705078125,-1.953725814819336,-0.6470659971237183,0.7826880216598511
1772790942403804000,2.177803955078125,-2.110748052597046,-0.3810291588306427,0.7745964527130127
1772790942423836700,2.197836669921875,-2.212674856185913,-0.32485926151275635,0.6226323843002319
1772790942443870000,2.217869873046875,-2.4121203422546387,-0.5400654077529907,0.4324363172054291
1772790942463901700,2.237901611328125,-2.6614062786102295,-0.9110106229782104,0.36621394753456116
1772790942483934700,2.257934814453125,-2.861293077468872,-1.2580794095993042,0.5120284557342529
1772790942503967700,2.2779677734375,-2.8331573009490967,-1.4392635822296143,0.8763003349304199
1772790942524000800,2.298000732421875,-2.4217026233673096,-1.2395155429840088,1.1624419689178467
1772790942544033800,2.31803369140625,-1.7407020330429077,-0.7128459811210632,1.3632383346557617
1772790942564065800,2.338065673828125,-0.8573721051216125,-0.0645083338022232,1.2902870178222656
1772790942584098800,2.358098876953125,0.014314455911517143,0.47021278738975525,0.7837812304496765
1772790942604131600,2.378131591796875,0.6876515746116638,0.7358284592628479,0.01728033646941185
1772790942624164900,2.398164794921875,1.0681451559066772,0.8264964818954468,-0.5834535956382751
1772790942644197600,2.41819775390625,1.262455940246582,0.924892783164978,-0.7988355755805969
1772790942664229600,2.438229736328125,1.3694363832473755,1.1685056686401367,-0.696238100528717
1772790942684262700,2.4582626953125,1.491563320159912,1.5098215341567993,-0.48598554730415344
1772790942704295700,2.478295654296875,1.642325520515442,1.8249011039733887,-0.2780056595802307
1772790942724328700,2.49832861328125,1.7833099365234375,2.0516021251678467,-0.1234833151102066
1772790942744360700,2.518360595703125,1.919202208518982,2.248201608657837,-0.004595457576215267
1772790942764393700,2.538393798828125,2.1158618927001953,2.4119811058044434,0.05518501251935959
1772790942784426800,2.5584267578125,2.242675542831421,2.642896890640259,0.11001040786504745
1772790942804459800,2.578459716796875,2.3557379245758057,2.865851879119873,0.09624737501144409
1772790942824492800,2.598492919921875,2.3849570751190186,3.044412612915039,-0.0037196315824985504
1772790942844524500,2.618524658203125,2.3363795280456543,3.1840553283691406,-0.2060038149356842
1772790942864557800,2.638557861328125,2.2686078548431396,3.20944881439209,-0.4884100556373596
1772790942884590600,2.658590576171875,2.2274036407470703,3.0912668704986572,-0.7424182891845703
1772790942904623900,2.678623779296875,2.191005229949951,2.789529323577881,-1.0265692472457886
1772790942924656600,2.69865673828125,2.1689255237579346,2.3888397216796875,-1.2943964004516602
1772790942944689000,2.71868896484375,2.209698438644409,1.9393997192382812,-1.5399514436721802
1772790942964721700,2.7387216796875,2.312188148498535,1.4863165616989136,-1.7053943872451782
1772790942984754700,2.758754638671875,2.4501030445098877,1.0506961345672607,-1.7785921096801758
1772790943004787700,2.77878759765625,2.567516326904297,0.6012073755264282,-1.655914068222046
1772790943024820700,2.79882080078125,2.5936288833618164,0.18394872546195984,-1.4691938161849976
1772790943044852700,2.818852783203125,2.4914236068725586,-0.2589619755744934,-1.2643020153045654
1772790943064885500,2.838885498046875,2.2846367359161377,-0.6621802449226379,-1.1128045320510864
1772790943084918800,2.858918701171875,2.0546932220458984,-1.019162893295288,-1.0658786296844482
1772790943104951600,2.87895166015625,1.893378496170044,-1.2977029085159302,-1.031022310256958
1772790943124984800,2.89898486328125,1.8264259099960327,-1.4213428497314453,-0.899910032749176
1772790943145016600,2.9190166015625,1.7215768098831177,-1.3532472848892212,-0.6617260575294495
1772790943165049900,2.9390498046875,1.5089280605316162,-1.0810248851776123,-0.3327902853488922
1772790943185082600,2.95908251953125,1.2551136016845703,-0.6305293440818787,0.01879984326660633
1772790943205116000,2.979115966796875,1.049783706665039,-0.09411004930734634,0.29401764273643494
1772790943225148700,2.999148681640625,0.9141359925270081,0.3824102580547333,0.4300490915775299
1772790943245181000,3.019180908203125,0.7036724090576172,0.6941379308700562,0.5059775710105896
1772790943265213700,3.039213623046875,0.39498648047447205,0.824454665184021,0.6911962032318115
1772790943285246700,3.059246826171875,0.055197980254888535,0.8620355129241943,0.9719170331954956
1772790943305279700,3.07927978515625,-0.29093554615974426,0.8121989965438843,1.295142650604248
1772790943325311700,3.099311767578125,-0.7027303576469421,0.6323710680007935,1.5536518096923828
1772790943345344800,3.1193447265625,-1.1711935997009277,0.24932226538658142,1.6636377573013306
1772790943365377800,3.139377685546875,-1.6875760555267334,-0.2842789590358734,1.7057602405548096
1772790943385410600,3.15941064453125,-2.1775879859924316,-0.9099947214126587,1.5814181566238403
1772790943405443600,3.179443603515625,-2.606539011001587,-1.4802294969558716,1.1976624727249146
1772790943425475600,3.1994755859375,-2.9082305431365967,-1.840925931930542,0.7873079776763916
1772790943445508600,3.219508544921875,-3.0805115699768066,-1.9913002252578735,0.528593897819519
1772790943465541600,3.239541748046875,-3.204932928085327,-1.879382610321045,0.34964656829833984
1772790943485574700,3.25957470703125,-3.4028429985046387,-1.5634821653366089,0.29508301615715027
1772790943505607700,3.279607666015625,-3.641195297241211,-1.1145026683807373,0.4027727544307709
1772790943525639400,3.299639404296875,-3.763611316680908,-0.6188556551933289,0.5800558924674988
1772790943545672700,3.319672607421875,-3.7100350856781006,-0.2809745669364929,0.7694305777549744
1772790943565705500,3.33970556640625,-3.4924368858337402,-0.17679926753044128,0.923085629940033
1772790943585738800,3.35973876953125,-3.1854569911956787,-0.23823384940624237,0.9932255744934082
1772790943605771500,3.379771484375,-2.828779697418213,-0.4279728829860687,0.9949120283126831
1772790943625803800,3.3998037109375,-2.4634511470794678,-0.6653555631637573,0.9245511889457703
1772790943645836500,3.41983642578125,-2.1179983615875244,-0.9186169505119324,0.7453577518463135
1772790943665869800,3.439869873046875,-1.8183296918869019,-1.1576887369155884,0.47257527709007263
1772790943685902600,3.459902587890625,-1.5562491416931152,-1.3906581401824951,0.17094756662845612
1772790943705935600,3.479935546875,-1.348575472831726,-1.58247971534729,-0.12160804122686386
1772790943725967600,3.499967529296875,-1.178624153137207,-1.656783103942871,-0.3255504071712494
1772790943746000600,3.520000732421875,-1.0498263835906982,-1.6078228950500488,-0.4362059235572815
1772790943766033700,3.54003369140625,-0.9242255687713623,-1.4680951833724976,-0.4426473379135132
1772790943786066400,3.56006640625,-0.8089635372161865,-1.272824764251709,-0.4209805727005005
1772790943806099700,3.580099609375,-0.7034850120544434,-1.0344923734664917,-0.34273213148117065
1772790943826131500,3.60013134765625,-0.5882276296615601,-0.801203727722168,-0.2441743165254593
1772790943846164700,3.620164794921875,-0.44853076338768005,-0.6210110187530518,-0.20040985941886902
1772790943866197500,3.640197509765625,-0.2727228105068207,-0.5410357117652893,-0.1983197182416916
1772790943886230800,3.660230712890625,-0.04566901549696922,-0.5309087634086609,-0.23751035332679749
1772790943906262500,3.680262451171875,0.2194124162197113,-0.43322989344596863,-0.3674125075340271
1772790943926295800,3.7002958984375,0.4698103368282318,-0.25849437713623047,-0.42790618538856506
1772790943946328600,3.72032861328125,0.70937579870224,-0.07887908816337585,-0.41885748505592346
1772790943966361900,3.74036181640625,0.9174461364746094,0.06760788708925247,-0.3701114058494568
1772790943986394600,3.76039453125,1.1465435028076172,0.22803343832492828,-0.2983062267303467
1772790944006426600,3.780426513671875,1.3979225158691406,0.3721936345100403,-0.23467114567756653
1772790944026459600,3.800459716796875,1.6400569677352905,0.46927711367607117,-0.16411706805229187
1772790944046492700,3.82049267578125,1.850958228111267,0.518595278263092,-0.061798349022865295
1772790944066525700,3.840525634765625,1.9759856462478638,0.5629851222038269,0.08289850503206253
1772790944086558500,3.860558349609375,1.9487152099609375,0.6020984649658203,0.3272691071033478
1772790944106590700,3.8805908203125,1.8406305313110352,0.7290084362030029,0.6749924421310425
1772790944126623700,3.900623779296875,1.761075735092163,0.980754017829895,1.0293575525283813
1772790944146656800,3.92065673828125,1.774473786354065,1.3149902820587158,1.3094501495361328
1772790944166689500,3.940689453125,1.8605889081954956,1.6763665676116943,1.5169854164123535
1772790944186722800,3.960722900390625,1.9915932416915894,1.980627417564392,1.667832612991333
1772790944206754600,3.980754638671875,2.1055874824523926,2.253953456878662,1.7733741998672485
1772790944226784800,4.00078466796875,2.197741985321045,2.5311899185180664,1.7925907373428345
1772790944246817500,4.020817626953125,2.253802537918091,2.8186633586883545,1.7246633768081665
1772790944266850800,4.040850830078125,2.3043811321258545,3.067384958267212,1.5529747009277344
1772790944286882600,4.060882568359375,2.3238985538482666,3.2236437797546387,1.2768393754959106
1772790944306915800,4.080915771484375,2.3416965007781982,3.236252546310425,0.8639065623283386
1772790944326948600,4.100948486328125,2.3746230602264404,3.17817759513855,0.4133472144603729
1772790944346981600,4.120981689453125,2.6215522289276123,2.755993127822876,-0.015313563868403435
1772790944367014100,4.14101416015625,2.8881995677948,2.2124688625335693,-0.3357999622821808
1772790944387046100,4.161046142578125,3.123424530029297,1.4429621696472168,-0.6612644791603088
1772790944407079200,4.1810791015625,3.3296310901641846,0.480080246925354,-0.8961862325668335
1772790944427112200,4.2011123046875,3.4729933738708496,-0.6104299426078796,-1.009773850440979
1772790944447145200,4.221145263671875,3.405005931854248,-1.6998757123947144,-1.0951523780822754
1772790944467178000,4.241177978515625,3.1602494716644287,-2.560184955596924,-1.21405029296875
1772790944487210000,4.2612099609375,2.778125286102295,-2.8757405281066895,-1.2240480184555054
1772790944507243300,4.2812431640625,2.28204607963562,-2.614689350128174,-1.0536298751831055
1772790944527276000,4.301276123046875,1.7814183235168457,-2.0153329372406006,-0.8525311350822449
1772790944547309000,4.32130908203125,1.3365379571914673,-1.2747418880462646,-0.5794631242752075
1772790944567342000,4.341342041015625,0.8713986277580261,-0.5214143395423889,-0.31598740816116333
1772790944587374300,4.361374267578125,0.3319222629070282,0.034367650747299194,-0.23222403228282928
1772790944607407000,4.381406982421875,-0.27478939294815063,0.311484158039093,-0.5753752589225769
1772790944627440000,4.401440185546875,-1.0080655813217163,0.2181299477815628,-1.1588040590286255
1772790944647473200,4.42147314453125,-1.7388687133789062,-0.12492796033620834,-1.6455979347229004
1772790944667506200,4.441506103515625,-2.430356979370117,-0.46772998571395874,-2.0005581378936768
1772790944687538200,4.4615380859375,-3.1354928016662598,-0.7346526384353638,-2.276045799255371
1772790944707571000,4.481571044921875,-3.849076747894287,-0.8608357310295105,-2.4975905418395996
1772790944727604200,4.501604248046875,-4.496414661407471,-0.8328945636749268,-2.6419055461883545
1772790944747637000,4.521636962890625,-5.033763408660889,-0.711918294429779,-2.6950483322143555
1772790944767669200,4.541669189453125,-5.434084415435791,-0.5622598528862,-2.6221866607666016
1772790944787702000,4.561701904296875,-5.693136215209961,-0.3857099711894989,-2.360774040222168
1772790944807735300,4.5817353515625,-5.773778915405273,-0.12962985038757324,-1.856915831565857
1772790944827768000,4.60176806640625,-5.70884895324707,0.3085831105709076,-1.0700575113296509
1772790944847801000,4.621801025390625,-5.491189956665039,0.7883116602897644,-0.13813145458698273
1772790944867833000,4.6418330078125,-5.100967884063721,1.3046313524246216,0.7298943996429443
1772790944887866400,4.661866455078125,-4.433332443237305,1.7683417797088623,1.3753833770751953
1772790944907899100,4.681899169921875,-3.334352731704712,1.9030698537826538,1.757026195526123
1772790944927932200,4.70193212890625,-1.9951571226119995,1.612005352973938,1.6417590379714966
1772790944947965200,4.721965087890625,-0.7958614230155945,0.8955098986625671,1.0878833532333374
1772790944967997200,4.7419970703125,0.10279132425785065,-0.030192779377102852,0.2549234926700592
1772790944988030200,4.7620302734375,0.7772848010063171,-1.0282821655273438,-0.6151519417762756
1772790945008063000,4.78206298828125,1.2066059112548828,-2.110755205154419,-1.280327558517456
1772790945028096300,4.80209619140625,1.3378148078918457,-3.313222885131836,-1.651780366897583
1772790945048129000,4.82212890625,1.1191686391830444,-4.582022190093994,-1.788902759552002
1772790945068161300,4.842161376953125,0.6694339513778687,-5.669046401977539,-1.7337392568588257
1772790945088194000,4.862194091796875,0.1046702116727829,-6.368960380554199,-1.5839893817901611
1772790945108227300,4.882227294921875,-0.533063530921936,-6.639570713043213,-1.3931488990783691
1772790945128260000,4.902260009765625,-1.2272135019302368,-6.472357749938965,-1.2817211151123047
1772790945148293400,4.92229345703125,-1.8696938753128052,-5.892338275909424,-1.3167577981948853
1772790945168325000,4.9423251953125,-2.229440927505493,-4.808801651000977,-1.2889289855957031
1772790945188358100,4.962358154296875,-2.3838393688201904,-3.3375892639160156,-1.0478805303573608
1772790945208391200,4.98239111328125,-2.6228716373443604,-2.0883820056915283,-0.7851031422615051
1772790945228424200,5.002424072265625,-3.1672000885009766,-1.4874906539916992,-0.886586606502533
1772790945248457200,5.022457275390625,-3.8455698490142822,-1.303877353668213,-1.2128077745437622
1772790945268489200,5.0424892578125,-4.032679080963135,-1.049679160118103,-1.404456377029419
1772790945288522200,5.062522216796875,-3.7096445560455322,-0.2323504388332367,-1.113781452178955
1772790945308555000,5.082554931640625,-2.9626307487487793,0.9083120822906494,-0.43363404273986816
1772790945328588300,5.10258837890625,-1.4285459518432617,1.7613441944122314,0.11223427951335907
1772790945348621000,5.12262109375,0.5725910663604736,1.6699154376983643,0.1283920854330063
1772790945368653300,5.1426533203125,2.349351406097412,1.1218680143356323,0.06842800974845886
1772790945388686300,5.162686279296875,3.4834342002868652,0.7160280346870422,0.29766222834587097
1772790945408719400,5.18271923828125,3.857515573501587,0.7098705768585205,0.7738469243049622
1772790945428752400,5.20275244140625,3.7842135429382324,1.0196813344955444,1.25603449344635
1772790945448785400,5.222785400390625,3.4253089427948,1.4968963861465454,1.5986579656600952
1772790945468817200,5.242817138671875,2.981400489807129,2.0404129028320312,1.6015104055404663
1772790945488850400,5.262850341796875,2.7115867137908936,2.5202536582946777,1.356200098991394
1772790945508883200,5.28288330078125,2.625108242034912,2.9314687252044678,1.1005553007125854
1772790945528916500,5.30291650390625,2.6818697452545166,3.2889721393585205,0.9556429386138916
1772790945548949200,5.32294921875,2.799823045730591,3.6369476318359375,0.9265265464782715
1772790945568981500,5.3429814453125,2.913468837738037,3.9851620197296143,0.9237613677978516
1772790945589014300,5.36301416015625,3.0711138248443604,4.236293315887451,0.9387677907943726
1772790945609047300,5.38304736328125,3.3255138397216797,4.403807163238525,0.9338997602462769
1772790945629080300,5.403080322265625,3.5622122287750244,4.364861011505127,0.8724214434623718
1772790945649113300,5.42311328125,3.5571494102478027,4.138286590576172,0.5369365811347961
1772790945669145300,5.443145263671875,3.298988103866577,3.559931993484497,-0.030317796394228935
1772790945689178400,5.463178466796875,2.9105234146118164,2.527085065841675,-0.6512541174888611
1772790945709211400,5.48321142578125,2.553933620452881,1.1690796613693237,-1.2926865816116333
1772790945729244400,5.503244384765625,2.398381233215332,-0.2139618843793869,-1.7137839794158936
1772790945749277400,5.52327734375,2.4016668796539307,-1.2179615497589111,-1.7750142812728882
1772790945769309200,5.54330908203125,2.472681999206543,-1.7910865545272827,-1.602658748626709
1772790945789342500,5.563342529296875,2.508601188659668,-2.006347894668579,-1.2575547695159912
1772790945809375200,5.583375244140625,2.488677978515625,-1.9461346864700317,-0.8272420763969421
1772790945829408500,5.603408447265625,2.42034912109375,-1.7723596096038818,-0.34456777572631836
1772790945849441300,5.623441162109375,2.292285203933716,-1.5201208591461182,0.09286331385374069
1772790945869473500,5.6434736328125,2.0935449600219727,-1.224517583847046,0.3977106511592865
1772790945889506300,5.66350634765625,1.8137849569320679,-0.9291055798530579,0.5567971467971802
1772790945909539600,5.68353955078125,1.485776424407959,-0.7033501267433167,0.6303659081459045
1772790945929572400,5.703572265625,1.1640825271606445,-0.4431280493736267,0.5673656463623047
1772790945949605400,5.72360546875,0.8267658352851868,-0.2854684889316559,0.24602729082107544
1772790945969637400,5.743637451171875,0.3887607455253601,-0.33684226870536804,-0.0199248269200325
1772790945989670400,5.76367041015625,-0.18057455122470856,-0.51529461145401,0.05837585777044296
1772790946009703400,5.783703369140625,-1.0072566270828247,-0.7207947969436646,0.5322062373161316
1772790946029736200,5.803736083984375,-1.8794997930526733,-0.6151379346847534,1.1347644329071045
1772790946049769500,5.82376953125,-2.465301752090454,-0.14323091506958008,1.7691881656646729
1772790946069801200,5.84380126953125,-2.810335636138916,0.5871705412864685,2.2900590896606445
1772790946089834500,5.86383447265625,-3.08172345161438,1.1385159492492676,2.731895685195923
1772790946109867300,5.8838671875,-3.4315590858459473,1.1588906049728394,2.9696576595306396
1772790946129900500,5.903900634765625,-3.6872024536132812,0.8385119438171387,2.9828009605407715
1772790946149932300,5.923932373046875,-3.7909281253814697,0.364245742559433,2.612571954727173
1772790946169965300,5.94396533203125,-3.9076015949249268,-0.1985747218132019,1.7980726957321167
1772790946189998300,5.963998291015625,-4.060786247253418,-0.745606005191803,0.7078036069869995
1772790946210031400,5.98403125,-4.0400390625,-1.198395013809204,-0.3222205340862274
1772790946230064400,6.004064453125,-3.6809730529785156,-1.4452505111694336,-0.9993446469306946
1772790946250096400,6.024096435546875,-2.967628002166748,-1.6430935859680176,-1.306101679801941
1772790946270129400,6.04412939453125,-2.116486072540283,-2.017077922821045,-1.4422328472137451
1772790946290162400,6.064162353515625,-1.3067235946655273,-2.5435030460357666,-1.5529128313064575
1772790946310195500,6.084195556640625,-0.6267277598381042,-3.0737805366516113,-1.6501834392547607
1772790946330228200,6.104228271484375,-0.05832083895802498,-3.489110231399536,-1.7524031400680542
1772790946350260200,6.12426025390625,0.3532136082649231,-3.7477078437805176,-1.8248507976531982
1772790946370293500,6.14429345703125,0.6021202802658081,-3.9244399070739746,-1.9274715185165405
1772790946390326300,6.164326171875,0.7207152247428894,-4.0203166007995605,-2.0438907146453857
1772790946410359300,6.184359375,0.7256649732589722,-4.001213550567627,-2.171598434448242
1772790946430392300,6.204392333984375,0.6562432050704956,-3.880568265914917,-2.327402353286743
1772790946450424300,6.22442431640625,0.519679605960846,-3.6522529125213623,-2.5095388889312744
1772790946470457300,6.244457275390625,0.32441914081573486,-3.361231803894043,-2.7115843296051025
1772790946490490400,6.264490478515625,0.05260751396417618,-3.028991222381592,-2.8862578868865967
1772790946510523400,6.2845234375,-0.34621620178222656,-2.713482141494751,-3.0132317543029785
1772790946530556400,6.304556396484375,-0.9172719717025757,-2.43113112449646,-3.000274181365967
1772790946550588400,6.32458837890625,-1.7050409317016602,-1.9771130084991455,-2.6884849071502686
1772790946570621200,6.34462109375,-2.6151978969573975,-1.1844478845596313,-2.4317407608032227
1772790946590654500,6.364654541015625,-3.4978129863739014,-0.004431527107954025,-1.834485411643982
1772790946610687200,6.384687255859375,-4.148653984069824,1.6637672185897827,-0.4871954917907715
1772790946630720300,6.40472021484375,-4.394847869873047,3.0997796058654785,0.9193305373191833
1772790946650752300,6.424752197265625,-4.220430850982666,3.6157407760620117,1.9752784967422485
1772790946670785500,6.44478564453125,-3.49338698387146,3.437962770462036,2.411358594894409
1772790946690818300,6.464818359375,-2.431094169616699,2.923853874206543,2.1826577186584473
1772790946710851300,6.484851318359375,-1.2743638753890991,2.322251319885254,1.558995008468628
1772790946730884400,6.50488427734375,0.06577228754758835,1.7711137533187866,0.847919762134552
1772790946750916400,6.524916259765625,1.2173027992248535,1.103281855583191,0.192794069647789
1772790946770949400,6.544949462890625,2.0650577545166016,0.42388641834259033,-0.39863574504852295
1772790946790982100,6.564982177734375,2.547067880630493,-0.14971286058425903,-0.7726238965988159
1772790946811015400,6.585015380859375,2.7311317920684814,-0.49143949151039124,-0.9110742211341858
1772790946831048200,6.605048095703125,2.716553211212158,-0.4928232729434967,-0.7799912095069885
1772790946851080400,6.62508056640625,2.5891165733337402,-0.17892636358737946,-0.47211161255836487
1772790946871113200,6.64511328125,2.366271495819092,0.32656988501548767,-0.09095451980829239
1772790946891146500,6.665146484375,2.11482834815979,1.0123323202133179,0.3452073335647583
1772790946911179300,6.68517919921875,1.9297491312026978,1.8102281093597412,0.768170952796936
1772790946931212500,6.705212646484375,1.827451467514038,2.6097686290740967,1.1571342945098877
1772790946951244300,6.725244384765625,1.841649055480957,3.3764140605926514,1.5089869499206543
1772790946971277300,6.74527734375,2.025067090988159,4.06272554397583,1.7763341665267944
1772790946991310300,6.765310302734375,2.354123115539551,4.676052570343018,1.9878729581832886
1772790947011343400,6.78534326171875,2.7428536415100098,5.170287132263184,2.0631563663482666
1772790947031376400,6.80537646484375,3.0556800365448,5.498876571655273,1.9990407228469849
1772790947051408400,6.825408447265625,3.228304386138916,5.528243064880371,1.7201720476150513
1772790947071441400,6.84544140625,3.217622995376587,5.112515926361084,1.3097143173217773
1772790947091474200,6.86547412109375,3.092275381088257,4.296178340911865,0.8195875883102417
1772790947111507500,6.885507568359375,2.9882712364196777,3.2607123851776123,0.2563851475715637
1772790947131540200,6.905540283203125,2.9483516216278076,2.173229932785034,-0.3136545717716217
1772790947151572500,6.925572509765625,3.004366636276245,1.1114994287490845,-0.7693576812744141
1772790947171605200,6.945605224609375,3.1198580265045166,0.08508914709091187,-1.0431504249572754
1772790947191638500,6.965638427734375,3.160459280014038,-0.8730753660202026,-1.114269733428955
1772790947211671300,6.98567138671875,2.907773733139038,-1.699826717376709,-1.1063002347946167
1772790947231704300,7.005704345703125,2.5048515796661377,-2.389049530029297,-1.1503047943115234
1772790947251736300,7.025736328125,2.1052770614624023,-2.816072463989258,-1.0959768295288086
1772790947271769300,7.045769287109375,1.779590129852295,-2.87646222114563,-1.005391001701355
1772790947291802400,7.06580224609375,1.6130090951919556,-2.584419012069702,-1.0149532556533813
1772790947311835400,7.08583544921875,1.4947563409805298,-2.1963233947753906,-1.1298131942749023
1772790947331868400,7.105868408203125,1.2635880708694458,-1.9173593521118164,-1.1868886947631836
1772790947351900400,7.125900390625,0.8555207252502441,-1.77419114112854,-1.037950873374939
1772790947371933400,7.145933349609375,0.05078757181763649,-1.7199426889419556,-0.6375012397766113
1772790947391966500,7.165966552734375,-1.067735195159912,-1.8031601905822754,-0.23728173971176147
1772790947411999500,7.18599951171875,-2.2461647987365723,-1.857250690460205,0.18986937403678894
1772790947432032300,7.2060322265625,-3.25819730758667,-1.7813178300857544,0.6604441404342651
1772790947452064300,7.226064208984375,-3.9781222343444824,-1.4849143028259277,1.1594566106796265
1772790947472097300,7.24609716796875,-4.4012770652771,-0.8930638432502747,1.689475178718567
1772790947492130300,7.26613037109375,-4.5756025314331055,-0.12526541948318481,2.0908219814300537
1772790947512163300,7.286163330078125,-4.580099582672119,0.749042272567749,2.2943837642669678
1772790947532196400,7.3061962890625,-4.563860893249512,1.5139248371124268,2.0725183486938477
1772790947552228400,7.326228271484375,-4.711883544921875,1.9795215129852295,1.4098955392837524
1772790947572261400,7.346261474609375,-5.005651950836182,2.2027552127838135,0.7262275815010071
1772790947592294400,7.36629443359375,-5.135488986968994,2.285627841949463,0.254130482673645
1772790947612327400,7.386327392578125,-5.039966583251953,2.278000831604004,0.3317413032054901
1772790947632360400,7.4063603515625,-4.653130531311035,2.02270245552063,0.7219076752662659
1772790947652392400,7.426392333984375,-3.860734701156616,1.4144654273986816,1.0076638460159302
1772790947672425200,7.44642529296875,-2.7962987422943115,0.6857081651687622,1.1236332654953003
1772790947692458500,7.46645849609375,-1.6975669860839844,-0.04250480234622955,0.9539528489112854
1772790947712491300,7.4864912109375,-0.606319785118103,-0.7766420245170593,0.5499883890151978
1772790947732524300,7.506524169921875,0.35867923498153687,-1.4935115575790405,0.048384636640548706
1772790947752556300,7.526556396484375,1.0841740369796753,-2.1443605422973633,-0.4493350684642792
1772790947772589600,7.546589599609375,1.7759877443313599,-2.96518611907959,-0.7981833815574646
1772790947792622300,7.566622314453125,2.1993072032928467,-3.625113010406494,-1.0963504314422607
1772790947812655400,7.5866552734375,2.3913826942443848,-4.271653652191162,-1.32623291015625
1772790947832688400,7.6066884765625,2.358059883117676,-4.738857269287109,-1.4424858093261719
1772790947852721400,7.626721435546875,2.167088031768799,-5.016073226928711,-1.448857069015503
1772790947872753400,7.64675341796875,1.8814421892166138,-5.059596061706543,-1.4473333358764648
1772790947892786200,7.6667861328125,1.462090253829956,-4.9035258293151855,-1.499186635017395
1772790947912819500,7.6868193359375,0.845686674118042,-4.71347713470459,-1.5923547744750977
1772790947932852200,7.706852294921875,0.14770124852657318,-4.318307876586914,-1.6784850358963013
1772790947952885500,7.726885498046875,-0.45939087867736816,-3.610038995742798,-1.7982432842254639
1772790947972917200,7.746917236328125,-1.026057243347168,-2.5692148208618164,-1.8471637964248657
1772790947992950500,7.766950439453125,-1.6314163208007812,-1.3881406784057617,-1.7469831705093384
1772790948012983300,7.7869833984375,-2.1857237815856934,-0.22206223011016846,-1.5614055395126343
1772790948033016300,7.807016357421875,-2.4648306369781494,1.0772041082382202,-1.1654618978500366
1772790948053049300,7.82704931640625,-2.311091423034668,2.56046724319458,-0.5692564845085144
1772790948073081300,7.847081298828125,-1.8680442571640015,3.8539068698883057,-0.008165355771780014
1772790948093114400,7.8671142578125,-1.3449344635009766,4.473313808441162,-0.016806993633508682
1772790948113147100,7.887147216796875,-0.8864127397537231,3.9571595191955566,-0.4119098484516144
1772790948133180400,7.907180419921875,-0.2851770520210266,2.4747936725616455,-1.008146047592163
1772790948153213200,7.927213134765625,0.5305578112602234,0.43852975964546204,-1.7993348836898804
1772790948173245400,7.947245361328125,1.392346978187561,-1.2492320537567139,-2.3895065784454346
1772790948193278200,7.9672783203125,1.9834519624710083,-2.0504002571105957,-2.4077630043029785
1772790948213311500,7.9873115234375,2.315614938735962,-2.0984132289886475,-1.8931602239608765
1772790948233344300,8.00734423828125,2.609039545059204,-1.8088966608047485,-0.9526949524879456
1772790948253377500,8.02737744140625,2.934041976928711,-1.3416616916656494,-0.06696994602680206
1772790948273409300,8.0474091796875,3.2819085121154785,-0.6931314468383789,0.6043944358825684
1772790948293442300,8.0674423828125,3.4813618659973145,0.05971527099609375,1.1762267351150513
1772790948313475300,8.087475341796875,3.318291664123535,0.7776135206222534,1.7086442708969116
1772790948333508400,8.10750830078125,2.863180160522461,1.416815161705017,2.154127597808838
1772790948353541400,8.127541259765625,2.2488224506378174,1.9791417121887207,2.3686835765838623
1772790948373573000,8.147572998046876,1.6259244680404663,2.4077999591827393,2.3193697929382324
1772790948393606000,8.16760595703125,1.1053876876831055,2.6984751224517822,2.02673077583313
1772790948413639200,8.18763916015625,0.7413740158081055,2.9335274696350098,1.6094831228256226
1772790948433672000,8.207671875,0.5337967276573181,3.1432747840881348,1.2080563306808472
1772790948453705000,8.227705078125,0.4550801217556,3.350184440612793,0.8992418646812439
1772790948473737000,8.247737060546875,0.48406916856765747,3.5348715782165527,0.6818509101867676
1772790948493770200,8.267770263671874,0.6079192161560059,3.6253817081451416,0.5564252734184265
1772790948513803000,8.287802978515625,0.7925947308540344,3.5878796577453613,0.4300850033760071
1772790948533836000,8.3078359375,0.9966155886650085,3.3911869525909424,0.2608204483985901
1772790948553869000,8.327869140625,1.1644293069839478,2.964296340942383,0.05242399871349335
1772790948573901000,8.347901123046874,1.3022736310958862,2.3276593685150146,-0.197747603058815
1772790948593934000,8.36793408203125,1.4307271242141724,1.5505578517913818,-0.4803752899169922
1772790948613966800,8.387966796875,1.5259686708450317,0.6779528856277466,-0.7500575184822083
1772790948634000100,8.408000244140625,1.600728154182434,-0.24046690762043,-0.9096426963806152
1772790948654033000,8.428032958984375,1.67473566532135,-1.0755201578140259,-1.0094116926193237
1772790948674066200,8.448066162109376,1.7203762531280518,-1.8008078336715698,-1.0286040306091309
1772790948694098000,8.468097900390624,1.7217249870300293,-2.416994571685791,-0.93459153175354
1772790948714131200,8.488131103515625,1.5791361331939697,-2.93926739692688,-0.6266053915023804
1772790948734164000,8.5081640625,1.1073061227798462,-3.3117997646331787,-0.2310684323310852
1772790948754197200,8.528197265625,0.316054105758667,-3.5484416484832764,-0.047009021043777466
1772790948774230000,8.54822998046875,-0.47615283727645874,-3.713221788406372,0.0598558709025383
1772790948794262000,8.568261962890626,-1.089159607887268,-3.700519561767578,0.19005955755710602
1772790948814295000,8.588294921875,-1.426401972770691,-3.4130778312683105,0.1263219565153122
1772790948834328000,8.608328125,-1.5942782163619995,-2.9794111251831055,-0.028637949377298355
1772790948854361000,8.628361083984375,-1.8439899682998657,-2.663457155227661,0.1857481300830841
1772790948874393900,8.648393798828126,-2.2295565605163574,-2.5424070358276367,0.7261892557144165
1772790948894426000,8.668426025390625,-2.638395071029663,-2.383754253387451,0.8280360698699951
1772790948914459000,8.688458984375,-3.1476097106933594,-2.2545063495635986,0.41851890087127686
1772790948934492200,8.7084921875,-3.6651358604431152,-2.0584521293640137,-0.47448790073394775
1772790948954525000,8.72852490234375,-4.062263011932373,-1.6890653371810913,-1.5555574893951416
1772790948974558200,8.74855810546875,-4.319307327270508,-1.0481188297271729,-2.290001153945923
1772790948994591000,8.768591064453124,-4.388882160186768,0.07062076032161713,-2.533367156982422
1772790949014623000,8.788623046875,-4.2762131690979,1.6488873958587646,-2.192795991897583
1772790949034656000,8.808656005859374,-4.115572452545166,3.35224986076355,-1.18332839012146
1772790949054689000,8.82868896484375,-3.647308349609375,4.851278781890869,0.182174414396286
1772790949074722000,8.84872216796875,-2.5764102935791016,5.4313530921936035,1.2962156534194946
1772790949094754800,8.8687548828125,-1.400415062904358,4.942521572113037,1.5016616582870483
1772790949114787000,8.888787109375,-0.49585092067718506,3.512359380722046,0.8490878939628601
1772790949134820000,8.908820068359375,0.03556763753294945,1.4936854839324951,-0.46158620715141296
1772790949154853000,8.92885302734375,0.5794846415519714,-0.950545072555542,-1.8558380603790283
1772790949174886000,8.948885986328126,1.1715508699417114,-3.190551996231079,-2.791816234588623
1772790949194919200,8.968919189453125,1.7043625116348267,-4.993361473083496,-3.1144094467163086
1772790949214951000,8.988950927734376,2.0408053398132324,-6.294328212738037,-2.9654204845428467
1772790949234984000,9.00898388671875,2.1429519653320312,-7.032687187194824,-2.518735885620117
1772790949255017000,9.029016845703126,2.075077533721924,-7.266266822814941,-1.9312098026275635
1772790949275050000,9.049050048828125,1.942427158355713,-6.968818664550781,-1.3399378061294556
1772790949295083000,9.0690830078125,1.7373809814453125,-6.1902689933776855,-0.8211901783943176
1772790949315115000,9.089114990234375,1.4165866374969482,-5.0250444412231445,-0.4814431667327881
1772790949335148000,9.10914794921875,0.9477867484092712,-3.6655478477478027,-0.28867194056510925
1772790949355181000,9.12918115234375,0.24139505624771118,-2.3072075843811035,-0.21543452143669128
1772790949375214800,9.14921484375,-0.5158330798149109,-0.9953871965408325,-0.2367718517780304
1772790949395247600,9.16924755859375,-1.1157768964767456,0.484721302986145,-0.07577049732208252
1772790949415281000,9.189281005859375,-1.5962402820587158,2.0864574909210205,0.2866904139518738
1772790949435312600,9.209312744140625,-2.004981517791748,3.6817336082458496,0.8804363012313843
1772790949455345700,9.229345703125,-2.2939774990081787,5.055667877197266,1.7469532489776611
1772790949475378700,9.249378662109375,-2.2234771251678467,6.001754283905029,2.7479259967803955
1772790949495411700,9.26941162109375,-1.5403680801391602,6.26460599899292,3.7538468837738037
1772790949515444700,9.28944482421875,-0.5180174112319946,5.61142635345459,4.272488594055176
1772790949535476700,9.309476806640625,0.06976952403783798,3.887687921524048,3.7308390140533447
1772790949555509800,9.329509765625,-0.02132103592157364,1.8457517623901367,2.0265305042266846
1772790949575542800,9.349542724609375,-0.29433199763298035,-0.029457176104187965,-0.2537246644496918
1772790949595575800,9.369575927734376,-0.4031107425689697,-1.0280237197875977,-2.0410330295562744
1772790949615608600,9.389608642578125,-0.20494821667671204,-1.0121428966522217,-3.093625783920288
1772790949635640600,9.409640625,0.20862746238708496,-0.33587735891342163,-3.2947683334350586
1772790949655673900,9.429673828125,0.5809627175331116,0.36073997616767883,-2.884998083114624
1772790949675706600,9.44970654296875,0.9210259318351746,0.8201537728309631,-2.284310817718506
1772790949695739600,9.46973974609375,1.2475812435150146,0.9365595579147339,-1.719451665878296
1772790949715772700,9.489772705078124,1.5335845947265625,0.7641950249671936,-1.3241676092147827
1772790949735804700,9.5098046875,1.7797094583511353,0.543636679649353,-1.0984734296798706
1772790949755837700,9.529837646484374,1.9697147607803345,0.46095484495162964,-0.9645484685897827
1772790949775870700,9.54987060546875,2.075122356414795,0.46773144602775574,-0.8450020551681519
1772790949795903700,9.56990380859375,2.0845019817352295,0.5495599508285522,-0.6341373920440674
1772790949815936800,9.589936767578125,1.9678802490234375,0.8740400075912476,-0.3309825360774994
1772790949835969800,9.6099697265625,1.7135733366012573,1.3765889406204224,0.020313521847128868
1772790949856001500,9.63000146484375,1.399863362312317,2.0079987049102783,0.3553760349750519
1772790949876034800,9.650034912109374,1.1460652351379395,2.6844840049743652,0.5939092636108398
1772790949896067600,9.670067626953125,0.984498918056488,3.2962589263916016,0.7871826887130737
1772790949916100900,9.690100830078125,0.9381778240203857,3.7668657302856445,0.9222474694252014
1772790949936133600,9.710133544921876,1.025371789932251,4.073540687561035,1.0240330696105957
1772790949956166000,9.730165771484375,1.2381993532180786,4.202577590942383,1.1312073469161987
1772790949976198700,9.75019873046875,1.5259894132614136,4.110261917114258,1.2040321826934814
1772790949996231700,9.770231689453125,1.7905960083007812,3.7548327445983887,1.2251818180084229
1772790950016264700,9.7902646484375,1.953489899635315,3.1555750370025635,1.1485782861709595
1772790950036297700,9.810297607421875,1.9699158668518066,2.336468458175659,1.0140366554260254
1772790950056329700,9.830329833984376,1.877753734588623,1.4238628149032593,0.833511471748352
1772790950076362500,9.850362548828125,1.7153173685073853,0.5516929030418396,0.6804648041725159
1772790950096395800,9.870395751953126,1.573624849319458,-0.1849970817565918,0.6438583135604858
1772790950116428500,9.890428466796875,1.4706525802612305,-0.7511054277420044,0.6676570177078247
1772790950136461800,9.9104619140625,1.4541789293289185,-1.0900874137878418,0.7407654523849487
1772790950156494600,9.93049462890625,1.450140118598938,-1.2304480075836182,0.8238975405693054
1772790950176526800,9.95052685546875,1.4469434022903442,-1.1933887004852295,0.8310313820838928
1772790950196559600,9.9705595703125,1.565585970878601,-0.8591155409812927,0.7069265842437744
1772790950216593000,9.990593017578124,1.5434801578521729,-0.6093116402626038,0.49536624550819397
1772790950236625700,10.010625732421875,1.3599538803100586,-0.45114898681640625,0.23090973496437073
1772790950256658700,10.03065869140625,1.1879472732543945,-0.3039267659187317,0.15492212772369385
1772790950276690700,10.050690673828125,0.8743761777877808,-0.27140265703201294,0.20193827152252197
1772790950296724000,10.070723876953124,0.3542923033237457,-0.3646554946899414,0.23203378915786743
1772790950316756700,10.0907568359375,-0.44923898577690125,-0.5203936100006104,0.2287401407957077
1772790950336789500,10.11078955078125,-1.2614634037017822,-0.6725755929946899,-0.33181169629096985
1772790950356822800,10.13082275390625,-1.8911350965499878,-0.8560515642166138,-1.177584171295166
1772790950376855600,10.15085546875,-2.5448074340820312,-1.188434362411499,-0.9633281826972961
1772790950396887800,10.1708876953125,-2.957810878753662,-1.161305546760559,-0.015312602743506432
1772790950416920600,10.190920654296875,-3.3740129470825195,-1.0382224321365356,0.8112165331840515
1772790950436953900,10.210953857421876,-3.896451234817505,-1.06959068775177,0.8676823377609253
1772790950456986600,10.230986572265625,-4.462831497192383,-1.4526469707489014,0.15778587758541107
1772790950477020000,10.25102001953125,-4.831125736236572,-1.7575019598007202,-0.866206705570221
1772790950497051600,10.2710517578125,-4.730746269226074,-1.6890681982040405,-1.5808782577514648
1772790950517085000,10.2910849609375,-4.191333293914795,-0.9927160739898682,-1.68559992313385
1772790950537117700,10.31111767578125,-3.1373651027679443,0.19904406368732452,-1.4044359922409058
1772790950557150700,10.331150634765624,-1.2883145809173584,1.2913923263549805,-0.8098363280296326
1772790950577183700,10.351183837890625,0.45639798045158386,2.194061279296875,-0.38423609733581543
1772790950597215700,10.3712158203125,1.7857019901275635,2.636307954788208,-0.22557397186756134
1772790950617248800,10.391248779296875,2.6261560916900635,2.6557796001434326,-0.2531650960445404
1772790950637281500,10.411281494140624,2.7939040660858154,2.220673084259033,-0.3244514465332031
1772790950657314800,10.431314697265625,2.267205238342285,1.3595842123031616,-0.3368322551250458
1772790950677347600,10.45134765625,1.4843261241912842,0.18056601285934448,-0.23115070164203644
1772790950697380900,10.471380859375,0.7928183078765869,-0.8834913969039917,-0.08136650919914246
1772790950717412600,10.49141259765625,0.4138568937778473,-1.6629889011383057,0.05765308812260628
1772790950737446000,10.51144580078125,0.29246529936790466,-2.1108877658843994,0.0964750126004219
1772790950757478700,10.531478759765625,0.2993320822715759,-2.213900566101074,0.10979609191417694
1772790950777512000,10.551511962890626,0.32351329922676086,-2.061544418334961,0.09064257144927979
1772790950797544700,10.571544677734375,0.32114797830581665,-1.6378347873687744,0.07629761844873428
1772790950817576700,10.59157666015625,0.33320480585098267,-1.006638765335083,0.12426164001226425
1772790950837609700,10.611609619140625,0.36137253046035767,-0.2870008051395416,0.20539763569831848
1772790950857642800,10.631642822265626,0.4445291757583618,0.3704390823841095,0.27495941519737244
1772790950877675800,10.65167578125,0.5957986116409302,0.7874453067779541,0.385857492685318
1772790950897708500,10.67170849609375,0.6993564367294312,0.9893859624862671,0.615801990032196
1772790950917741800,10.691741943359375,0.7408242225646973,0.9774668216705322,0.9164185523986816
1772790950937773800,10.71177392578125,0.7846062779426575,0.8387410044670105,1.16114342212677
1772790950957806800,10.731806884765625,0.8792856931686401,0.6680392026901245,1.3343955278396606
1772790950977839600,10.751839599609376,0.9754495024681091,0.5186315774917603,1.4566024541854858
1772790950997873000,10.771872802734375,1.0067529678344727,0.47189584374427795,1.633632779121399
1772790951017905700,10.79190576171875,0.868419885635376,0.5104979276657104,1.7993812561035156
1772790951037937700,10.811937744140625,0.5947809815406799,0.5897738933563232,1.8110439777374268
1772790951057970700,10.831970703125,0.34293702244758606,0.6689460277557373,1.7121020555496216
1772790951078003700,10.852003662109375,0.07774848490953445,0.7547178864479065,1.453537106513977
1772790951098036700,10.87203662109375,-0.2522609233856201,0.8179239630699158,1.031881332397461
1772790951118069800,10.89206982421875,-0.5330756902694702,0.8362677097320557,0.536077082157135
1772790951138102800,10.912102783203125,-0.7411200404167175,0.8424956798553467,0.09907104820013046
1772790951158134800,10.932134765625,-0.9337145686149597,0.8262106776237488,-0.27569717168807983
1772790951178167800,10.952167724609374,-1.030042052268982,0.785930871963501,-0.5471994280815125
1772790951198200600,10.97220068359375,-1.0517669916152954,0.7234758138656616,-0.6328977346420288
1772790951218233900,10.99223388671875,-1.0236221551895142,0.8042919635772705,-0.7205266952514648
1772790951238266600,11.0122666015625,-0.9607513546943665,0.8730310797691345,-0.990273118019104
1772790951258298600,11.032298583984375,-0.9941672086715698,0.8323146104812622,-1.134189486503601
1772790951278331600,11.05233154296875,-0.9865471124649048,0.6900844573974609,-1.1586637496948242
1772790951298364700,11.07236474609375,-0.934658408164978,0.5048429369926453,-1.070751428604126
1772790951318397700,11.092397705078126,-0.8167305588722229,0.31305965781211853,-0.9809367656707764
1772790951338430700,11.1124306640625,-0.6109231114387512,0.16911165416240692,-0.9297922253608704
1772790951358463700,11.132463623046876,-0.3441902697086334,0.10801912844181061,-0.8243806958198547
1772790951378495700,11.152495849609375,-0.06611320376396179,0.149400532245636,-0.7047808170318604
1772790951398528800,11.17252880859375,0.21141491830348969,0.21818050742149353,-0.5769813656806946
1772790951418561800,11.192561767578125,0.4628359377384186,0.29856589436531067,-0.4200853109359741
1772790951438594800,11.2125947265625,0.7005598545074463,0.4080441892147064,-0.2660193145275116
1772790951458627600,11.232627685546875,0.9329747557640076,0.6218085885047913,-0.11918503791093826
1772790951478660900,11.252660888671874,1.045504093170166,0.9244874715805054,-0.10870726406574249
1772790951498692900,11.27269287109375,1.0101724863052368,1.2112292051315308,-0.15502290427684784
1772790951518725600,11.2927255859375,0.857217013835907,1.4993810653686523,-0.03854028508067131
1772790951538758700,11.312758544921875,0.6170126795768738,1.845220685005188,0.3722690939903259
1772790951558791700,11.332791748046875,0.41256919503211975,2.264484167098999,1.0302623510360718
1772790951578824700,11.35282470703125,0.37123045325279236,2.7771213054656982,1.7894775867462158
1772790951598856700,11.372856689453124,0.553857684135437,3.283135414123535,2.464493751525879
1772790951618889700,11.3928896484375,0.9484730362892151,3.8140335083007812,2.937269687652588
1772790951638922800,11.4129228515625,1.5353432893753052,4.320958137512207,3.1809146404266357
1772790951658955800,11.432955810546876,2.211993932723999,4.779752731323242,3.1620233058929443
1772790951678988800,11.45298876953125,2.861564874649048,5.11932897567749,2.899430751800537
1772790951699021800,11.473021728515626,3.345951795578003,5.232395172119141,2.4549224376678467
1772790951719053800,11.4930537109375,3.653921365737915,5.063116550445557,1.820910096168518
1772790951739086600,11.513086669921876,3.775200366973877,4.565420150756836,1.1190088987350464
1772790951759120000,11.533119873046875,3.7779791355133057,3.8562848567962646,0.45455676317214966
1772790951779152600,11.553152587890626,3.7714295387268066,2.982912302017212,-0.145249143242836
1772790951799185700,11.573185546875,3.7612199783325195,2.025878429412842,-0.5994527339935303
1772790951819217700,11.5932177734375,3.7926416397094727,1.0286145210266113,-0.8810702562332153
1772790951839250700,11.613250732421875,3.816957712173462,-0.007987188175320625,-0.9178379774093628
1772790951859283700,11.63328369140625,3.706864595413208,-0.9018034338951111,-0.790866494178772
1772790951879316700,11.653316650390625,3.4148011207580566,-1.569244146347046,-0.4866394102573395
1772790951899349800,11.673349853515624,3.0081913471221924,-2.0540037155151367,-0.13057471811771393
1772790951919382800,11.6933828125,2.633063554763794,-2.293804407119751,0.09092280268669128
1772790951939414800,11.713414794921874,2.372532606124878,-2.2293975353240967,0.2201048582792282
1772790951959447600,11.733447509765625,2.0803911685943604,-1.9644153118133545,0.27530422806739807
1772790951979480800,11.753480712890624,1.7739653587341309,-1.6613787412643433,0.26424330472946167
1772790951999513600,11.773513671875,1.4634870290756226,-1.3753198385238647,0.3013288974761963
1772790952019546600,11.793546630859375,1.1725674867630005,-1.1659704446792603,0.45282164216041565
1772790952039579600,11.81357958984375,0.930385947227478,-1.0230313539505005,0.6766370534896851
1772790952059612000,11.83361181640625,0.5982456803321838,-1.0228495597839355,0.7531974911689758
1772790952079644700,11.853644775390626,0.14694710075855255,-1.2640634775161743,0.42871883511543274
1772790952099677700,11.873677734375,-0.2955452501773834,-1.5826127529144287,-0.08997377753257751
1772790952119710700,11.893710693359376,-0.8188599944114685,-1.7407395839691162,-0.4827817976474762
1772790952139743700,11.91374365234375,-1.5725059509277344,-1.7806315422058105,-0.7877069115638733
1772790952159775700,11.933775634765626,-2.4601428508758545,-1.7448673248291016,-1.1587235927581787
1772790952179808500,11.95380859375,-3.319143772125244,-1.453157901763916,-1.5301321744918823
1772790952199841800,11.973841796875,-4.194122314453125,-0.7545590996742249,-1.7758586406707764
1772790952219874600,11.99387451171875,-5.0964674949646,0.2052171528339386,-1.8865177631378174
1772790952239907800,12.013907958984374,-5.840517044067383,1.400217890739441,-1.699188232421875
1772790952259940600,12.033940673828125,-6.391778469085693,2.7732105255126953,-0.9555540680885315
1772790952279972900,12.053972900390624,-6.645890712738037,3.995065927505493,0.2193673849105835
1772790952300005600,12.074005615234375,-6.602708339691162,4.6974663734436035,1.4906953573226929
1772790952320039000,12.094038818359374,-6.384908676147461,4.747030735015869,2.5638656616210938
1772790952340071700,12.11407177734375,-5.799381732940674,4.096436977386475,3.2616162300109863
1772790952360104700,12.134104736328124,-4.8073225021362305,3.111938238143921,3.6412744522094727
1772790952380136400,12.154136474609375,-3.4685137271881104,2.127474308013916,3.6090428829193115
1772790952400169500,12.17416943359375,-1.8057576417922974,1.032127857208252,3.039029598236084
1772790952420202500,12.194202392578125,-0.14794160425662994,-0.07771163433790207,2.0702807903289795
1772790952440235300,12.2142353515625,1.2134981155395508,-1.186633825302124,1.0300281047821045
1772790952460268500,12.2342685546875,2.284531593322754,-2.2294652462005615,0.09188283979892731
1772790952480301300,12.25430126953125,3.066592216491699,-3.194819450378418,-0.6486498117446899
1772790952500333600,12.27433349609375,3.4748950004577637,-4.17565393447876,-1.186326503753662
1772790952520366300,12.294366455078125,3.5063350200653076,-5.194784641265869,-1.561764121055603
1772790952540399600,12.314399658203126,3.252584218978882,-5.9873433113098145,-1.6262568235397339
1772790952560432400,12.334432373046875,2.8083488941192627,-6.284717559814453,-1.4511446952819824
1772790952580465700,12.354465576171876,2.245626449584961,-5.918386936187744,-1.1252135038375854
1772790952600498400,12.37449853515625,1.6616166830062866,-5.0497355461120605,-0.7909324169158936
1772790952620530400,12.394530517578126,1.13370943069458,-3.639941692352295,-0.5236687064170837
1772790952640563500,12.4145634765625,0.572900652885437,-1.5961562395095825,-0.19596245884895325
1772790952660596500,12.434596435546876,-0.10507377237081528,0.7084505558013916,0.29714176058769226
1772790952680629500,12.45462939453125,-0.8551221489906311,2.624267339706421,0.8527476787567139
1772790952700662300,12.474662353515624,-1.5612738132476807,3.797412633895874,1.4052059650421143
1772790952720695600,12.494695556640625,-2.10209321975708,4.308539390563965,2.025787591934204
1772790952740727600,12.5147275390625,-2.4865071773529053,4.601322650909424,2.7028050422668457
1772790952760760600,12.534760498046875,-2.5922038555145264,5.1818318367004395,3.2769765853881836
1772790952780793300,12.55479345703125,-2.4757442474365234,5.613232612609863,3.8257126808166504
1772790952800826600,12.57482666015625,-0.694714367389679,3.871184825897217,4.068771839141846
1772790952820859400,12.594859375,0.1286599189043045,2.4361603260040283,2.3422605991363525
1772790952840892700,12.614892578125,-0.6023679375648499,1.4654494524002075,0.32962504029273987
1772790952860924400,12.63492431640625,-1.1923458576202393,1.2539350986480713,-0.946144700050354
1772790952880957400,12.65495751953125,-1.4949349164962769,1.3689838647842407,-1.6231111288070679
1772790952900990500,12.674990478515625,-1.451379418373108,1.2107428312301636,-2.1800918579101562
1772790952921023500,12.6950234375,-1.1523586511611938,1.320258617401123,-2.4404077529907227
1772790952941056500,12.715056396484375,-0.7038641571998596,1.4828522205352783,-2.3661365509033203
1772790952961089300,12.73508935546875,-0.2689383924007416,1.4807249307632446,-2.373035192489624
1772790952981121500,12.75512158203125,0.18674321472644806,1.0056402683258057,-2.2245523929595947
1772790953001154300,12.775154296875,0.5304560661315918,0.3767089247703552,-2.0217082500457764
1772790953021187600,12.7951875,0.674796462059021,-0.3372518718242645,-2.065110206604004
1772790953041220400,12.815220458984374,0.7836846113204956,-1.1367708444595337,-2.2480289936065674
1772790953061253600,12.835253662109375,0.9539682865142822,-1.8738141059875488,-2.529616355895996
1772790953081285400,12.855285400390626,1.183234453201294,-2.5228593349456787,-2.7479145526885986
1772790953101318400,12.875318359375,1.4645940065383911,-2.860100746154785,-2.6679813861846924
1772790953121351400,12.895351318359374,1.8582251071929932,-2.8239378929138184,-2.4929237365722656
1772790953141384400,12.915384521484375,2.296823024749756,-2.4665749073028564,-2.2719321250915527
1772790953161417500,12.93541748046875,2.6955504417419434,-1.893933653831482,-2.0899813175201416
1772790953181450200,12.9554501953125,2.990103244781494,-1.206086277961731,-1.955140471458435
1772790953201482500,12.975482421875,3.1245365142822266,-0.17117540538311005,-1.7206072807312012
1772790953221515500,12.995515625,3.051166296005249,0.9678641557693481,-1.3887958526611328
1772790953241548500,13.015548583984375,2.8284168243408203,1.9250832796096802,-1.123048186302185
1772790953261581300,13.035581298828125,2.4718010425567627,2.4548935890197754,-0.9494980573654175
1772790953281614600,13.055614501953125,2.026639461517334,2.509122848510742,-0.8011830449104309
1772790953301647400,13.0756474609375,1.6445080041885376,2.2449445724487305,-0.6314016580581665
1772790953321679600,13.0956796875,1.447730302810669,1.779128909111023,-0.48648473620414734
1772790953341712400,13.11571240234375,1.441226840019226,1.2342267036437988,-0.31227248907089233
1772790953361745700,13.13574560546875,1.5220497846603394,0.5347383618354797,-0.10166419297456741
1772790953381778200,13.155778076171876,1.5783621072769165,-0.0728938952088356,0.14285285770893097
1772790953401811200,13.175811279296875,1.5057542324066162,-0.43506985902786255,0.4186987280845642
1772790953421844200,13.19584423828125,1.2347080707550049,-0.6133103370666504,0.7088068723678589
1772790953441876200,13.215876220703125,0.7890027165412903,-0.6393629908561707,1.0038695335388184
1772790953461909200,13.2359091796875,0.2477930784225464,-0.4968433976173401,1.3497430086135864
1772790953481942300,13.2559423828125,-0.26215559244155884,-0.17144128680229187,1.6845144033432007
1772790953501975300,13.275975341796874,-0.5620865225791931,0.03868098556995392,1.8896992206573486
1772790953522008000,13.296008056640625,-0.6189483404159546,0.04326310381293297,1.7990450859069824
1772790953542041300,13.316041259765624,-0.5613200068473816,-0.14277145266532898,1.4144649505615234
1772790953562073300,13.3360732421875,-0.4739008843898773,-0.43772491812705994,0.7192468643188477
1772790953582106000,13.356106201171874,-0.40524107217788696,-0.7612203359603882,-0.23122882843017578
1772790953602139100,13.37613916015625,-0.5136718153953552,-1.1302331686019897,-0.8827886581420898
1772790953622172200,13.396172119140624,-0.7660359740257263,-1.462607741355896,-1.005548357963562
1772790953642205200,13.416205078125,-1.1568164825439453,-1.7882561683654785,-0.5862518548965454
1772790953662238200,13.43623828125,-1.780222773551941,-2.1004841327667236,0.09852931648492813
1772790953682270200,13.456270263671875,-2.5537948608398438,-2.358301877975464,0.6617329716682434
1772790953702303200,13.47630322265625,-3.2694075107574463,-2.7066690921783447,0.8225253820419312
1772790953722336300,13.496336181640626,-3.8129587173461914,-3.1037144660949707,0.3927064836025238
1772790953742369300,13.516369384765625,-4.0887274742126465,-3.394780158996582,-0.31409648060798645
1772790953762402300,13.53640234375,-4.04952335357666,-3.225999593734741,-0.93671053647995
1772790953782435000,13.55643505859375,-3.8029556274414062,-2.342923402786255,-1.3267325162887573
1772790953802467000,13.576467041015626,-3.48272967338562,-0.8171415328979492,-1.3399747610092163
1772790953822500400,13.596500244140625,-3.1180272102355957,0.9930076003074646,-0.9271172881126404
1772790953842533000,13.616533203125,-2.4816582202911377,2.6985480785369873,-0.21785514056682587
1772790953862566100,13.636566162109375,-1.3302421569824219,3.7465646266937256,0.43456006050109863
1772790953882599200,13.65659912109375,-0.24878348410129547,3.798609733581543,0.5853824019432068
1772790953902632200,13.676632080078125,0.38303303718566895,3.0392959117889404,0.1368396282196045
1772790953922664200,13.696664306640624,0.6851368546485901,1.7813440561294556,-0.7061329483985901
1772790953942697200,13.716697265625,0.8398253321647644,0.39289939403533936,-1.4080288410186768
1772790953962730200,13.736730224609374,0.9991386532783508,-0.9137800931930542,-1.6783273220062256
1772790953982763300,13.75676318359375,1.1314101219177246,-2.081449270248413,-1.6110979318618774
1772790954002796300,13.77679638671875,1.0956473350524902,-3.070157051086426,-1.2832695245742798
1772790954022828300,13.796828369140625,0.8407986164093018,-3.8070414066314697,-0.8168374300003052
1772790954042861300,13.816861328125,0.3982091248035431,-4.231752395629883,-0.35255569219589233
1772790954062894300,13.836894287109375,-0.17727358639240265,-4.287942409515381,-0.03058777004480362
1772790954082927000,13.856927001953125,-0.5671771764755249,-3.965102434158325,0.10577964037656784
1772790954102960000,13.876960205078126,-0.6416119933128357,-3.227863073348999,0.2179218977689743
1772790954122993200,13.8969931640625,-0.5423223972320557,-2.184307336807251,0.36368176341056824
1772790954143025200,13.917025146484375,-0.42809173464775085,-1.0077084302902222,0.42977702617645264
1772790954163058200,13.93705810546875,-0.33458730578422546,0.13303285837173462,0.4375816285610199
1772790954183091200,13.95709130859375,-0.3043302297592163,1.0543166399002075,0.5378915667533875
1772790954203124200,13.977124267578125,-0.26725584268569946,1.5965940952301025,0.9085839986801147
1772790954223157200,13.9971572265625,-0.1381775140762329,1.6421750783920288,1.5340838432312012
1772790954243190300,14.017190185546875,-0.01887589320540428,1.1144018173217773,1.9603970050811768
1772790954263222300,14.03722216796875,0.21587321162223816,0.5319490432739258,1.6103062629699707
1772790954283255300,14.05725537109375,0.43815168738365173,0.225832000374794,0.6175423264503479
1772790954303288300,14.077288330078124,0.3475567698478699,-0.057611122727394104,-0.48743027448654175
1772790954323321300,14.0973212890625,0.1844366192817688,-0.2231457233428955,-1.4843080043792725
1772790954343354000,14.11735400390625,0.20719148218631744,-0.28726276755332947,-2.145925760269165
1772790954363387100,14.13738720703125,0.2999456226825714,-0.25772562623023987,-2.3682732582092285
1772790954383419600,14.157419677734374,0.45267489552497864,-0.10935995727777481,-2.3294413089752197
1772790954403452700,14.17745263671875,0.6292871236801147,0.06362456828355789,-2.0809285640716553
1772790954423485700,14.197485595703125,0.7639959454536438,0.12471926957368851,-1.7382595539093018
1772790954443518700,14.217518798828126,0.8342791199684143,0.03399461880326271,-1.2582848072052002
1772790954463551700,14.2375517578125,0.9153526425361633,-0.11172997951507568,-0.7705544829368591
1772790954483584800,14.257584716796876,1.0318994522094727,-0.25113797187805176,-0.3592833876609802
1772790954503616800,14.27761669921875,1.190290093421936,-0.35979440808296204,0.011599455028772354
1772790954523649800,14.29764990234375,1.3557348251342773,-0.44042694568634033,0.45443210005760193
1772790954543682800,14.317682861328125,1.5450091361999512,-0.34139320254325867,0.942408561706543
1772790954563715600,14.337715576171876,1.7346795797348022,-0.08904372900724411,1.4069221019744873
1772790954583748900,14.357748779296875,1.8950726985931396,0.3095003068447113,1.7913175821304321
1772790954603781600,14.37778173828125,2.004765510559082,0.8413881063461304,2.0172057151794434
1772790954623813600,14.397813720703125,1.9854503870010376,1.355396032333374,2.1201703548431396
1772790954643846700,14.4178466796875,1.7839995622634888,1.776147484779358,2.1681249141693115
1772790954663879700,14.437879638671875,1.4347541332244873,2.116312026977539,2.0703606605529785
1772790954683912700,14.45791259765625,1.01926589012146,2.3101119995117188,1.8296905755996704
1772790954703945700,14.47794580078125,0.636122465133667,2.32790207862854,1.523825764656067
1772790954723978800,14.497978759765624,0.3779595196247101,2.1588566303253174,1.2426737546920776
1772790954744010800,14.5180107421875,0.29762980341911316,1.8592413663864136,1.0528298616409302
1772790954764043800,14.538043701171874,0.3894195258617401,1.4856714010238647,0.9181908965110779
1772790954784076800,14.558076904296875,0.6491147875785828,1.089632511138916,0.7208624482154846
1772790954804109800,14.57810986328125,0.9905925393104553,0.6340436935424805,0.4748181104660034
1772790954824142600,14.598142578125,1.2797701358795166,0.14713840186595917,0.2203029990196228
1772790954844174600,14.618174560546874,1.464847445487976,-0.3728611469268799,-0.020254172384738922
1772790954864208000,14.638207763671875,1.5365028381347656,-0.874370813369751,-0.22485695779323578
1772790954884240600,14.65824072265625,1.477491855621338,-1.273070216178894,-0.34070277214050293
1772790954904273700,14.678273681640626,1.3167644739151,-1.523812174797058,-0.3519017994403839
1772790954924306700,14.698306640625,1.0998597145080566,-1.6401419639587402,-0.291288286447525
1772790954944339700,14.718339599609376,0.8458975553512573,-1.6125962734222412,-0.1581365168094635
1772790954964372700,14.738372802734375,0.5537644028663635,-1.5093969106674194,0.01445905864238739
1772790954984404700,14.75840478515625,0.2095855176448822,-1.3578053712844849,0.1993691474199295
1772790955004437800,14.778437744140625,-0.18080684542655945,-1.209751009941101,0.321299284696579
1772790955024470800,14.798470703125,-0.5821004509925842,-1.055031418800354,0.31909093260765076
1772790955044503800,14.81850390625,-0.9434380531311035,-0.8577340245246887,0.07120618969202042
1772790955064536800,14.838536865234374,-1.2546172142028809,-0.6620544791221619,-0.4090467691421509
1772790955084569600,14.858569580078125,-1.5650440454483032,-0.6065846085548401,-0.8268606662750244
1772790955104601600,14.8786015625,-1.8603999614715576,-0.6248553395271301,-1.035882592201233
1772790955124634600,14.898634521484375,-2.0929877758026123,-0.608246922492981,-1.1740819215774536
1772790955144667600,14.918667724609374,-2.2528443336486816,-0.5618463158607483,-1.296557903289795
1772790955164700700,14.93870068359375,-2.3470194339752197,-0.4870838224887848,-1.4581873416900635
1772790955184733700,14.958733642578125,-2.385035514831543,-0.45346781611442566,-1.5951199531555176
1772790955204765700,14.978765625,-2.4254846572875977,-0.4751952290534973,-1.6633765697479248
1772790955224798700,14.998798828125,-2.5070149898529053,-0.4921838641166687,-1.625624179840088
1772790955244831700,15.018831787109375,-2.6014952659606934,-0.4368390440940857,-1.4585561752319336
1772790955264864800,15.03886474609375,-2.6551132202148438,-0.20099997520446777,-1.2175947427749634
1772790955284897800,15.058897705078126,-2.6162421703338623,0.1477341502904892,-0.9703400135040283
1772790955304930600,15.0789306640625,-2.4482197761535645,0.5041687488555908,-0.7261136174201965
1772790955324963800,15.0989638671875,-2.142341375350952,0.8249264359474182,-0.5295715928077698
1772790955344995800,15.118995849609375,-1.6839457750320435,0.9355760812759399,-0.41762667894363403
1772790955365028600,15.139028564453126,-1.1296263933181763,0.7300389409065247,-0.4110456705093384
1772790955385061400,15.159061279296875,-0.5589625835418701,0.2169099599123001,-0.5084274411201477
1772790955405094700,15.1790947265625,-0.06635593622922897,-0.4979531168937683,-0.6426281929016113
1772790955425127400,15.19912744140625,0.33309218287467957,-1.2463747262954712,-0.7187750935554504
1772790955445159400,15.219159423828126,0.6607803702354431,-1.8921010494232178,-0.7028087973594666
1772790955465192400,15.2391923828125,0.8508390188217163,-2.443901777267456,-0.5614785552024841
1772790955485225500,15.2592255859375,0.8167220950126648,-2.941166639328003,-0.4820304811000824
1772790955505258500,15.279258544921875,0.5667279958724976,-3.4519901275634766,-0.6062043309211731
1772790955525291500,15.29929150390625,0.18402443826198578,-3.746910333633423,-0.7117109894752502
1772790955545324500,15.319324462890625,-0.4298968017101288,-4.023594379425049,-0.7757314443588257
1772790955565357600,15.339357666015625,-1.1215282678604126,-4.257631301879883,-1.1187126636505127
1772790955585389600,15.3593896484375,-1.4524617195129395,-4.143709659576416,-1.3764759302139282
1772790955605422600,15.379422607421875,-1.364338755607605,-3.5575203895568848,-1.1099821329116821
1772790955625455600,15.39945556640625,-1.0919911861419678,-2.594180107116699,-0.2601111829280853
1772790955645488400,15.41948828125,-0.9201070666313171,-1.596368432044983,0.7983704805374146
1772790955665521700,15.439521728515626,-1.0300869941711426,-0.9323114156723022,1.4549344778060913
1772790955685553700,15.4595537109375,-1.103005051612854,-0.6229422688484192,1.479583501815796
1772790955705586400,15.47958642578125,-1.042564034461975,-0.45266249775886536,1.0723257064819336
1772790955725619500,15.499619384765625,-0.8787306547164917,-0.16492445766925812,0.45282647013664246
1772790955745652500,15.519652587890626,-0.6810590028762817,0.26764899492263794,-0.04685642570257187
1772790955765685500,15.539685546875,-0.4336870312690735,0.8955081701278687,-0.5058912038803101
1772790955785718500,15.559718505859376,-0.1735362410545349,1.6146574020385742,-0.9033608436584473
1772790955805750500,15.57975048828125,-0.03125497326254845,2.2174744606018066,-1.0626144409179688
1772790955825783600,15.599783447265626,0.03253445029258728,2.665891647338867,-0.9756532311439514
1772790955845816600,15.619816650390625,0.19160033762454987,2.8418374061584473,-0.6600967645645142
1772790955865849600,15.639849609375,0.5137258172035217,2.7637500762939453,-0.447202205657959
1772790955885882600,15.659882568359375,0.9201332926750183,2.385716199874878,-0.3803057074546814
1772790955905915400,15.679915283203124,1.3079882860183716,1.7156480550765991,-0.46669891476631165
1772790955925947400,15.699947509765625,1.6424661874771118,0.8443276882171631,-0.6309952139854431
1772790955945980700,15.719980712890624,1.9369505643844604,-0.04617954418063164,-0.7612009048461914
1772790955966013400,15.740013427734375,2.1416056156158447,-0.8541043996810913,-0.702796459197998
1772790955986046500,15.76004638671875,2.268780469894409,-1.388022541999817,-0.48140954971313477
1772790956006079500,15.78007958984375,2.3504152297973633,-1.6348518133163452,-0.20856285095214844
1772790956026112500,15.800112548828125,2.403764247894287,-1.575019359588623,0.06882641464471817
1772790956046144500,15.82014453125,2.385206699371338,-1.251455545425415,0.3859514892101288
1772790956066177500,15.840177490234375,2.2133004665374756,-0.7279388308525085,0.7381910681724548
1772790956086210600,15.86021044921875,1.8986189365386963,-0.017251374199986458,1.1252435445785522
1772790956106243600,15.88024365234375,1.5040286779403687,0.8814877867698669,1.4972397089004517
1772790956126276600,15.900276611328126,1.024686336517334,1.9033204317092896,1.8302128314971924
1772790956146309600,15.9203095703125,0.5062109231948853,2.992551803588867,2.1570956707000732
1772790956166342400,15.94034228515625,0.015500502660870552,3.9734513759613037,2.4385600090026855
1772790956186374400,15.96037451171875,-0.3326739966869354,4.817452907562256,2.651141881942749
1772790956206407400,15.980407470703126,-0.5231927037239075,5.448424816131592,2.8494536876678467
1772790956226440400,16.0004404296875,-0.55515456199646,5.7908549308776855,2.934762477874756
1772790956246473500,16.020473388671874,-0.3860400915145874,5.857682228088379,2.8837835788726807
1772790956266506500,16.040506591796873,-0.09138937294483185,5.589379787445068,2.649266004562378
1772790956286539500,16.06053955078125,0.24773989617824554,4.949282646179199,2.195936918258667
1772790956306571500,16.080571533203123,0.5394988656044006,3.994781255722046,1.5625685453414917
1772790956326604500,16.1006044921875,0.7888932228088379,2.7660131454467773,0.7630561590194702
1772790956346637600,16.120637451171874,0.9457230567932129,1.4251028299331665,-0.09227419644594193
1772790956366670600,16.140670654296876,0.9883098602294922,0.06576582789421082,-0.8517622351646423
1772790956386703600,16.16070361328125,0.9639204740524292,-1.0794867277145386,-1.38249671459198
1772790956406736400,16.180736328125,0.9080888628959656,-1.9604517221450806,-1.6285285949707031
1772790956426768400,16.200768310546874,0.8646339774131775,-2.468535900115967,-1.6063989400863647
1772790956446801400,16.220801513671876,0.8525052666664124,-2.547480583190918,-1.3693768978118896
1772790956466834400,16.24083447265625,0.8561395406723022,-2.313936471939087,-0.9809811115264893
1772790956486867500,16.260867431640627,0.8577090501785278,-1.858557939529419,-0.5406512022018433
1772790956506900200,16.280900146484374,0.8788228631019592,-1.2339234352111816,-0.2254638671875
1772790956526933500,16.30093359375,0.8706471920013428,-0.6446003913879395,-0.18171998858451843
1772790956546965200,16.32096533203125,0.649147629737854,-0.25065335631370544,-0.13017955422401428
1772790956566998500,16.34099853515625,0.3459555208683014,-0.004154900088906288,-0.09929194301366806
1772790956587031300,16.36103125,0.042737796902656555,0.16933436691761017,-0.07073907554149628
1772790956607064600,16.381064697265625,-0.13695144653320312,0.30340340733528137,0.030876856297254562
1772790956627097300,16.401097412109376,-0.19094671308994293,0.561311662197113,0.3149263858795166
1772790956647130400,16.42113037109375,-0.07536705583333969,0.8197455406188965,0.8872278928756714
1772790956667165200,16.441165283203127,0.019252896308898926,1.1432766914367676,1.9612520933151245
1772790956687197400,16.461197509765626,-0.16747553646564484,1.3289577960968018,2.9065585136413574
1772790956707230200,16.481230224609376,-0.6987777948379517,1.179733395576477,2.9720494747161865
1772790956727263500,16.501263427734376,-1.2789984941482544,0.857402503490448,1.9435242414474487
1772790956747296300,16.521296142578127,-1.7472971677780151,0.5807339549064636,0.4633346199989319
1772790956767329500,16.54132958984375,-2.1010031700134277,0.3951846957206726,-0.8409146666526794
1772790956787362300,16.5613623046875,-2.239168167114258,0.37581223249435425,-1.6828416585922241
1772790956807394600,16.58139453125,-2.1818087100982666,0.46280935406684875,-2.0167672634124756
1772790956827427300,16.60142724609375,-2.0351052284240723,0.4891538619995117,-1.935585618019104
1772790956847460600,16.621460693359374,-1.7818583250045776,0.31324756145477295,-1.524716854095459
1772790956867493400,16.641493408203125,-1.4602923393249512,0.08817072957754135,-0.9671473503112793
1772790956887526400,16.6615263671875,-1.1106727123260498,-0.10671444982290268,-0.4501098096370697
1772790956907559400,16.681559326171875,-0.7773886322975159,-0.1447729617357254,-0.009504647925496101
1772790956927591400,16.70159130859375,-0.4382466971874237,-0.030277084559202194,0.33781537413597107
1772790956947624400,16.72162451171875,-0.05754652991890907,0.15335029363632202,0.5673413872718811
1772790956967657200,16.7416572265625,0.3070279359817505,0.31692540645599365,0.723137617111206
1772790956987690500,16.7616904296875,0.6348453760147095,0.39795586466789246,0.8538975119590759
1772790957007723300,16.78172314453125,0.8534023761749268,0.37703922390937805,0.9192510843276978
1772790957027756500,16.801756591796874,0.92816162109375,0.30682921409606934,0.967461884021759
1772790957047789300,16.821789306640625,0.8422561287879944,0.18598978221416473,0.9648749232292175
1772790957067821600,16.841821533203124,0.6691098213195801,0.12641434371471405,0.9118158221244812
1772790957087854300,16.861854248046875,0.4490804970264435,0.1025458350777626,0.7304773926734924
1772790957107887600,16.8818876953125,0.2619769871234894,0.17950227856636047,0.40238094329833984
1772790957127920400,16.90192041015625,0.12834486365318298,0.29444077610969543,0.09098665416240692
1772790957147953400,16.921953369140624,0.0902741402387619,0.3976556956768036,0.02980290725827217
1772790957167986400,16.941986328125,0.24710460007190704,0.6703284382820129,0.3385252356529236
1772790957188018400,16.962018310546874,0.4974989593029022,1.066537857055664,1.022882103919983
1772790957208051500,16.982051513671873,0.6825281381607056,1.6091707944869995,1.8044041395187378
1772790957228084200,17.002084228515624,0.7483176589012146,2.186760425567627,2.308835506439209
1772790957248117500,17.022117431640623,0.7962135076522827,2.7110755443573,2.3387954235076904
1772790957268150300,17.042150390625,0.7665924429893494,3.0227630138397217,1.9648513793945312
1772790957288183600,17.06218359375,0.628767192363739,3.0900118350982666,1.371133804321289
1772790957308215300,17.08221533203125,0.4753662049770355,2.965927839279175,0.7586909532546997
1772790957328248600,17.10224853515625,0.36580246686935425,2.736583948135376,0.28973135352134705
1772790957348281300,17.12228125,0.29743140935897827,2.4750311374664307,0.05466420575976372
1772790957368313900,17.14231396484375,0.2786684036254883,2.1969354152679443,-0.024410974234342575
1772790957388347000,17.162346923828125,0.33839675784111023,1.9415674209594727,-0.027501750737428665
1772790957408380000,17.1823798828125,0.4608495533466339,1.7322404384613037,0.07854249328374863
1772790957428412000,17.202411865234374,0.6076894998550415,1.6065013408660889,0.24731363356113434
1772790957448445000,17.22244482421875,0.739931046962738,1.5612452030181885,0.43017059564590454
1772790957468478000,17.24247802734375,0.8298081159591675,1.5461865663528442,0.5790349841117859
1772790957488510700,17.2625107421875,0.8787084817886353,1.551870346069336,0.6962839961051941
1772790957508544000,17.2825439453125,0.8782986998558044,1.594632625579834,0.774040162563324
1772790957528576800,17.30257666015625,0.8678118586540222,1.6736806631088257,0.8287254571914673
1772790957548608800,17.32260888671875,0.8423604369163513,1.7936815023422241,0.8938398361206055
1772790957568641800,17.342641845703124,0.7969338297843933,1.9447211027145386,0.9708371758460999
1772790957588674800,17.3626748046875,0.7414211630821228,2.0922648906707764,1.0125163793563843
1772790957608707800,17.382707763671874,0.6925228238105774,2.195943832397461,0.9964274764060974
1772790957628740900,17.402740966796873,0.6644434928894043,2.197561502456665,0.9317761659622192
1772790957648774000,17.42277392578125,0.6665703058242798,2.1408605575561523,0.8328913450241089
1772790957668807000,17.442806884765623,0.6893777251243591,1.9722875356674194,0.7283579707145691
1772790957688839000,17.4628388671875,0.7223206162452698,1.6961414813995361,0.634486973285675
1772790957708872000,17.482871826171873,0.7719584703445435,1.3261284828186035,0.532640278339386
1772790957728905000,17.502905029296876,0.8128387928009033,0.884686291217804,0.44903019070625305
1772790957748937700,17.522937744140624,0.8317400217056274,0.4271848201751709,0.43531712889671326
1772790957768971000,17.542970947265626,0.819141149520874,0.06738795340061188,0.5094244480133057
1772790957789003800,17.563003662109374,0.765586793422699,-0.20776663720607758,0.6482904553413391
1772790957809035800,17.583035888671876,0.6847640872001648,-0.36622121930122375,0.8172944784164429
1772790957829068800,17.60306884765625,0.6095240116119385,-0.3972933888435364,0.9817386269569397
1772790957849101800,17.623101806640626,0.5322219133377075,-0.28931039571762085,1.153390645980835
1772790957869134800,17.643134765625,0.42973387241363525,-0.04494626820087433,1.3963687419891357
1772790957889168000,17.66316796875,0.3424232602119446,0.3532962501049042,1.6953951120376587
1772790957909201000,17.683200927734376,0.3232576549053192,0.8692410588264465,2.016185760498047
1772790957929233000,17.70323291015625,0.3636205494403839,1.416202187538147,2.3158328533172607
1772790957949266000,17.723265869140626,0.4425998032093048,1.9149070978164673,2.56807541847229
1772790957969299000,17.743298828125,0.5104001760482788,2.2720704078674316,2.750422239303589
1772790957989332000,17.76333203125,0.5762757062911987,2.491772413253784,2.873812198638916
1772790958009364700,17.78336474609375,0.6141907572746277,2.6309707164764404,2.9558136463165283
1772790958029398000,17.80339794921875,0.635775625705719,2.716557502746582,3.0244879722595215
1772790958049430000,17.823429931640625,0.6560735106468201,2.7742788791656494,3.030534505844116
1772790958069462800,17.843462890625,0.6727542877197266,2.7831101417541504,2.9736578464508057
1772790958089495800,17.863495849609375,0.6721756458282471,2.7666614055633545,2.8643381595611572
1772790958109528800,17.88352880859375,0.6592893600463867,2.704040765762329,2.7007946968078613
1772790958129561900,17.903561767578125,0.6426849961280823,2.608074188232422,2.432123899459839
1772790958149595000,17.923594970703125,0.6180304288864136,2.4302523136138916,2.054996967315674
1772790958169627000,17.943626953125,0.5699611306190491,2.1525931358337402,1.605681300163269
1772790958189660000,17.963659912109375,0.4752346873283386,1.7397692203521729,1.1218394041061401
1772790958209693000,17.98369287109375,0.3533036708831787,1.2396427392959595,0.7109820246696472
1772790958229726000,18.003725830078125,0.22831425070762634,0.7678228616714478,0.4390485882759094
1772790958249759000,18.023759033203124,0.11841888725757599,0.43472179770469666,0.358384907245636
1772790958269791700,18.043791748046875,-0.027643896639347076,0.30005699396133423,0.4404734969139099
1772790958289823700,18.06382373046875,-0.17911109328269958,0.3299134075641632,0.6026701331138611
1772790958309856800,18.083856689453125,-0.3271512985229492,0.5463663339614868,0.883443295955658
1772790958329889800,18.103889892578124,-0.4014917314052582,0.9488130211830139,1.2583597898483276
1772790958349922800,18.1239228515625,-0.42388829588890076,1.3729028701782227,1.6144952774047852
1772790958369956600,18.14395654296875,-0.3723810613155365,1.762622356414795,1.7475923299789429
1772790958389989400,18.1639892578125,-0.31445077061653137,2.0067265033721924,1.6736268997192383
1772790958410021600,18.184021728515624,-0.32190269231796265,2.029174566268921,1.3382095098495483
1772790958430054400,18.204054443359375,-0.35603219270706177,1.8267474174499512,0.6240224242210388
1772790958450087400,18.22408740234375,-0.36257413029670715,1.302801489830017,-0.2881423532962799
1772790958470120400,18.244120361328125,-0.31067243218421936,0.6224587559700012,-1.1959933042526245
1772790958490153500,18.264153564453125,-0.16824518144130707,-0.1285635232925415,-2.0334761142730713
1772790958510186500,18.2841865234375,0.0659845769405365,-0.8449990749359131,-2.736299514770508
1772790958530219500,18.304219482421875,0.35474517941474915,-1.5044409036636353,-3.277733087539673
1772790958550251500,18.32425146484375,0.656221866607666,-2.0692946910858154,-3.5929970741271973
1772790958570284300,18.3442841796875,0.8567603826522827,-2.5542612075805664,-3.673044443130493
1772790958590317600,18.364317626953124,0.9450178146362305,-2.871603012084961,-3.489335298538208
1772790958610350300,18.384350341796875,0.8685489296913147,-2.8627707958221436,-3.0302886962890625
1772790958630383600,18.404383544921874,0.6662243008613586,-2.462892532348633,-2.433157444000244
1772790958650416400,18.42441650390625,0.37541458010673523,-1.8197256326675415,-1.8290719985961914
1772790958670448600,18.44444873046875,0.058448247611522675,-1.1630780696868896,-1.316064715385437
1772790958690481400,18.4644814453125,-0.2115892916917801,-0.6015529632568359,-0.9141577482223511
1772790958710514400,18.484514404296874,-0.4392223060131073,-0.1752912700176239,-0.5637301802635193
1772790958730547500,18.50454736328125,-0.6440836191177368,0.10678330063819885,-0.29213446378707886
1772790958750580500,18.52458056640625,-0.8598803877830505,0.2190600037574768,-0.10350746661424637
1772790958770613500,18.544613525390623,-1.112604022026062,0.19292354583740234,0.0667685940861702
1772790958790645200,18.564645263671874,-1.3871349096298218,0.09115621447563171,0.21319350600242615
1772790958810678500,18.584678466796873,-1.64608895778656,-0.011715767905116081,0.36325183510780334
1772790958830711300,18.604711181640624,-1.8715696334838867,-0.1026809811592102,0.4375031888484955
1772790958850744600,18.62474462890625,-2.0436999797821045,-0.15862157940864563,0.44237369298934937
1772790958870777300,18.64477734375,-2.1671767234802246,-0.18880385160446167,0.4468157887458801
1772790958890810400,18.664810302734374,-2.237741708755493,-0.20894673466682434,0.4757108986377716
1772790958910842400,18.68484228515625,-2.2707700729370117,-0.1863315850496292,0.4899420142173767
1772790958930875600,18.704875732421876,-2.2571797370910645,-0.14868693053722382,0.5120329260826111
1772790958950908400,18.724908447265626,-2.1838510036468506,-0.14799310266971588,0.6070981621742249
1772790958970941400,18.74494140625,-2.05796217918396,-0.25349536538124084,0.7065285444259644
1772790958990974500,18.764974365234377,-1.8899619579315186,-0.45629048347473145,0.6854472756385803
1772790959011007500,18.785007568359376,-1.7041734457015991,-0.7292371988296509,0.5829883813858032
1772790959031039500,18.80503955078125,-1.4259347915649414,-0.8771264553070068,0.33147695660591125
1772790959051072300,18.825072265625,-1.0775972604751587,-0.8704012036323547,0.0003296397626399994
1772790959071105500,18.84510546875,-0.8476309180259705,-0.8080353140830994,-0.13183417916297913
1772790959091138300,18.86513818359375,-0.7088549137115479,-0.6836578249931335,-0.11774936318397522
1772790959111171600,18.885171630859375,-0.5383504629135132,-0.509246289730072,-0.09412877261638641
1772790959131204400,18.905204345703126,-0.323255717754364,-0.3432144522666931,-0.15100431442260742
1772790959151236600,18.925236572265625,-0.10712797939777374,-0.276108980178833,-0.18748588860034943
1772790959171269400,18.945269287109376,0.1449001282453537,-0.29872551560401917,-0.18462111055850983
1772790959191302700,18.965302734375,0.40349048376083374,-0.3267868459224701,-0.16972115635871887
1772790959211335400,18.98533544921875,0.6119002103805542,-0.3352057933807373,-0.14732429385185242
1772790959231368400,19.005368408203125,0.7567688822746277,-0.27154821157455444,-0.10329008847475052
1772790959251401500,19.0254013671875,0.8772408366203308,-0.10087256878614426,-0.036844510585069656
1772790959271433500,19.04543359375,0.9757916331291199,0.14967595040798187,0.0911259651184082
1772790959291466500,19.065466552734375,1.0603762865066528,0.46955907344818115,0.35458728671073914
1772790959311499500,19.08549951171875,1.2239412069320679,0.845445454120636,0.5819208025932312
1772790959331532500,19.105532470703125,1.3520630598068237,1.1288487911224365,0.7454349994659424
1772790959351565300,19.1255654296875,1.4381159543991089,1.3416533470153809,0.883953332901001
1772790959371598800,19.145598876953127,1.482843041419983,1.4981392621994019,0.9809211492538452
1772790959391632000,19.1656318359375,1.4557756185531616,1.6712106466293335,1.033259391784668
1772790959411664000,19.185663818359377,1.2724888324737549,1.7799956798553467,0.9816011786460876
1772790959431696600,19.205696533203124,0.9519324898719788,1.8623026609420776,0.9562274217605591
1772790959451729700,19.225729736328127,0.6686544418334961,2.185990333557129,1.030587911605835
1772790959471762700,19.2457626953125,0.5075702667236328,2.756033182144165,1.1656770706176758
1772790959491795700,19.265795654296873,0.4672349691390991,3.388410806655884,1.213195562362671
1772790959511828700,19.285828857421876,0.5496001839637756,3.92460560798645,1.157021164894104
1772790959531860700,19.30586083984375,0.7735451459884644,4.214455604553223,0.9771279692649841
1772790959551893800,19.325893798828126,1.1022050380706787,4.26840353012085,0.7528389692306519
1772790959571926800,19.3459267578125,1.4902637004852295,4.023553848266602,0.4852558672428131
1772790959591959800,19.365959716796876,1.8714953660964966,3.4286861419677734,0.11102020740509033
1772790959611992800,19.385992919921875,2.185850143432617,2.4846351146698,-0.35920512676239014
1772790959632025600,19.406025634765626,2.403904914855957,1.2873064279556274,-0.8572366237640381
1772790959652057600,19.4260576171875,2.5154354572296143,-0.05173809081315994,-1.3041319847106934
1772790959672091000,19.4460908203125,2.5247180461883545,-1.3631795644760132,-1.6171177625656128
1772790959692123600,19.46612353515625,2.474447250366211,-2.392181873321533,-1.7274060249328613
1772790959712156700,19.48615673828125,2.3779964447021484,-3.067138433456421,-1.6645333766937256
1772790959732189700,19.506189697265626,2.2508151531219482,-3.315721273422241,-1.4301685094833374
1772790959752222700,19.52622265625,2.0743894577026367,-3.1837947368621826,-1.0657540559768677
1772790959772255700,19.546255859375,1.8649380207061768,-2.7683169841766357,-0.6278269290924072
1772790959792287700,19.566287841796875,1.6333484649658203,-2.2289485931396484,-0.14023804664611816
1772790959812320800,19.58632080078125,1.3754805326461792,-1.5535928010940552,0.2955680787563324
1772790959832353800,19.606353759765625,1.095239281654358,-0.9348095059394836,0.5829542279243469
1772790959852386800,19.62638671875,0.7488288879394531,-0.42792683839797974,0.7659067511558533
1772790959872419800,19.646419921875,0.3350050747394562,-0.09480345994234085,0.8434010148048401
1772790959892451800,19.666451904296874,-0.11959344148635864,0.03674231469631195,0.911121129989624
1772790959912484600,19.686484619140625,-0.608860194683075,0.0876598209142685,1.0458927154541016
1772790959932518000,19.706517822265624,-1.0420762300491333,0.15475471317768097,1.0026764869689941
1772790959952550700,19.726550537109375,-1.4172486066818237,0.15020358562469482,0.6856922507286072
1772790959972583700,19.746583740234374,-1.805773377418518,0.01579727604985237,0.19335046410560608
1772790959992616700,19.76661669921875,-2.2160046100616455,-0.2194848209619522,-0.3945627808570862
1772790960012649700,19.786649658203125,-2.6042580604553223,-0.461378276348114,-0.9774341583251953
1772790960032681700,19.806681640625,-2.97540545463562,-0.5932775735855103,-1.4731667041778564
1772790960052714800,19.82671484375,-3.3774993419647217,-0.5921530723571777,-1.9635778665542603
1772790960072747800,19.846747802734374,-3.923902750015259,-0.5553212761878967,-2.3601934909820557
1772790960092780800,19.86678076171875,-4.608860015869141,-0.47916746139526367,-2.500809669494629
1772790960112813800,19.886813720703124,-5.251762390136719,-0.3507571518421173,-2.3431975841522217
1772790960132846800,19.906846923828127,-5.681428909301758,-0.16942158341407776,-2.0239434242248535
1772790960152878800,19.92687890625,-5.85669469833374,0.0027942797169089317,-1.563425898551941
1772790960172911600,19.94691162109375,-5.6793532371521,0.07414789497852325,-1.005477786064148
1772790960192944600,19.966944580078124,-5.171442985534668,-0.10319478064775467,-0.36877113580703735
1772790960212977700,19.986977783203123,-4.393815994262695,-0.4210229218006134,0.38396120071411133
1772790960233008600,20.007008544921874,-3.4823436737060547,-0.7026849389076233,1.1344269514083862
1772790960253041000,20.027041015625,-2.577899694442749,-0.9100648760795593,1.7688360214233398
1772790960273073700,20.04707373046875,-1.645693302154541,-0.923107385635376,2.1910622119903564
1772790960293106700,20.067106689453126,-0.6641672253608704,-0.6950319409370422,2.45554256439209
1772790960313139700,20.0871396484375,0.1802515685558319,-0.2531748116016388,2.5719733238220215
1772790960333172700,20.1071728515625,0.7233397364616394,0.10325388610363007,2.3332359790802
1772790960353205800,20.127205810546876,1.0283197164535522,0.1050303652882576,1.6326380968093872
1772790960373237500,20.147237548828127,1.1606467962265015,-0.198611319065094,0.6518924236297607
1772790960393270500,20.1672705078125,1.271561861038208,-0.6887593865394592,-0.4092426002025604
1772790960413303600,20.187303466796877,1.4760130643844604,-1.2033060789108276,-1.2644243240356445
1772790960433336600,20.207336669921876,1.703071117401123,-1.4833002090454102,-1.8368690013885498
1772790960453369600,20.22736962890625,1.8930848836898804,-1.457994818687439,-2.144052505493164
1772790960473402600,20.247402587890626,1.932951807975769,-1.3259626626968384,-2.24869441986084
1772790960493435600,20.267435546875,1.906046748161316,-1.1816951036453247,-2.153001308441162
1772790960513467600,20.287467529296876,1.8921358585357666,-1.0602455139160156,-1.9545238018035889
1772790960533500700,20.307500732421875,1.8842588663101196,-0.7524738311767578,-1.6088744401931763
1772790960553533400,20.327533447265626,1.9010220766067505,-0.09762721508741379,-1.1003427505493164
1772790960573566700,20.347566650390625,1.8424426317214966,0.6761860847473145,-0.5633440613746643
1772790960593599500,20.367599609375,1.8298671245574951,1.3232392072677612,0.14344730973243713
1772790960613632800,20.3876328125,2.1449363231658936,1.4961847066879272,1.0529603958129883
1772790960633664500,20.40766455078125,2.108158588409424,1.8256069421768188,1.490350365638733
1772790960653698600,20.427698486328126,1.4003715515136719,1.9505952596664429,1.0453475713729858
1772790960673731600,20.447731689453125,0.5834090113639832,1.3421838283538818,0.05969635769724846
1772790960693764600,20.4677646484375,0.18343444168567657,0.4288894236087799,-0.7566244602203369
1772790960713797600,20.487797607421875,0.1472138613462448,-0.2505510747432709,-1.0566802024841309
1772790960733830700,20.50783056640625,0.28969255089759827,-0.5717996954917908,-1.0356627702713013
1772790960753862700,20.527862548828125,0.4389403462409973,-0.7091289162635803,-0.8688651323318481
1772790960773895400,20.5478955078125,0.4054262638092041,-0.7636955380439758,-0.5758848190307617
1772790960793928700,20.5679287109375,0.1489311307668686,-0.8088998198509216,-0.24739325046539307
1772790960813961500,20.58796142578125,-0.3073415458202362,-0.7713475823402405,0.16279374063014984
1772790960833994800,20.607994873046874,-0.767388105392456,-0.618104100227356,0.5126993656158447
1772790960854027500,20.628027587890625,-1.0788551568984985,-0.3760177791118622,0.7682226896286011
1772790960874060500,20.648060546875,-1.046614408493042,-0.011506710201501846,0.8454126715660095
1772790960894092500,20.668092529296874,-0.6585987210273743,0.4708901047706604,0.6825937628746033
1772790960914125600,20.68812548828125,-0.1947246789932251,0.820791482925415,0.26693791151046753
1772790960934158600,20.70815869140625,0.029917510226368904,0.935951828956604,-0.1278483271598816
1772790960954191600,20.728191650390624,0.04886045306921005,0.8087339401245117,-0.4780612885951996
1772790960974224600,20.748224609375,0.03619496524333954,0.5131213665008545,-0.8297058939933777
1772790960994257700,20.768257568359374,0.1204846128821373,0.11546912044286728,-1.0970911979675293
1772790961014289700,20.78828955078125,0.3262838125228882,-0.2601592242717743,-1.161241054534912
1772790961034322400,20.808322509765624,0.6078736186027527,-0.5493828654289246,-0.9302379488945007
1772790961054355700,20.828355712890627,0.9194567203521729,-0.7310255765914917,-0.3834223747253418
1772790961074388500,20.848388427734374,1.1506751775741577,-0.8653308153152466,0.31785649061203003
1772790961094421500,20.86842138671875,1.0943207740783691,-0.870923638343811,0.9221345782279968
1772790961114454500,20.88845458984375,0.8028610348701477,-0.8739680647850037,1.1639139652252197
1772790961134486800,20.90848681640625,0.5030737519264221,-0.8846564888954163,1.106383204460144
1772790961154519600,20.92851953125,0.3536313474178314,-0.6831884980201721,0.9412960410118103
1772790961174552600,20.948552490234373,0.41031312942504883,-0.2245604693889618,0.77809077501297
1772790961194585600,20.968585693359376,0.49517175555229187,0.3936842679977417,0.703652024269104
1772790961214618600,20.98861865234375,0.45930173993110657,1.021078109741211,0.6533210873603821
1772790961234651600,21.008651611328126,0.35427749156951904,1.5284923315048218,0.5645287036895752
1772790961254683400,21.028683349609373,0.2207467406988144,1.8970297574996948,0.47850531339645386
1772790961274716700,21.048716552734376,0.02140865847468376,2.169440984725952,0.47966718673706055
1772790961294749400,21.06874951171875,-0.1285705864429474,2.365508556365967,0.5581188797950745
1772790961314782700,21.08878271484375,-0.21532995998859406,2.43222975730896,0.6664707064628601
1772790961334815500,21.1088154296875,-0.25292474031448364,2.3166122436523438,0.7139373421669006
1772790961354848500,21.1288486328125,-0.2712215781211853,2.0214943885803223,0.6928020119667053
1772790961374882000,21.148882080078124,-0.22341077029705048,1.588792324066162,0.5804785490036011
1772790961394913800,21.168913818359375,-0.08919864892959595,1.0874119997024536,0.428989052772522
1772790961414947000,21.188947021484374,0.1301218718290329,0.576479434967041,0.29095637798309326
1772790961434979800,21.208979736328125,0.37246137857437134,0.06127527728676796,0.18245084583759308
1772790961455013000,21.22901318359375,0.5580351948738098,-0.36156153678894043,0.06228801608085632
1772790961475046000,21.2490458984375,0.6523482203483582,-0.6996438503265381,-0.07981783896684647
1772790961495079200,21.2690791015625,0.6718065142631531,-0.9708647727966309,-0.26075902581214905
1772790961515111000,21.28911083984375,0.636017918586731,-1.1370422840118408,-0.41258561611175537
1772790961535144200,21.309144287109376,0.6040898561477661,-1.1721701622009277,-0.5203046202659607
1772790961555177000,21.329177001953123,0.5788012742996216,-1.0763357877731323,-0.5429819226264954
1772790961575210000,21.3492099609375,0.5597758889198303,-0.8407861590385437,-0.4799335300922394
1772790961595243000,21.369242919921874,0.5246863961219788,-0.5247204899787903,-0.3241516947746277
1772790961615275800,21.38927587890625,0.45461946725845337,-0.2889440655708313,-0.1506502628326416
1772790961635308000,21.40930810546875,0.3441314399242401,-0.182763934135437,-0.03419417887926102
1772790961655340800,21.4293408203125,0.2689123749732971,-0.17051051557064056,0.01915680430829525
1772790961675374000,21.4493740234375,0.27875471115112305,-0.14534994959831238,-0.14977294206619263
1772790961695406800,21.46940673828125,0.25177714228630066,-0.20419834554195404,-0.513184666633606
1772790961715440000,21.489440185546876,0.1416822373867035,-0.4056062698364258,-0.7011846899986267
1772790961735473000,21.509472900390627,0.007717188447713852,-0.5944271683692932,-0.6733220219612122
1772790961755505200,21.529505126953126,-0.12196099013090134,-0.7438408136367798,-0.5530115962028503
1772790961775538000,21.549537841796877,-0.2832099497318268,-0.8399178385734558,-0.3676200807094574
1772790961795571200,21.5695712890625,-0.4565289318561554,-0.8861892223358154,-0.10432850569486618
1772790961815604000,21.58960400390625,-0.6465603709220886,-0.92725670337677,0.24122756719589233
1772790961835637000,21.609636962890626,-0.8582231998443604,-0.9391543865203857,0.5355628132820129
1772790961855670000,21.629669921875,-1.0885040760040283,-0.927651584148407,0.6779112815856934
1772790961875702000,21.649701904296876,-1.2810993194580078,-0.8397057056427002,0.7042076587677002
1772790961895735000,21.669735107421875,-1.3506044149398804,-0.5828768610954285,0.6398277282714844
1772790961915767800,21.689767822265626,-1.3299216032028198,-0.120582215487957,0.48809853196144104
1772790961935801000,21.709801025390625,-1.2417118549346924,0.3833796977996826,0.25924256443977356
1772790961955833900,21.729833740234376,-1.1249854564666748,0.87857586145401,-0.01488315686583519
1772790961975867100,21.7498671875,-0.9427006840705872,1.2251120805740356,-0.27348217368125916
1772790961995899000,21.76989892578125,-0.7368993759155273,1.253786325454712,-0.43697911500930786
1772790962015932200,21.78993212890625,-0.5178140997886658,1.007902979850769,-0.5451842546463013
1772790962035965000,21.80996484375,-0.2981489598751068,0.5421660542488098,-0.5937549471855164
1772790962055998200,21.829998291015624,-0.09203442931175232,0.028263110667467117,-0.5804845690727234
1772790962076031000,21.850031005859375,0.11961373686790466,-0.47139275074005127,-0.504234254360199
1772790962096064000,21.87006396484375,0.3060322403907776,-0.8361634612083435,-0.36849355697631836
1772790962116096000,21.890095947265625,0.4163660705089569,-1.1515638828277588,-0.19936421513557434
1772790962136129000,21.91012890625,0.44301074743270874,-1.3475534915924072,-0.07507414370775223
1772790962156162000,21.930162109375,0.4317546784877777,-1.454441785812378,0.039398983120918274
1772790962176194800,21.95019482421875,0.37931716442108154,-1.439960241317749,0.11913739144802094
1772790962196228000,21.97022802734375,0.29431435465812683,-1.3082078695297241,0.16620555520057678
1772790962216260900,21.9902607421875,0.16205111145973206,-1.0715420246124268,0.1659424901008606
1772790962236293000,22.010293212890623,-0.0005230107344686985,-0.7496262192726135,0.14465142786502838
1772790962256326000,22.030325927734374,-0.16303130984306335,-0.4073137938976288,0.1508944034576416
1772790962276359200,22.050359130859373,-0.3166915774345398,-0.1130971685051918,0.257215678691864
1772790962296392000,22.070391845703124,-0.4365987479686737,0.06859942525625229,0.4772515594959259
1772790962316425000,22.090425048828124,-0.5361567139625549,0.17627769708633423,0.7465839982032776
1772790962336458000,22.1104580078125,-0.6010494232177734,0.2172800600528717,0.9585455060005188
1772790962356490000,22.130489990234373,-0.6184713244438171,0.18192830681800842,1.0490198135375977
1772790962376522200,22.150522216796876,-0.6276553273200989,0.1501293182373047,1.0361528396606445
1772790962396555500,22.170555419921875,-0.6112465858459473,0.167521670460701,0.9440725445747375
1772790962416588300,22.19058837890625,-0.5877277851104736,0.24301452934741974,0.7534536123275757
1772790962436621300,22.210621337890625,-0.5857530832290649,0.35208410024642944,0.471345454454422
1772790962456654300,22.230654296875,-0.5546761751174927,0.5067775845527649,0.1401359885931015
1772790962476686300,22.250686279296875,-0.4547231197357178,0.7772365212440491,-0.2729286551475525
1772790962496719400,22.27071923828125,-0.33467698097229004,1.0108407735824585,-0.6804599761962891
1772790962516752100,22.290752197265626,-0.2807829976081848,1.1075727939605713,-0.9575661420822144
1772790962536785400,22.310785400390625,-0.26401564478874207,1.0522418022155762,-1.0762548446655273
1772790962556818200,22.330818115234376,-0.2256486713886261,0.8747164607048035,-1.0162934064865112
1772790962576850400,22.350850341796875,-0.16061684489250183,0.6485965251922607,-0.864128828048706
1772790962596883200,22.37088330078125,-0.03686488792300224,0.44691750407218933,-0.6627742052078247
1772790962616916500,22.39091650390625,0.20106709003448486,0.3649272322654724,-0.47515377402305603
1772790962636949200,22.41094921875,0.53182452917099,0.33422160148620605,-0.267406702041626
1772790962656982500,22.430982421875,0.8071510791778564,0.30137497186660767,-0.02448928728699684
1772790962677015300,22.451015380859374,0.9622888565063477,0.24175477027893066,0.2065843790769577
1772790962697047300,22.47104736328125,0.9956554174423218,0.21821680665016174,0.3779710531234741
1772790962717080300,22.491080322265624,0.9574713706970215,0.3107772171497345,0.47565221786499023
1772790962737113300,22.51111328125,0.9085938334465027,0.6073431968688965,0.5893319249153137
1772790962757146400,22.531146484375,0.9567838311195374,1.0767518281936646,0.7729685306549072
1772790962777179100,22.55117919921875,1.0778076648712158,1.6850306987762451,0.919136643409729
1772790962797212400,22.57121240234375,1.2082138061523438,2.3035502433776855,0.9569114446640015
1772790962817244400,22.591244384765623,1.2784266471862793,2.7257730960845947,0.9205166697502136
1772790962837277400,22.61127734375,1.2524523735046387,2.902118444442749,0.9110041856765747
1772790962857310200,22.631310302734374,1.045427918434143,2.808774471282959,0.8835379481315613
1772790962877343500,22.651343505859376,0.6933065056800842,2.4779410362243652,0.7348594665527344
1772790962897376300,22.671376220703124,0.34314122796058655,1.9757683277130127,0.4657305181026459
1772790962917409500,22.691409423828127,0.09831369668245316,1.3876394033432007,0.1660626083612442
1772790962937441300,22.711441162109374,-0.0004061886575073004,0.8956980109214783,-0.09902636706829071
1772790962957474600,22.731474609375,0.03479473665356636,0.5863351225852966,-0.28972285985946655
1772790962977507300,22.75150732421875,0.2127307653427124,0.453353613615036,-0.3717404305934906
1772790962997540400,22.771540283203127,0.5184571146965027,0.4162907600402832,-0.3543741703033447
1772790963017573400,22.791573486328126,0.8443650603294373,0.3494308292865753,-0.3020395040512085
1772790963037606100,22.811606201171877,1.0912724733352661,0.2055177092552185,-0.29794448614120483
1772790963057638400,22.831638427734376,1.2228039503097534,-0.038164570927619934,-0.34906938672065735
1772790963077671200,22.851671142578127,1.277854323387146,-0.31179916858673096,-0.46557727456092834
1772790963097704400,22.871704345703126,1.266331672668457,-0.5497568845748901,-0.5837313532829285
1772790963117737200,22.8917373046875,1.2188316583633423,-0.7281931042671204,-0.6452885270118713
1772790963137770500,22.9117705078125,1.1290408372879028,-0.7870475649833679,-0.6066514849662781
1772790963157803300,22.93180322265625,1.0129725933074951,-0.7456740140914917,-0.46994054317474365
1772790963177835500,22.95183544921875,0.9151356220245361,-0.5848553776741028,-0.2889779806137085
1772790963197868300,22.971868408203125,0.8744701743125916,-0.34844085574150085,-0.22424714267253876
1772790963217901600,22.991901611328124,0.8360429406166077,-0.1756230592727661,-0.3494623005390167
1772790963237934300,23.011934326171875,0.6333186030387878,-0.18741314113140106,-0.35828709602355957
1772790963257967400,23.03196728515625,0.4151858985424042,-0.29288196563720703,-0.27544230222702026
1772790963278000400,23.05200048828125,0.21564362943172455,-0.4157329797744751,-0.10631655156612396
1772790963298032400,23.072032470703125,0.004950105212628841,-0.516822874546051,0.10037478804588318
1772790963318065400,23.0920654296875,-0.2091422826051712,-0.5454963445663452,0.3377106785774231
1772790963338098200,23.11209814453125,-0.45784008502960205,-0.5290533304214478,0.6058114767074585
1772790963358131500,23.13213134765625,-0.7835544943809509,-0.5247050523757935,0.8448295593261719
1772790963378164700,23.152164794921877,-1.1979272365570068,-0.544592559337616,1.0538736581802368
1772790963398197800,23.17219775390625,-1.6031596660614014,-0.5052322149276733,1.2421926259994507
1772790963418229800,23.192229736328127,-1.8877203464508057,-0.32748526334762573,1.403133749961853
1772790963438262800,23.2122626953125,-2.0280587673187256,0.01909559965133667,1.4695476293563843
1772790963458295800,23.2322958984375,-2.1014745235443115,0.44884487986564636,1.3694500923156738
1772790963478328800,23.252328857421876,-2.1197915077209473,0.8696276545524597,1.1387988328933716
1772790963498361900,23.27236181640625,-2.077524185180664,1.1986583471298218,0.8773177266120911
1772790963518394600,23.29239453125,-1.9359716176986694,1.3672280311584473,0.6216245293617249
1772790963538426600,23.312426513671873,-1.7438198328018188,1.2843284606933594,0.428613543510437
1772790963558459600,23.332459716796876,-1.5282676219940186,1.0020205974578857,0.36895519495010376
1772790963578492700,23.35249267578125,-1.2533854246139526,0.6658846139907837,0.35409244894981384
1772790963598525700,23.372525634765626,-0.9180617928504944,0.38240236043930054,0.3468313217163086
1772790963618558700,23.392558837890626,-0.5623424053192139,0.17841149866580963,0.3604627549648285
1772790963638591700,23.412591796875,-0.2393294870853424,0.04863648861646652,0.37668365240097046
1772790963658623700,23.432623779296875,-0.0033978440333157778,-0.09740491956472397,0.37782618403434753
1772790963678656800,23.45265673828125,0.1400681585073471,-0.2350134253501892,0.3371994197368622
1772790963698689800,23.472689697265626,0.2069540023803711,-0.3590177595615387,0.31712445616722107
1772790963718722800,23.492722900390625,0.18258008360862732,-0.399346262216568,0.3235824704170227
1772790963738755600,23.512755615234376,0.06498361378908157,-0.34421461820602417,0.3643784821033478
1772790963758787600,23.53278759765625,-0.10324791818857193,-0.16287948191165924,0.44913145899772644
1772790963778820900,23.55282080078125,-0.24988076090812683,0.14646120369434357,0.5890255570411682
1772790963798853600,23.572853515625,-0.30706650018692017,0.5494667887687683,0.7450070381164551
1772790963818886700,23.59288671875,-0.30191996693611145,0.9202827215194702,0.8914796710014343
1772790963838919700,23.612919677734375,-0.294977068901062,1.1638548374176025,0.9549095630645752
1772790963858952700,23.63295263671875,-0.282776415348053,1.3046762943267822,0.9210669994354248
1772790963878984700,23.652984619140625,-0.2548717260360718,1.4000492095947266,0.8246138691902161
1772790963899017700,23.673017822265624,-0.21367257833480835,1.4577691555023193,0.7043997645378113
1772790963919050800,23.69305078125,-0.17255182564258575,1.5153886079788208,0.5865668058395386
1772790963939083800,23.713083740234374,-0.1256888061761856,1.63063645362854,0.46640458703041077
1772790963959116800,23.73311669921875,-0.05952943488955498,1.775596022605896,0.3551127016544342
1772790963979149800,23.75314990234375,0.018921341747045517,1.9215749502182007,0.2519336938858032
1772790963999181800,23.773181884765624,0.10433809459209442,2.0987744331359863,0.12604063749313354
1772790964019214600,23.793214599609374,0.17563220858573914,2.259784460067749,-0.06332476437091827
1772790964039248000,23.813247802734374,0.14797741174697876,2.3095877170562744,-0.12963081896305084
1772790964059280600,23.83328076171875,0.06382685154676437,2.31082820892334,-0.04231768473982811
1772790964079313700,23.853313720703124,0.023722875863313675,2.3274691104888916,0.07128491997718811
1772790964099346700,23.8733466796875,0.048448190093040466,2.397657632827759,0.21772022545337677
1772790964119378700,23.893378662109374,0.14435149729251862,2.507164478302002,0.42018404603004456
1772790964139411700,23.91341162109375,0.29034343361854553,2.6485934257507324,0.6385842561721802
1772790964159444700,23.93344482421875,0.40828895568847656,2.758179187774658,0.7728680372238159
1772790964179477800,23.953477783203127,0.4605884253978729,2.8115451335906982,0.7409409880638123
1772790964199510800,23.9735107421875,0.4125280976295471,2.8191514015197754,0.5706298351287842
1772790964219543800,23.993543701171873,0.31341809034347534,2.845022678375244,0.2826376259326935
1772790964239575600,24.013575439453124,0.19553619623184204,2.9345390796661377,-0.09378299117088318
1772790964259608800,24.03360888671875,0.11553776264190674,3.025609254837036,-0.4378676414489746
1772790964279641600,24.0536416015625,0.07602176815271378,3.1189188957214355,-0.6939237713813782
1772790964299674600,24.073674560546873,0.11361255496740341,3.171679735183716,-0.8806713223457336
1772790964319707600,24.093707763671876,0.1969606578350067,3.114147186279297,-1.0205464363098145
1772790964339740700,24.11374072265625,0.30728641152381897,2.9090888500213623,-1.2040890455245972
1772790964359772700,24.133772705078126,0.4677998721599579,2.568708896636963,-1.4003363847732544
1772790964379805400,24.153805419921873,0.6736827492713928,2.1035332679748535,-1.566478967666626
1772790964399838200,24.173838134765624,0.913223147392273,1.6064369678497314,-1.6655113697052002
1772790964419871200,24.193871337890624,1.189149022102356,1.1288273334503174,-1.7013022899627686
1772790964439904300,24.213904296875,1.4442092180252075,0.6223017573356628,-1.6632755994796753
1772790964459936300,24.233936279296874,1.6397950649261475,0.1240711659193039,-1.5672574043273926
1772790964479969300,24.25396923828125,1.7785009145736694,-0.34117355942726135,-1.4289137125015259
1772790964500002000,24.274001953125,1.8417989015579224,-0.7450774908065796,-1.2506825923919678
1772790964520035300,24.294035400390626,1.8498601913452148,-1.0468682050704956,-1.0482380390167236
1772790964540068000,24.314068115234374,1.816109538078308,-1.2688034772872925,-0.779945433139801
1772790964560101400,24.334101318359377,1.744555115699768,-1.3549468517303467,-0.4147345721721649
1772790964580133000,24.354133056640624,1.6650116443634033,-1.291917324066162,0.08155406266450882
1772790964600166400,24.37416650390625,1.6105232238769531,-1.0522994995117188,0.6313775777816772
1772790964620199200,24.39419921875,1.5742450952529907,-0.6961346864700317,1.1948891878128052
1772790964640232400,24.414232421875,1.5243343114852905,-0.24579918384552002,1.725736379623413
1772790964660265200,24.43426513671875,1.4677186012268066,0.2657291889190674,2.214191198348999
1772790964680298200,24.45429833984375,1.4128773212432861,0.7958477139472961,2.6069235801696777
1772790964700330200,24.474330322265626,1.3562793731689453,1.2689892053604126,2.9381344318389893
1772790964720363300,24.49436328125,1.2818355560302734,1.6667754650115967,3.2241313457489014
1772790964740396300,24.514396240234376,1.2161062955856323,1.9808248281478882,3.4479050636291504
1772790964760429000,24.534428955078123,1.163084864616394,2.2099504470825195,3.626828670501709
1772790964780462300,24.55446240234375,1.1593835353851318,2.394638776779175,3.766188859939575
1772790964800494000,24.574494140625,1.224799394607544,2.545264720916748,3.8629050254821777
1772790964820527400,24.59452734375,1.3613345623016357,2.6990597248077393,3.9116668701171875
1772790964840560000,24.61456005859375,1.5552057027816772,2.8352468013763428,3.9010660648345947
1772790964860593400,24.634593505859375,1.7920095920562744,2.9713375568389893,3.7861392498016357
1772790964880626200,24.654626220703125,2.037871837615967,3.0686511993408203,3.58260440826416
1772790964900659200,24.6746591796875,2.259293556213379,3.1023976802825928,3.319032669067383
1772790964920691200,24.694691162109375,2.4877090454101562,2.9979569911956787,3.1003222465515137
1772790964940724200,24.71472412109375,2.747133731842041,2.7272791862487793,3.0185375213623047
1772790964960757200,24.73475732421875,2.9854729175567627,2.2990455627441406,2.9404585361480713
1772790964980790000,24.7547900390625,3.146568536758423,1.7100790739059448,2.7463014125823975
1772790965000823300,24.7748232421875,3.243802547454834,1.0007638931274414,2.4569427967071533
1772790965020855300,24.794855224609375,3.295732021331787,0.23550494015216827,2.158595323562622
1772790965040888300,24.814888427734374,3.0945658683776855,-0.5521597862243652,1.8831639289855957
1772790965060921000,24.834921142578125,2.552043914794922,-1.188372015953064,1.4755274057388306
1772790965080954400,24.854954345703124,1.784868836402893,-1.6888935565948486,0.8109087347984314
1772790965100987100,24.874987060546875,1.0248063802719116,-1.980346441268921,0.09829258918762207
1772790965121020400,24.8950205078125,0.38086986541748047,-1.9375430345535278,-0.2321164906024933
1772790965141052200,24.91505224609375,-0.15688110888004303,-1.5940523147583008,-0.22211936116218567
1772790965161085200,24.935085205078124,-0.6431013345718384,-1.0562902688980103,-0.08642815798521042
1772790965181118200,24.9551181640625,-1.159754991531372,-0.5329568386077881,0.001995003316551447
1772790965201151200,24.975151123046874,-1.732312798500061,-0.1635877788066864,-0.05985712260007858
1772790965221184300,24.995184326171874,-2.281742811203003,0.06042226403951645,-0.3814319968223572
1772790965241216300,25.01521630859375,-2.825401544570923,0.17379499971866608,-0.9160940051078796
1772790965261249300,25.035249267578124,-3.3859879970550537,0.240462064743042,-1.521245002746582
1772790965281282300,25.0552822265625,-3.9690029621124268,0.23728682100772858,-2.0339035987854004
1772790965301315300,25.0753154296875,-4.522895812988281,0.24314868450164795,-2.2955644130706787
1772790965321348000,25.09534814453125,-5.013021945953369,0.3281163275241852,-2.197545051574707
1772790965341381400,25.11538134765625,-5.3809919357299805,0.4979415833950043,-1.8021703958511353
1772790965361413000,25.1354130859375,-5.589101314544678,0.6841946840286255,-1.2236156463623047
