time,seconds_elapsed,z,y,x
1772790940285335000,0.0593349609375,-0.026195917278528214,-0.1141313686966896,-0.2082703858613968
1772790940305367000,0.079366943359375,-0.1083589643239975,-0.10212823003530502,0.01564447395503521
1772790940325400000,0.099400146484375,-0.17262236773967743,-0.028553348034620285,0.32902395725250244
1772790940345433000,0.11943310546875,-0.23365163803100586,0.0908590629696846,0.6376014947891235
1772790940365466600,0.139466552734375,-0.22786591947078705,0.12158209085464478,0.8456359505653381
1772790940385499400,0.15949951171875,-0.16650375723838806,0.14114832878112793,0.7908211350440979
1772790940405531400,0.179531494140625,-0.06533346325159073,-0.005360943265259266,0.4926544427871704
1772790940425564400,0.199564453125,-0.014970161020755768,-0.03209295496344566,0.0140196792781353
1772790940445597400,0.219597412109375,0.021220866590738297,-0.26588839292526245,-0.2209928333759308
1772790940465630500,0.23963037109375,-0.03224688395857811,-0.2711241841316223,-0.3664994239807129
1772790940485663500,0.25966357421875,-0.11015446484088898,0.0032618397381156683,-0.41673117876052856
1772790940505695500,0.279695556640625,-0.1984478384256363,0.20258933305740356,-0.24632029235363007
1772790940525728500,0.299728515625,-0.25492364168167114,0.24268615245819092,0.05517057701945305
1772790940545761500,0.319761474609375,-0.25114646553993225,0.23773212730884552,0.34863653779029846
1772790940565794600,0.339794677734375,-0.19341367483139038,0.24303102493286133,0.49735039472579956
1772790940585827600,0.35982763671875,-0.12690575420856476,0.1952456533908844,0.45093920826911926
1772790940605859600,0.379859619140625,-0.15481966733932495,0.1141209825873375,0.2799496352672577
1772790940625892400,0.399892333984375,-0.3093533217906952,0.16970515251159668,-0.04434376209974289
1772790940645925600,0.419925537109375,-0.5460902452468872,0.5510527491569519,-0.4163471460342407
1772790940665958400,0.43995849609375,-0.788340151309967,1.2635892629623413,-0.6765100359916687
1772790940685991400,0.459991455078125,-1.0722445249557495,2.040113925933838,-0.8462578058242798
1772790940706023400,0.4800234375,-1.2731832265853882,2.7583937644958496,-0.9934914112091064
1772790940726056400,0.500056396484375,-1.4865049123764038,3.3416361808776855,-1.1898654699325562
1772790940746089500,0.52008935546875,-1.7382279634475708,3.884058713912964,-1.2999660968780518
1772790940766122500,0.54012255859375,-2.005770444869995,4.629803657531738,-1.2663578987121582
1772790940786155500,0.560155517578125,-2.213014841079712,5.780092239379883,-0.9971868395805359
1772790940806187500,0.5801875,-2.656710386276245,6.999029636383057,-0.73880934715271
1772790940826220500,0.600220458984375,-3.3898403644561768,8.102787017822266,-0.34531453251838684
1772790940846253600,0.620253662109375,-5.0808916091918945,8.392837524414062,-0.2543923258781433
1772790940866286600,0.64028662109375,-6.867891788482666,7.8726420402526855,-0.5616191029548645
1772790940886319600,0.660319580078125,-7.572122097015381,7.47219181060791,-0.5584568977355957
1772790940906351600,0.6803515625,-7.104554176330566,7.4701924324035645,0.4564458429813385
1772790940926384400,0.70038427734375,-6.651551723480225,6.095567226409912,1.2314424514770508
1772790940946417700,0.720417724609375,-6.6153035163879395,3.3659236431121826,1.0988497734069824
1772790940966450400,0.740450439453125,-6.969838619232178,0.7498044967651367,0.5626053214073181
1772790940986483500,0.7604833984375,-7.438355445861816,-0.654140830039978,0.1354885846376419
1772790941006515500,0.780515380859375,-7.6733245849609375,-1.0805954933166504,-0.11033183336257935
1772790941026548700,0.800548828125,-7.599654674530029,-0.9412828087806702,-0.10192450135946274
1772790941046581500,0.82058154296875,-7.044235706329346,-0.4839285910129547,-0.054126884788274765
1772790941066614500,0.840614501953125,-6.139904975891113,0.08047965914011002,-0.1324395388364792
1772790941086647600,0.8606474609375,-5.617741107940674,0.16389785706996918,-0.6080678701400757
1772790941106679600,0.880679443359375,-4.790114402770996,-0.5447993874549866,-1.2780076265335083
1772790941126712600,0.900712646484375,-3.5396194458007812,-1.8031355142593384,-1.9022613763809204
1772790941146745300,0.920745361328125,-2.30216121673584,-3.17193341255188,-2.4407873153686523
1772790941166778600,0.940778564453125,-1.259974479675293,-4.102268218994141,-2.437537908554077
1772790941186811400,0.960811279296875,-0.5881074666976929,-4.440208911895752,-1.8805350065231323
1772790941206843600,0.98084375,-0.19576683640480042,-4.212190628051758,-1.0909807682037354
1772790941226876400,1.00087646484375,0.07330164313316345,-3.539184093475342,-0.37735608220100403
1772790941246909700,1.02090966796875,0.3121224641799927,-2.469381809234619,0.12218689173460007
1772790941266942500,1.0409423828125,0.5764739513397217,-1.183607578277588,0.3657478988170624
1772790941286975700,1.060975830078125,0.8154404759407043,0.05596499890089035,0.4501115083694458
1772790941307007500,1.081007568359375,0.9783729314804077,1.0136311054229736,0.45716702938079834
1772790941327040500,1.10104052734375,1.0764694213867188,1.587670922279358,0.5113442540168762
1772790941347073500,1.121073486328125,1.1825774908065796,1.8816447257995605,0.6346174478530884
1772790941367106600,1.1411064453125,1.3226027488708496,2.041869878768921,0.8276081681251526
1772790941387139600,1.1611396484375,1.5012859106063843,2.20211124420166,1.1190656423568726
1772790941407171600,1.181171630859375,1.7168810367584229,2.409444570541382,1.4265989065170288
1772790941427204600,1.20120458984375,1.951328992843628,2.572948694229126,1.652452826499939
1772790941447237400,1.2212373046875,2.2239561080932617,2.629711866378784,1.7812981605529785
1772790941467270700,1.241270751953125,2.523149251937866,2.533515214920044,1.8401206731796265
1772790941487303400,1.261303466796875,2.878450393676758,2.312591791152954,1.8055592775344849
1772790941507335700,1.281335693359375,3.3138339519500732,1.9969584941864014,1.6903916597366333
1772790941527368400,1.301368408203125,3.723149061203003,1.6683553457260132,1.4870949983596802
1772790941547401700,1.321401611328125,3.9370548725128174,1.3325531482696533,1.203385591506958
1772790941567434500,1.3414345703125,3.884854793548584,0.9536590576171875,0.8928979635238647
1772790941587467800,1.3614677734375,3.6528196334838867,0.5976570248603821,0.6069210767745972
1772790941607499500,1.38149951171875,3.3480002880096436,0.294761598110199,0.3416747748851776
1772790941627532800,1.40153271484375,3.0373375415802,0.1482246220111847,0.14306767284870148
1772790941647565600,1.421565673828125,2.778209924697876,0.11827418208122253,-0.01601358689367771
1772790941667598600,1.4415986328125,2.5590755939483643,0.15597814321517944,-0.1902836561203003
1772790941687630600,1.461630615234375,2.3267621994018555,0.15034157037734985,-0.39092087745666504
1772790941707663600,1.48166357421875,2.09126353263855,0.14523814618587494,-0.42145296931266785
1772790941727696600,1.501696533203125,1.8102152347564697,0.17943739891052246,-0.4498872756958008
1772790941747729700,1.521729736328125,1.5406477451324463,0.25164422392845154,-0.4191533327102661
1772790941767762700,1.5417626953125,1.3291250467300415,0.3601882755756378,-0.28453558683395386
1772790941787794700,1.561794677734375,1.163413405418396,0.45470893383026123,-0.018742794170975685
1772790941807827700,1.58182763671875,1.0304523706436157,0.6166656017303467,0.3533247709274292
1772790941827860500,1.601860595703125,0.8916689157485962,0.8301358222961426,0.5376285910606384
1772790941847893800,1.621893798828125,0.5538293719291687,0.8712472915649414,0.46755626797676086
1772790941867926500,1.641926513671875,-0.10873207449913025,0.7484276294708252,0.3219420909881592
1772790941887958500,1.66195849609375,-0.8540869355201721,0.4487306475639343,0.07078123092651367
1772790941907991600,1.681991455078125,-1.5024627447128296,0.0011432950850576162,-0.264761358499527
1772790941928024600,1.702024658203125,-2.075314521789551,-0.4819594621658325,-0.6528904438018799
1772790941948057600,1.7220576171875,-2.61183500289917,-0.9008480310440063,-1.0633845329284668
1772790941968090600,1.742090576171875,-3.1039652824401855,-1.2520813941955566,-1.445183515548706
1772790941988122600,1.76212255859375,-3.5465569496154785,-1.5229281187057495,-1.7659857273101807
1772790942008155600,1.78215576171875,-3.906618118286133,-1.6876691579818726,-1.9452098608016968
1772790942028188700,1.802188720703125,-4.111342430114746,-1.6436470746994019,-1.9517031908035278
1772790942048221700,1.8222216796875,-4.173354625701904,-1.3764259815216064,-1.867923617362976
1772790942068254700,1.842254638671875,-4.1642069816589355,-1.01107656955719,-1.7030872106552124
1772790942088286700,1.86228662109375,-4.082375526428223,-0.5324133038520813,-1.402068853378296
1772790942108319500,1.882319580078125,-3.8521106243133545,-0.08556203544139862,-1.0643360614776611
1772790942128352800,1.902352783203125,-3.45466947555542,0.2005176544189453,-0.8031409382820129
1772790942148385500,1.922385498046875,-2.945190668106079,0.21658822894096375,-0.696669340133667
1772790942168418600,1.94241845703125,-2.365488052368164,-0.07446091622114182,-0.6867533326148987
1772790942188450600,1.962450439453125,-1.7580080032348633,-0.558894157409668,-0.6147590279579163
1772790942208483600,1.982483642578125,-1.1944661140441895,-1.0705361366271973,-0.4176795184612274
1772790942228516600,2.0025166015625,-0.7787258625030518,-1.484876036643982,-0.1345681995153427
1772790942248549600,2.022549560546875,-0.5124763250350952,-1.745236873626709,0.14485065639019012
1772790942268582700,2.042582763671875,-0.3883693218231201,-1.8953086137771606,0.4212058186531067
1772790942288614400,2.062614501953125,-0.39085856080055237,-1.9231064319610596,0.6649324893951416
1772790942308647700,2.082647705078125,-0.5445703864097595,-1.803829550743103,0.8370000720024109
1772790942328680400,2.102680419921875,-0.899605393409729,-1.5808417797088623,0.934123694896698
1772790942348713700,2.122713623046875,-1.3591221570968628,-1.3033413887023926,0.9402641654014587
1772790942368746800,2.142746826171875,-1.768717885017395,-0.8965672850608826,0.8424201607704163
1772790942388778800,2.16277880859375,-1.9952013492584229,-0.5602135062217712,0.7893857359886169
1772790942408811800,2.182811767578125,-2.1329762935638428,-0.32816269993782043,0.7542091012001038
1772790942428844800,2.2028447265625,-2.245897054672241,-0.3378422260284424,0.5805009603500366
1772790942448877800,2.2228779296875,-2.4734675884246826,-0.6087573170661926,0.40746843814849854
1772790942468910600,2.24291064453125,-2.7148849964141846,-0.989769697189331,0.3854121267795563
1772790942488942600,2.262942626953125,-2.8843162059783936,-1.314129114151001,0.5971816182136536
1772790942508975900,2.282975830078125,-2.756161689758301,-1.4174211025238037,0.9666308164596558
1772790942529008600,2.303008544921875,-2.2693772315979004,-1.1225117444992065,1.2216697931289673
1772790942549041700,2.323041748046875,-1.5268477201461792,-0.5339150428771973,1.3907536268234253
1772790942569074700,2.34307470703125,-0.6255991458892822,0.09649883955717087,1.209392786026001
1772790942589106700,2.363106689453125,0.21371760964393616,0.5777485370635986,0.6083256602287292
1772790942609139700,2.3831396484375,0.8152703046798706,0.7845637798309326,-0.16065944731235504
1772790942629172700,2.4031728515625,1.1373766660690308,0.8542629480361938,-0.6726905107498169
1772790942649205800,2.423205810546875,1.2955565452575684,0.9854686856269836,-0.7876370549201965
1772790942669237500,2.443237548828125,1.398621916770935,1.2672747373580933,-0.6499753594398499
1772790942689270800,2.463270751953125,1.5324583053588867,1.6086198091506958,-0.4205895662307739
1772790942709303600,2.483303466796875,1.6848493814468384,1.9035332202911377,-0.22936901450157166
1772790942729336800,2.5033369140625,1.8170732259750366,2.1117420196533203,-0.08245626091957092
1772790942749369600,2.52336962890625,1.9663212299346924,2.316131114959717,0.019878100603818893
1772790942769401900,2.54340185546875,2.156339168548584,2.471749782562256,0.0746539980173111
1772790942789434600,2.5634345703125,2.274247169494629,2.7199058532714844,0.11692316085100174
1772790942809468000,2.583468017578125,2.3782804012298584,2.930881977081299,0.08568800985813141
1772790942829500700,2.603500732421875,2.380615711212158,3.098414421081543,-0.04153439402580261
1772790942849533700,2.62353369140625,2.325181007385254,3.2186763286590576,-0.26291337609291077
1772790942869565700,2.643565673828125,2.2596724033355713,3.2089009284973145,-0.5470143556594849
1772790942889598700,2.6635986328125,2.219127893447876,3.0490307807922363,-0.8046512007713318
1772790942909631700,2.6836318359375,2.1831862926483154,2.7091774940490723,-1.091193437576294
1772790942929664500,2.70366455078125,2.1741485595703125,2.29709529876709,-1.3509960174560547
1772790942949697800,2.72369775390625,2.232478141784668,1.8401026725769043,-1.5838892459869385
1772790942969729500,2.7437294921875,2.3472344875335693,1.3909434080123901,-1.72994065284729
1772790942989762800,2.7637626953125,2.4901342391967773,0.9540519118309021,-1.758862853050232
1772790943009795600,2.783795654296875,2.5917177200317383,0.5123946070671082,-1.6058483123779297
1772790943029828900,2.803828857421875,2.5832436084747314,0.08504751324653625,-1.4133909940719604
1772790943049861600,2.823861572265625,2.450896978378296,-0.34926798939704895,-1.2108967304229736
1772790943069894000,2.843893798828125,2.230785846710205,-0.7437806725502014,-1.0917119979858398
1772790943089926700,2.8639267578125,2.0096018314361572,-1.0814341306686401,-1.0567662715911865
1772790943109960000,2.8839599609375,1.8735880851745605,-1.3329975605010986,-1.0022425651550293
1772790943129992700,2.90399267578125,1.8128597736358643,-1.4059005975723267,-0.8457131385803223
1772790943150025700,2.924025634765625,1.6814311742782593,-1.2901701927185059,-0.5862607955932617
1772790943170057700,2.9440576171875,1.4487566947937012,-0.9677783250808716,-0.23543515801429749
1772790943190090800,2.9640908203125,1.2004629373550415,-0.4871118664741516,0.10191864520311356
1772790943210123800,2.984123779296875,1.0170623064041138,0.05080538988113403,0.3514661490917206
1772790943230156500,3.004156494140625,0.8763999938964844,0.4947926998138428,0.446546345949173
1772790943250189800,3.02418994140625,0.6383823156356812,0.7535723447799683,0.546858549118042
1772790943270221800,3.044221923828125,0.3124020993709564,0.8589637279510498,0.7611282467842102
1772790943290254800,3.0642548828125,-0.02462039142847061,0.8747586607933044,1.0509464740753174
1772790943310287600,3.08428759765625,-0.38330531120300293,0.7980577349662781,1.3790785074234009
1772790943330321000,3.10432080078125,-0.8110790252685547,0.5797230005264282,1.594402551651001
1772790943350352600,3.1243525390625,-1.296872615814209,0.14003141224384308,1.6854227781295776
1772790943370385700,3.1443857421875,-1.8070716857910156,-0.4244018793106079,1.6989153623580933
1772790943390418400,3.16441845703125,-2.288578748703003,-1.0477917194366455,1.5149400234222412
1772790943410451700,3.18445166015625,-2.6904284954071045,-1.5797793865203857,1.0882104635238647
1772790943430484500,3.204484375,-2.9538354873657227,-1.883467674255371,0.7174867391586304
1772790943450516700,3.224516845703125,-3.1082634925842285,-1.971495509147644,0.47881078720092773
1772790943470549500,3.244549560546875,-3.241879463195801,-1.8037164211273193,0.3260159194469452
1772790943490582800,3.264582763671875,-3.455754041671753,-1.4480831623077393,0.30820390582084656
1772790943510615600,3.284615478515625,-3.68612003326416,-0.9750605225563049,0.4452142119407654
1772790943530648800,3.30464892578125,-3.765674352645874,-0.49454474449157715,0.6341772079467773
1772790943550680600,3.3246806640625,-3.662909507751465,-0.219221293926239,0.820997416973114
1772790943570713900,3.3447138671875,-3.417450428009033,-0.1648203730583191,0.9477729797363281
1772790943590746600,3.36474658203125,-3.097466230392456,-0.25947338342666626,1.0030587911605835
1772790943610779600,3.384779541015625,-2.7354509830474854,-0.46671125292778015,0.9886934757232666
1772790943630812700,3.404812744140625,-2.371384859085083,-0.7172289490699768,0.8983122110366821
1772790943650844700,3.4248447265625,-2.03402042388916,-0.9625516533851624,0.6906801462173462
1772790943670877700,3.444877685546875,-1.742917776107788,-1.2035503387451172,0.4029994010925293
1772790943690910500,3.464910400390625,-1.5024489164352417,-1.431059718132019,0.09990689158439636
1772790943710943700,3.48494384765625,-1.299933910369873,-1.5990338325500488,-0.17680460214614868
1772790943730976500,3.5049765625,-1.1409517526626587,-1.6382097005844116,-0.35643240809440613
1772790943751008800,3.5250087890625,-1.0157690048217773,-1.5627492666244507,-0.4435172379016876
1772790943771041500,3.54504150390625,-0.8920758962631226,-1.4102133512496948,-0.4333152174949646
1772790943791074800,3.56507470703125,-0.781324565410614,-1.1980408430099487,-0.4050052762031555
1772790943811107600,3.585107666015625,-0.6707791686058044,-0.955264687538147,-0.31031766533851624
1772790943831139600,3.6051396484375,-0.5494775176048279,-0.7349059581756592,-0.22251136600971222
1772790943851172600,3.625172607421875,-0.4029272198677063,-0.5760257840156555,-0.18985329568386078
1772790943871205600,3.64520556640625,-0.21508115530014038,-0.5207270979881287,-0.19487494230270386
1772790943891238700,3.66523876953125,0.023089339956641197,-0.5001528263092041,-0.25925445556640625
1772790943911271700,3.685271728515625,0.284595787525177,-0.3787553012371063,-0.38813307881355286
1772790943931303700,3.7053037109375,0.5347339510917664,-0.19916050136089325,-0.4260852634906769
1772790943951336700,3.725336669921875,0.7637839317321777,-0.028610339388251305,-0.40385639667510986
1772790943971369700,3.74536962890625,0.9739260077476501,0.12257784605026245,-0.3501867651939392
1772790943991402800,3.76540283203125,1.2159810066223145,0.2810194194316864,-0.2782449424266815
1772790944011435800,3.785435791015625,1.465950846672058,0.4142959713935852,-0.21002833545207977
1772790944031467800,3.8054677734375,1.6982967853546143,0.5037922859191895,-0.13483691215515137
1772790944051500500,3.82550048828125,1.897655963897705,0.5441205501556396,-0.02353036031126976
1772790944071533600,3.845533447265625,1.9859610795974731,0.5842863321304321,0.1381235122680664
1772790944091566600,3.865566650390625,1.9269988536834717,0.6375599503517151,0.4144834578037262
1772790944111599600,3.885599609375,1.815121054649353,0.7962793111801147,0.7715030908584595
1772790944131631600,3.905631591796875,1.7580561637878418,1.07465398311615,1.1104060411453247
1772790944151664600,3.92566455078125,1.7925148010253906,1.4163646697998047,1.3686267137527466
1772790944171697700,3.94569775390625,1.8966639041900635,1.7711342573165894,1.5656694173812866
1772790944191730700,3.965730712890625,2.0271942615509033,2.066473960876465,1.7059201002120972
1772790944211763700,3.985763671875,2.1395223140716553,2.3358540534973145,1.7903486490249634
1772790944231792600,4.005792724609375,2.218217134475708,2.620544672012329,1.7892125844955444
1772790944251825700,4.02582568359375,2.268983840942383,2.9090404510498047,1.6963905096054077
1772790944271858700,4.045858642578125,2.31260085105896,3.1322338581085205,1.4982768297195435
1772790944291891500,4.065891357421875,2.3383240699768066,3.25541615486145,1.1884251832962036
1772790944311923700,4.085923828125,2.311525821685791,3.2868380546569824,0.7445774674415588
1772790944331956700,4.105956787109375,2.4305126667022705,3.1104464530944824,0.29830172657966614
1772790944351989800,4.12598974609375,2.6878774166107178,2.6505987644195557,-0.09297974407672882
1772790944372022300,4.146022216796875,2.9585418701171875,2.0544748306274414,-0.4124125838279724
1772790944392055000,4.166054931640625,3.179868698120117,1.2289530038833618,-0.7287783026695251
1772790944412087300,4.18608740234375,3.3792853355407715,0.22898603975772858,-0.9322933554649353
1772790944432120000,4.2061201171875,3.4866294860839844,-0.8696799874305725,-1.024509310722351
1772790944452153000,4.226153076171875,3.361090660095215,-1.9362390041351318,-1.1189215183258057
1772790944472186000,4.24618603515625,3.0779714584350586,-2.681959867477417,-1.2299540042877197
1772790944492219100,4.26621923828125,2.6659786701202393,-2.8441731929779053,-1.1834464073181152
1772790944512251100,4.286251220703125,2.1550791263580322,-2.4736409187316895,-0.9980579614639282
1772790944532284200,4.3062841796875,1.669258713722229,-1.8211661577224731,-0.7857025861740112
1772790944552317200,4.326317138671875,1.230305790901184,-1.0595653057098389,-0.5083354115486145
1772790944572350000,4.346349853515625,0.7446454167366028,-0.3444708287715912,-0.259641170501709
1772790944592382200,4.36638232421875,0.1965777724981308,0.15084624290466309,-0.2685590088367462
1772790944612415000,4.3864150390625,-0.44171643257141113,0.3354581594467163,-0.7103859782218933
1772790944632448300,4.4064482421875,-1.1950011253356934,0.16248585283756256,-1.2942206859588623
1772790944652481000,4.42648095703125,-1.908116340637207,-0.20108596980571747,-1.7392191886901855
1772790944672514300,4.446514404296875,-2.599661350250244,-0.5287956595420837,-2.066232204437256
1772790944692546000,4.466546142578125,-3.3115670680999756,-0.7674481868743896,-2.332310914993286
1772790944712579300,4.486579345703125,-4.017292499542236,-0.8522040843963623,-2.533740520477295
1772790944732612000,4.506612060546875,-4.638973236083984,-0.7940585017204285,-2.6634039878845215
1772790944752645400,4.526645263671875,-5.138148307800293,-0.660656750202179,-2.6821107864379883
1772790944772678100,4.54667822265625,-5.513932228088379,-0.5008713603019714,-2.5743587017059326
1772790944792710100,4.566710205078125,-5.725153923034668,-0.31742268800735474,-2.257760524749756
1772790944812743200,4.5867431640625,-5.765771389007568,-0.021254155784845352,-1.6822341680526733
1772790944832776200,4.606776123046875,-5.661272048950195,0.4432770311832428,-0.8374075889587402
1772790944852809200,4.626809326171875,-5.404693603515625,0.9259307980537415,0.09802137315273285
1772790944872842000,4.646842041015625,-4.966871738433838,1.4531059265136719,0.9179226160049438
1772790944892874200,4.666874267578125,-4.188906669616699,1.8514155149459839,1.5053176879882812
1772790944912907000,4.686906982421875,-3.008957624435425,1.8846421241760254,1.789780855178833
1772790944932940300,4.706940185546875,-1.6602742671966553,1.4849014282226562,1.5387779474258423
1772790944952973000,4.72697314453125,-0.544920027256012,0.6879379153251648,0.911998987197876
1772790944973006300,4.74700634765625,0.30105865001678467,-0.26140230894088745,0.03451962769031525
1772790944993038000,4.7670380859375,0.9086857438087463,-1.2771990299224854,-0.798057496547699
1772790945013071000,4.787071044921875,1.2803887128829956,-2.379417657852173,-1.3954676389694214
1772790945033104100,4.807104248046875,1.3186814785003662,-3.627061605453491,-1.7043482065200806
1772790945053137200,4.82713720703125,1.0261276960372925,-4.856510639190674,-1.7837940454483032
1772790945073170200,4.847170166015625,0.542077362537384,-5.874781131744385,-1.7026270627975464
1772790945093202200,4.8672021484375,-0.043956007808446884,-6.455691814422607,-1.527889370918274
1772790945113235200,4.887235107421875,-0.6951130032539368,-6.628461837768555,-1.3533157110214233
1772790945133268200,4.907268310546875,-1.4034345149993896,-6.349789619445801,-1.272659420967102
1772790945153301200,4.92730126953125,-1.9792500734329224,-5.659289836883545,-1.3241900205612183
1772790945173334000,4.947333984375,-2.2759156227111816,-4.4511823654174805,-1.246138095855713
1772790945193366000,4.967365966796875,-2.4260637760162354,-2.9602370262145996,-0.9570676684379578
1772790945213399300,4.9873994140625,-2.72068452835083,-1.870397925376892,-0.7700974941253662
1772790945233432000,5.00743212890625,-3.3368167877197266,-1.3924862146377563,-0.9612922072410583
1772790945253465000,5.027465087890625,-3.9476466178894043,-1.2699779272079468,-1.272200584411621
1772790945273498000,5.047498046875,-3.9806792736053467,-0.8785882592201233,-1.388536810874939
1772790945293530000,5.067530029296875,-3.577186346054077,0.04767191410064697,-0.9621215462684631
1772790945313563100,5.087563232421875,-2.6489639282226562,1.2037410736083984,-0.2531166672706604
1772790945333596200,5.10759619140625,-0.9469569325447083,1.8446263074874878,0.16437296569347382
1772790945353629200,5.127629150390625,1.0640960931777954,1.5522985458374023,0.1022733747959137
1772790945373662200,5.147662109375,2.703202962875366,1.0144907236099243,0.09783921390771866
1772790945393694500,5.167694580078125,3.652052879333496,0.6884135603904724,0.406648725271225
1772790945413727200,5.187727294921875,3.8656527996063232,0.7845472693443298,0.9091227650642395
1772790945433760500,5.207760498046875,3.729886054992676,1.1392366886138916,1.3669774532318115
1772790945453793300,5.227793212890625,3.306887626647949,1.6492186784744263,1.6354315280914307
1772790945473826300,5.247826416015625,2.898273468017578,2.1751179695129395,1.5640102624893188
1772790945493858300,5.2678583984375,2.677588701248169,2.645522117614746,1.2928112745285034
1772790945513891600,5.2878916015625,2.634392738342285,3.0348427295684814,1.0582374334335327
1772790945533924400,5.30792431640625,2.7126498222351074,3.3920133113861084,0.9464259147644043
1772790945553957400,5.327957275390625,2.830855369567871,3.7437119483947754,0.931503415107727
1772790945573990400,5.347990478515625,2.949462890625,4.073147296905518,0.9295303225517273
1772790945594022400,5.3680224609375,3.1278834342956543,4.300944805145264,0.9469630718231201
1772790945614055400,5.388055419921875,3.399313449859619,4.430218696594238,0.9355186820030212
1772790945634088200,5.408088134765625,3.5919620990753174,4.341057777404785,0.8264486789703369
1772790945654121500,5.42812158203125,3.5152394771575928,4.051046848297119,0.41145360469818115
1772790945674154200,5.448154296875,3.2137043476104736,3.357212543487549,-0.1771971434354782
1772790945694186500,5.4681865234375,2.8149280548095703,2.2255523204803467,-0.8078102469444275
1772790945714219300,5.48821923828125,2.5005550384521484,0.8161746859550476,-1.425537347793579
1772790945734252500,5.50825244140625,2.393549919128418,-0.4875824451446533,-1.7538771629333496
1772790945754285300,5.528285400390625,2.4232890605926514,-1.3870365619659424,-1.7472105026245117
1772790945774318300,5.548318359375,2.4897561073303223,-1.8595032691955566,-1.525873064994812
1772790945794350300,5.568350341796875,2.516653299331665,-1.9957913160324097,-1.1526228189468384
1772790945814383400,5.58838330078125,2.477480888366699,-1.8936995267868042,-0.7020420432090759
1772790945834416400,5.60841650390625,2.395965814590454,-1.700634479522705,-0.22302083671092987
1772790945854449200,5.62844921875,2.253519296646118,-1.4325798749923706,0.186586394906044
1772790945874482400,5.648482421875,2.0306737422943115,-1.1308530569076538,0.4556522071361542
1772790945894514400,5.668514404296875,1.738284945487976,-0.8519753217697144,0.5848962068557739
1772790945914547500,5.68854736328125,1.4069509506225586,-0.6306977868080139,0.6393551826477051
1772790945934580200,5.708580322265625,1.093644380569458,-0.3671492338180542,0.5101913809776306
1772790945954613500,5.728613525390625,0.7310987114906311,-0.26727697253227234,0.16847476363182068
1772790945974646300,5.748646240234375,0.26693663001060486,-0.35907799005508423,-0.03917616605758667
1772790945994678300,5.76867822265625,-0.3650285601615906,-0.5570997595787048,0.1538657248020172
1772790946014711300,5.788711181640625,-1.2336997985839844,-0.7309091091156006,0.6770421266555786
1772790946034744300,5.808744384765625,-2.0538785457611084,-0.504566490650177,1.305904746055603
1772790946054777300,5.82877734375,-2.5613796710968018,0.032710008323192596,1.9067503213882446
1772790946074810400,5.848810302734375,-2.8693089485168457,0.7745998501777649,2.427213668823242
1772790946094842400,5.86884228515625,-3.1609554290771484,1.214894413948059,2.8122434616088867
1772790946114875400,5.88887548828125,-3.5059080123901367,1.1081032752990723,3.0057384967803955
1772790946134908400,5.908908447265625,-3.721433639526367,0.7512548565864563,2.936068058013916
1772790946154941400,5.92894140625,-3.807222843170166,0.2375667542219162,2.453392505645752
1772790946174974500,5.948974365234375,-3.9460673332214355,-0.3233751356601715,1.543211579322815
1772790946195006500,5.96900634765625,-4.0761847496032715,-0.8517090082168579,0.43410271406173706
1772790946215039200,5.989039306640625,-3.9807822704315186,-1.2716575860977173,-0.527648389339447
1772790946235072300,6.009072265625,-3.528289556503296,-1.4666379690170288,-1.102384090423584
1772790946255105300,6.029105224609375,-2.758977174758911,-1.7045232057571411,-1.3409490585327148
1772790946275137500,6.049137451171875,-1.8991882801055908,-2.1181893348693848,-1.4659473896026611
1772790946295170300,6.06917041015625,-1.1171613931655884,-2.6660735607147217,-1.5760829448699951
1772790946315203300,6.089203369140625,-0.4666209816932678,-3.181155204772949,-1.6725949048995972
1772790946335236400,6.109236328125,0.06624186784029007,-3.5506558418273926,-1.7633788585662842
1772790946355269400,6.129269287109375,0.4372287392616272,-3.7865114212036133,-1.8399298191070557
1772790946375301400,6.14930126953125,0.6460397243499756,-3.9396448135375977,-1.950212836265564
1772790946395334100,6.169334228515625,0.7357227206230164,-4.0146026611328125,-2.072141647338867
1772790946415367400,6.189367431640625,0.7182657122612,-3.9612812995910645,-2.200322389602661
1772790946435400200,6.209400146484375,0.6311166882514954,-3.81844425201416,-2.3668267726898193
1772790946455433500,6.22943359375,0.48201483488082886,-3.5685062408447266,-2.5542283058166504
1772790946475465200,6.24946533203125,0.2681427597999573,-3.262529134750366,-2.756884813308716
1772790946495498500,6.26949853515625,-0.03262638673186302,-2.926772356033325,-2.917496681213379
1772790946515531300,6.28953125,-0.46935150027275085,-2.630664587020874,-3.029284954071045
1772790946535564500,6.309564453125,-1.086106538772583,-2.335390090942383,-2.943286180496216
1772790946555597300,6.329597412109375,-1.92988920211792,-1.7956198453903198,-2.5933644771575928
1772790946575629300,6.34962939453125,-2.837345600128174,-0.9237735867500305,-2.3646814823150635
1772790946595662300,6.369662353515625,-3.6860365867614746,0.39249083399772644,-1.5335900783538818
1772790946615695400,6.3896953125,-4.238386154174805,2.1050853729248047,-0.12318584322929382
1772790946635728400,6.409728271484375,-4.401528835296631,3.3201756477355957,1.2438613176345825
1772790946655761200,6.42976123046875,-4.085422039031982,3.64678692817688,2.150536298751831
1772790946675793400,6.44979345703125,-3.2340328693389893,3.3437016010284424,2.4108920097351074
1772790946695826200,6.469826171875,-2.1631240844726562,2.7851529121398926,2.065492868423462
1772790946715859500,6.489859375,-0.9384691715240479,2.1933064460754395,1.3764883279800415
1772790946735892200,6.509892333984375,0.3857104182243347,1.6368699073791504,0.688147246837616
1772790946755925500,6.529925537109375,1.4640083312988281,0.9394668340682983,0.03668877109885216
1772790946775957200,6.549957275390625,2.2286720275878906,0.28228601813316345,-0.5061521530151367
1772790946795990500,6.569990478515625,2.6225366592407227,-0.2522636651992798,-0.8253247737884521
1772790946816023300,6.590023193359375,2.746136426925659,-0.5100646018981934,-0.8979142904281616
1772790946836056600,6.610056640625,2.699486494064331,-0.424434632062912,-0.7077702283859253
1772790946856089300,6.63008935546875,2.545408248901367,-0.05762574449181557,-0.37650784850120544
1772790946876121300,6.650121337890625,2.3053224086761475,0.4966507852077484,0.020544156432151794
1772790946896154400,6.670154296875,2.0647008419036865,1.2202202081680298,0.45739445090293884
1772790946916187400,6.6901875,1.89944589138031,2.028595209121704,0.8711413145065308
1772790946936220400,6.710220458984375,1.8237154483795166,2.823873996734619,1.2587214708328247
1772790946956253200,6.730253173828125,1.8760020732879639,3.570765256881714,1.5846152305603027
1772790946976285400,6.750285400390625,2.1034817695617676,4.238381385803223,1.8444931507110596
1772790946996318500,6.770318359375,2.4508368968963623,4.832713603973389,2.0261549949645996
1772790947016351500,6.7903515625,2.8315036296844482,5.293931007385254,2.0684025287628174
1772790947036384300,6.81038427734375,3.124149799346924,5.544070720672607,1.9551711082458496
1772790947056417500,6.83041748046875,3.245518207550049,5.483265399932861,1.6294718980789185
1772790947076449300,6.85044921875,3.1981427669525146,4.9504265785217285,1.1966408491134644
1772790947096482300,6.870482421875,3.064925193786621,4.065627574920654,0.6926674246788025
1772790947116515300,6.890515380859375,2.973233461380005,3.004403591156006,0.11290151625871658
1772790947136548400,6.91054833984375,2.95503568649292,1.921588659286499,-0.4352193772792816
1772790947156581400,6.930581298828125,3.0355396270751953,0.8665963411331177,-0.8506109714508057
1772790947176613400,6.95061328125,3.1513447761535645,-0.15480901300907135,-1.0781381130218506
1772790947196646400,6.970646484375,3.1283247470855713,-1.0727561712265015,-1.100807547569275
1772790947216679400,6.990679443359375,2.8166890144348145,-1.8693766593933105,-1.1181780099868774
1772790947236712400,7.01071240234375,2.404088020324707,-2.5112342834472656,-1.1415621042251587
1772790947256745200,7.0307451171875,2.018723964691162,-2.852287530899048,-1.068972110748291
1772790947276777200,7.050777099609375,1.726554274559021,-2.817946434020996,-0.9851373434066772
1772790947296810500,7.070810546875,1.5962036848068237,-2.4706506729125977,-1.0386652946472168
1772790947316843300,7.09084326171875,1.4500025510787964,-2.097013473510742,-1.1468522548675537
1772790947336876300,7.110876220703125,1.1873338222503662,-1.8500652313232422,-1.1685010194778442
1772790947356909300,7.130909423828125,0.7066172957420349,-1.7483396530151367,-0.9485229253768921
1772790947376941600,7.150941650390625,-0.20912419259548187,-1.7098690271377563,-0.5283671617507935
1772790947396974300,7.170974365234375,-1.3623703718185425,-1.8204258680343628,-0.13219799101352692
1772790947417007400,7.19100732421875,-2.520794153213501,-1.8336750268936157,0.3134838938713074
1772790947437040400,7.211040283203125,-3.461219310760498,-1.7100958824157715,0.7780891060829163
1772790947457073400,7.231073486328125,-4.11073637008667,-1.3518320322036743,1.3064123392105103
1772790947477105400,7.25110546875,-4.4594502449035645,-0.7003993988037109,1.8072600364685059
1772790947497138200,7.27113818359375,-4.583841323852539,0.1001172810792923,2.170999050140381
1772790947517171500,7.29117138671875,-4.568058013916016,0.9844571948051453,2.28903865814209
1772790947537204200,7.311204345703125,-4.576722621917725,1.6675529479980469,1.9418824911117554
1772790947557237500,7.331237548828125,-4.796886444091797,2.093993663787842,1.2281771898269653
1772790947577269200,7.351269287109375,-5.047947883605957,2.218332052230835,0.5800141096115112
1772790947597302500,7.371302490234375,-5.130406856536865,2.3207337856292725,0.23195654153823853
1772790947617335300,7.391335205078125,-4.996456623077393,2.2706079483032227,0.4131564199924469
1772790947637368300,7.411368408203125,-4.478143692016602,1.9113069772720337,0.813305675983429
1772790947657401300,7.4314013671875,-3.6070961952209473,1.2517434358596802,1.0588009357452393
1772790947677433300,7.451433349609375,-2.5181291103363037,0.5170681476593018,1.1143869161605835
1772790947697466400,7.47146630859375,-1.4126136302947998,-0.21290640532970428,0.8721511363983154
1772790947717499100,7.4914990234375,-0.3438766896724701,-0.9419576525688171,0.43258151412010193
1772790947737532400,7.511532470703125,0.572266161441803,-1.6649236679077148,-0.08080936223268509
1772790947757565200,7.531565185546875,1.2666218280792236,-2.3207643032073975,-0.5329392552375793
1772790947777597400,7.551597412109375,1.913728952407837,-3.1156015396118164,-0.8792809844017029
1772790947797630200,7.571630126953125,2.2758185863494873,-3.7855446338653564,-1.1495718955993652
1772790947817663500,7.59166357421875,2.404420852661133,-4.392295837402344,-1.3661718368530273
1772790947837696300,7.6116962890625,2.3252921104431152,-4.813762664794922,-1.4432697296142578
1772790947857729500,7.6317294921875,2.105829954147339,-5.031752109527588,-1.4411957263946533
1772790947877762300,7.65176220703125,1.796190857887268,-5.026052951812744,-1.4506802558898926
1772790947897794300,7.671794189453125,1.3287895917892456,-4.8409013748168945,-1.5121287107467651
1772790947917827300,7.691827392578125,0.6702728867530823,-4.625927925109863,-1.6093945503234863
1772790947937860400,7.7118603515625,-0.008017446845769882,-4.158761501312256,-1.700801968574524
1772790947957893400,7.731893310546875,-0.6018579006195068,-3.3641812801361084,-1.819965124130249
1772790947977926100,7.751926025390625,-1.1657958030700684,-2.25065279006958,-1.8299192190170288
1772790947997958400,7.77195849609375,-1.7783361673355103,-1.0847773551940918,-1.7021995782852173
1772790948017991400,7.791991455078125,-2.2920215129852295,0.0954921692609787,-1.473343849182129
1772790948038024400,7.8120244140625,-2.460177421569824,1.446819543838501,-1.039172887802124
1772790948058057200,7.83205712890625,-2.214881181716919,2.940808057785034,-0.38695889711380005
1772790948078090500,7.852090576171875,-1.7293769121170044,4.102682590484619,0.05073481798171997
1772790948098122200,7.872122314453125,-1.2255613803863525,4.48440408706665,-0.08438625186681747
1772790948118155300,7.8921552734375,-0.7566133737564087,3.683622360229492,-0.5405383110046387
1772790948138188300,7.912188232421875,-0.09666742384433746,2.003539562225342,-1.1857365369796753
1772790948158221300,7.93222119140625,0.7580016851425171,-0.044863611459732056,-1.993094563484192
1772790948178254300,7.95225439453125,1.573104739189148,-1.508256196975708,-2.4367196559906006
1772790948198286300,7.972286376953125,2.0888192653656006,-2.1062264442443848,-2.323758602142334
1772790948218319400,7.9923193359375,2.3884472846984863,-2.024336099624634,-1.6754947900772095
1772790948238352400,8.012352294921875,2.6872551441192627,-1.699510931968689,-0.7053059935569763
1772790948258385400,8.032385498046875,3.0306999683380127,-1.1735386848449707,0.12490731477737427
1772790948278418200,8.052418212890625,3.358623504638672,-0.49985748529434204,0.7563276290893555
1772790948298450400,8.072450439453124,3.479839563369751,0.26234373450279236,1.3208889961242676
1772790948318483500,8.0924833984375,3.233321189880371,0.9609694480895996,1.838879108428955
1772790948338516200,8.11251611328125,2.7202682495117188,1.5826082229614258,2.23598575592041
1772790948358549200,8.13254931640625,2.0932254791259766,2.1123600006103516,2.3879199028015137
1772790948378582000,8.15258203125,1.484195590019226,2.5045647621154785,2.2723920345306396
1772790948398614000,8.172614013671875,1.0039398670196533,2.779127359390259,1.9307563304901123
1772790948418647000,8.19264697265625,0.6764993667602539,2.999626636505127,1.5059677362442017
1772790948438679800,8.2126796875,0.5035403966903687,3.2108078002929688,1.1255536079406738
1772790948458713000,8.232713134765625,0.4562298655509949,3.4155445098876953,0.8390227556228638
1772790948478745900,8.252745849609376,0.5073934197425842,3.5807580947875977,0.6500450968742371
1772790948498778000,8.272778076171875,0.6534622311592102,3.64227294921875,0.5304646492004395
1772790948518811000,8.292810791015626,0.847743809223175,3.5707406997680664,0.4006459414958954
1772790948538844200,8.31284423828125,1.0518304109573364,3.323622465133667,0.21996352076530457
1772790948558877000,8.332876953125,1.2036268711090088,2.8364241123199463,0.00013502225920092314
1772790948578910200,8.35291015625,1.3399662971496582,2.1620066165924072,-0.26140549778938293
1772790948598942000,8.37294189453125,1.4630788564682007,1.3589985370635986,-0.5506525039672852
1772790948618975000,8.39297509765625,1.545836091041565,0.4634166657924652,-0.796188473701477
1772790948639008000,8.413008056640624,1.6237822771072388,-0.45178183913230896,-0.934930145740509
1772790948659041000,8.433041015625,1.6922638416290283,-1.2532979249954224,-1.0170729160308838
1772790948679074000,8.453073974609374,1.730375051498413,-1.9445741176605225,-1.0118709802627563
1772790948699106800,8.47310693359375,1.7084414958953857,-2.5484774112701416,-0.8746622800827026
1772790948719139000,8.49313916015625,1.4965507984161377,-3.0243778228759766,-0.5160391330718994
1772790948739172000,8.513172119140625,0.9377772808074951,-3.368401527404785,-0.15532433986663818
1772790948759205000,8.533205078125,0.11307276040315628,-3.582879066467285,-0.02185096964240074
1772790948779238000,8.55323779296875,-0.6509676575660706,-3.7119903564453125,0.09702614694833755
1772790948799271200,8.573271240234375,-1.1935757398605347,-3.645799398422241,0.20755718648433685
1772790948819303000,8.593302978515625,-1.4715884923934937,-3.290034055709839,0.08224160969257355
1772790948839336000,8.6133359375,-1.633852481842041,-2.8725762367248535,-0.021329257637262344
1772790948859369000,8.633368896484376,-1.9359290599822998,-2.6100144386291504,0.3229495584964752
1772790948879402000,8.653402099609375,-2.3229987621307373,-2.490332841873169,0.8061093091964722
1772790948899435000,8.67343505859375,-2.7517077922821045,-2.343129873275757,0.7846261262893677
1772790948919467000,8.693467041015625,-3.2778143882751465,-2.199629306793213,0.24119290709495544
1772790948939500000,8.7135,-3.777665853500366,-1.9724841117858887,-0.7445425987243652
1772790948959533000,8.733532958984375,-4.13267183303833,-1.5432610511779785,-1.7855679988861084
1772790948979566000,8.753566162109376,-4.3564887046813965,-0.8083034753799438,-2.388427495956421
1772790948999599000,8.77359912109375,-4.370704650878906,0.45646873116493225,-2.5095272064208984
1772790949019632000,8.793632080078124,-4.233870506286621,2.0890495777130127,-1.9845319986343384
1772790949039664000,8.8136640625,-4.050719738006592,3.7828238010406494,-0.8585613369941711
1772790949059697000,8.83369677734375,-3.416841745376587,5.11490535736084,0.5272411704063416
1772790949079730000,8.85372998046875,-2.2658143043518066,5.4175543785095215,1.4423410892486572
1772790949099763000,8.873762939453124,-1.1304287910461426,4.669682025909424,1.4163596630096436
1772790949119796000,8.8937958984375,-0.3391304016113281,3.0712130069732666,0.5750060081481934
1772790949139828000,8.913827880859374,0.16489867866039276,0.922314465045929,-0.8198911547660828
1772790949159861000,8.933861083984375,0.7306744456291199,-1.5420267581939697,-2.1432571411132812
1772790949179894000,8.95389404296875,1.3177310228347778,-3.663834810256958,-2.921840190887451
1772790949199927000,8.973927001953125,1.8041480779647827,-5.364745616912842,-3.1005711555480957
1772790949219960000,8.9939599609375,2.09256911277771,-6.505741596221924,-2.875858783721924
1772790949239991800,9.01399169921875,2.141981840133667,-7.123267650604248,-2.376229763031006
1772790949260025000,9.034025146484375,2.0528664588928223,-7.230587959289551,-1.7724199295043945
1772790949280057900,9.054057861328126,1.90655517578125,-6.803705215454102,-1.1927506923675537
1772790949300091100,9.074091064453125,1.673206090927124,-5.913674831390381,-0.7114853262901306
1772790949320124000,9.0941240234375,1.3223761320114136,-4.68398380279541,-0.41986119747161865
1772790949340157000,9.114156982421875,0.7936632633209229,-3.2949044704437256,-0.24913978576660156
1772790949360189000,9.13418896484375,0.045945122838020325,-1.9803699254989624,-0.2161719799041748
1772790949380222700,9.15422265625,-0.6702662706375122,-0.6260644197463989,-0.21399325132369995
1772790949400255700,9.174255859375,-1.244705319404602,0.8937142491340637,0.003693005535751581
1772790949420288800,9.194288818359375,-1.7043333053588867,2.514800548553467,0.4196220338344574
1772790949440321800,9.21432177734375,-2.0861427783966064,4.0613908767700195,1.0737454891204834
1772790949460353500,9.234353515625,-2.3174703121185303,5.356700420379639,1.997186303138733
1772790949480386800,9.25438671875,-2.108811378479004,6.155920028686523,3.010455846786499
1772790949500419600,9.274419677734375,-1.2857933044433594,6.215961933135986,3.968842029571533
1772790949520452900,9.294452880859374,-0.2997792661190033,5.282669544219971,4.245000839233398
1772790949540485600,9.314485595703125,0.10150399059057236,3.3873579502105713,3.421117067337036
1772790949560518000,9.334517822265624,-0.08207915723323822,1.347071647644043,1.4728825092315674
1772790949580550700,9.354550537109375,-0.3438953161239624,-0.35675784945487976,-0.7690010666847229
1772790949600583700,9.374583740234375,-0.3761078417301178,-1.1002285480499268,-2.3654625415802
1772790949620616700,9.39461669921875,-0.10284356027841568,-0.8678703904151917,-3.220120668411255
1772790949640649700,9.414649658203125,0.31254300475120544,-0.13378629088401794,-3.220705509185791
1772790949660681700,9.434681640625,0.6772386431694031,0.5267357230186462,-2.740690231323242
1772790949680714800,9.45471484375,1.0090898275375366,0.8900563716888428,-2.1216304302215576
1772790949700747800,9.474747802734376,1.325932264328003,0.9292455911636353,-1.5962162017822266
1772790949720780500,9.494780517578125,1.6018115282058716,0.7164691686630249,-1.251589059829712
1772790949740813800,9.514813720703126,1.8416259288787842,0.5143527984619141,-1.050752878189087
1772790949760846600,9.5348466796875,1.985162615776062,0.4978761076927185,-0.9484339356422424
1772790949780878800,9.55487890625,2.1064865589141846,0.47144609689712524,-0.789310097694397
1772790949800911600,9.57491162109375,2.066678285598755,0.6299837827682495,-0.562096118927002
1772790949820945000,9.59494482421875,1.9191327095031738,0.9956890940666199,-0.23856863379478455
1772790949840977700,9.614977783203125,1.6429027318954468,1.5370585918426514,0.11705418676137924
1772790949861010700,9.6350107421875,1.3295626640319824,2.19515061378479,0.4284570813179016
1772790949881042700,9.655042724609375,1.0989121198654175,2.858348846435547,0.6564023494720459
1772790949901075700,9.67507568359375,0.9636693596839905,3.4468491077423096,0.8320468664169312
1772790949921108700,9.695108642578125,0.9491777420043945,3.8730580806732178,0.9541275501251221
1772790949941141800,9.715141845703124,1.0719753503799438,4.142117500305176,1.0548559427261353
1772790949961174800,9.7351748046875,1.31351900100708,4.214615821838379,1.1578292846679688
1772790949981206500,9.75520654296875,1.599393606185913,4.058609962463379,1.2209107875823975
1772790950001239800,9.77523974609375,1.8480652570724487,3.6373910903930664,1.220974087715149
1772790950021272600,9.7952724609375,1.975738525390625,2.9942781925201416,1.1187516450881958
1772790950041305900,9.815305908203126,1.9598265886306763,2.11944317817688,0.9834262728691101
1772790950061338600,9.835338623046875,1.8428571224212646,1.2136344909667969,0.7917404770851135
1772790950081372000,9.855371826171876,1.6755746603012085,0.36700862646102905,0.6637345552444458
1772790950101403600,9.875403564453125,1.5458537340164185,-0.3311867117881775,0.6517332792282104
1772790950121437000,9.89543701171875,1.4660919904708862,-0.8410712480545044,0.6872676014900208
1772790950141469700,9.9154697265625,1.4540095329284668,-1.1264907121658325,0.7669286131858826
1772790950161502700,9.935502685546876,1.4509769678115845,-1.2295255661010742,0.843267023563385
1772790950181535700,9.95553564453125,1.4712507724761963,-1.1249018907546997,0.8131394982337952
1772790950201567700,9.975567626953126,1.5877673625946045,-0.7531400918960571,0.6677042841911316
1772790950221600800,9.995600830078125,1.509072184562683,-0.5569646954536438,0.43589234352111816
1772790950241633500,10.015633544921876,1.3205091953277588,-0.39604640007019043,0.19169460237026215
1772790950261666800,10.035666748046875,1.1298221349716187,-0.2730211615562439,0.17558886110782623
1772790950281699600,10.055699462890624,0.7684497833251953,-0.2763615548610687,0.21212983131408691
1772790950301731800,10.07573193359375,0.18866099417209625,-0.389692097902298,0.25470712780952454
1772790950321764600,10.0957646484375,-0.6674784421920776,-0.5316686630249023,0.16565926373004913
1772790950341798000,10.1157978515625,-1.4222073554992676,-0.7073952555656433,-0.5762619972229004
1772790950361830700,10.13583056640625,-2.0572760105133057,-0.9154371023178101,-1.2300834655761719
1772790950381864000,10.155864013671875,-2.6694648265838623,-1.2146509885787964,-0.7649347186088562
1772790950401896700,10.175896728515625,-3.051377058029175,-1.1122117042541504,0.24781060218811035
1772790950421928700,10.1959287109375,-3.488621711730957,-1.0011928081512451,0.9154869318008423
1772790950441961700,10.215961669921874,-4.042604446411133,-1.1365820169448853,0.7629775404930115
1772790950461994800,10.235994873046875,-4.5759711265563965,-1.5304875373840332,-0.0988517478108406
1772790950482027800,10.25602783203125,-4.856358528137207,-1.7704335451126099,-1.0804548263549805
1772790950502060500,10.276060546875,-4.616365432739258,-1.5733827352523804,-1.665461778640747
1772790950522092800,10.2960927734375,-4.0054216384887695,-0.6983237266540527,-1.6431986093521118
1772790950542125800,10.316125732421876,-2.718263626098633,0.5017096996307373,-1.2632081508636475
1772790950562158800,10.336158935546875,-0.809635579586029,1.5507142543792725,-0.6718923449516296
1772790950582191600,10.356191650390626,0.8250910043716431,2.3737311363220215,-0.3143986761569977
1772790950602225000,10.376224853515625,2.0553081035614014,2.6901910305023193,-0.21251891553401947
1772790950622257700,10.396257568359376,2.739363193511963,2.6064867973327637,-0.26929670572280884
1772790950642289700,10.41628955078125,2.7154452800750732,2.06352162361145,-0.3300071954727173
1772790950662322700,10.43632275390625,2.082740068435669,1.0951805114746094,-0.308435320854187
1772790950682355700,10.456355712890625,1.295462727546692,-0.09809727221727371,-0.19274042546749115
1772790950702388700,10.476388671875,0.6679207682609558,-1.0904449224472046,-0.03869413211941719
1772790950722421800,10.496421875,0.36946964263916016,-1.7945690155029297,0.0810069665312767
1772790950742453800,10.516453857421874,0.29406625032424927,-2.150421380996704,0.1068396270275116
1772790950762486800,10.53648681640625,0.3085192143917084,-2.1821699142456055,0.10876669734716415
1772790950782519800,10.556519775390624,0.3280271291732788,-1.9680176973342896,0.0887591615319252
1772790950802552600,10.576552490234375,0.32483693957328796,-1.4785374402999878,0.08694235235452652
1772790950822585900,10.5965859375,0.34061670303344727,-0.8135701417922974,0.1488989293575287
1772790950842617900,10.616617919921875,0.378927618265152,-0.09426471590995789,0.22793330252170563
1772790950862650600,10.636650634765624,0.4814332127571106,0.5167145133018494,0.29450488090515137
1772790950882683600,10.65668359375,0.636668860912323,0.8682733178138733,0.43874114751815796
1772790950902716700,10.676716552734375,0.7174805998802185,1.0196164846420288,0.6960256695747375
1772790950922749700,10.696749755859376,0.7521216869354248,0.9628341794013977,0.9851975440979004
1772790950942782700,10.71678271484375,0.8033595681190491,0.807844340801239,1.2150694131851196
1772790950962814700,10.736814697265626,0.9144927859306335,0.6367388963699341,1.3704917430877686
1772790950982847700,10.75684765625,0.9966342449188232,0.5175794959068298,1.4972413778305054
1772790951002880800,10.776880859375,0.9903390407562256,0.4885734021663666,1.6905269622802734
1772790951022913800,10.796913818359375,0.8103847503662109,0.5466806292533875,1.820339322090149
1772790951042946800,10.81694677734375,0.5292611718177795,0.6251459121704102,1.800536036491394
1772790951062978800,10.836978759765625,0.287102073431015,0.7034103274345398,1.6697309017181396
1772790951083011600,10.857011474609376,-0.000024767397917457856,0.7875491976737976,1.3690959215164185
1772790951103044900,10.877044921875,-0.3295843005180359,0.8428742289543152,0.9158549904823303
1772790951123077600,10.89707763671875,-0.5839383006095886,0.8484072089195251,0.42910075187683105
1772790951143110700,10.917110595703125,-0.7901564240455627,0.8549420833587646,0.005632585845887661
1772790951163143700,10.937143798828124,-0.9651879072189331,0.8334519863128662,-0.3531372845172882
1772790951183175700,10.95717578125,-1.0380754470825195,0.785804033279419,-0.5824679732322693
1772790951203208700,10.977208740234374,-1.0518425703048706,0.7404195070266724,-0.6317942142486572
1772790951223241700,10.99724169921875,-0.9964379668235779,0.8468710780143738,-0.7806577086448669
1772790951243274800,11.017274658203124,-0.9633079767227173,0.8852163553237915,-1.0389862060546875
1772790951263307800,11.037307861328125,-0.9950509667396545,0.8193337321281433,-1.1467195749282837
1772790951283339800,11.05733984375,-0.9723438024520874,0.6606540679931641,-1.144293189048767
1772790951303372500,11.07737255859375,-0.9088490009307861,0.4721989631652832,-1.0357714891433716
1772790951323405800,11.09740576171875,-0.770183801651001,0.28669649362564087,-0.9588370323181152
1772790951343438600,11.1174384765625,-0.5423135757446289,0.16022323071956635,-0.9058182835578918
1772790951363472000,11.137471923828125,-0.271485298871994,0.12638749182224274,-0.7895289659500122
1772790951383504600,11.157504638671876,0.008184426464140415,0.17923712730407715,-0.6717932820320129
1772790951403537000,11.177536865234375,0.2787562608718872,0.25441843271255493,-0.5342181324958801
1772790951423569700,11.197569580078126,0.52585369348526,0.33675244450569153,-0.37617549300193787
1772790951443602700,11.217602783203125,0.7648995518684387,0.46421322226524353,-0.21991531550884247
1772790951463635700,11.2376357421875,0.9801990389823914,0.7082101702690125,-0.09692148864269257
1772790951483668700,11.257668701171875,1.0504199266433716,1.0164135694503784,-0.11943771690130234
1772790951503701800,11.27770166015625,0.9881182312965393,1.296939492225647,-0.14499633014202118
1772790951523733500,11.2977333984375,0.8083873391151428,1.5934534072875977,0.04195224493741989
1772790951543766800,11.317766845703124,0.5586025714874268,1.9590721130371094,0.521606981754303
1772790951563799600,11.337799560546875,0.3860795199871063,2.3997621536254883,1.2211298942565918
1772790951583832800,11.357832763671874,0.4010709822177887,2.9233713150024414,1.9808323383331299
1772790951603865600,11.377865478515625,0.6355178356170654,3.431323766708374,2.6068248748779297
1772790951623897900,11.39789794921875,1.0895394086837769,3.9581778049468994,3.028153419494629
1772790951643930600,11.4179306640625,1.7032744884490967,4.459069728851318,3.205883741378784
1772790951663964000,11.4379638671875,2.3880486488342285,4.896066188812256,3.1194114685058594
1772790951683996700,11.45799658203125,3.0007736682891846,5.1863813400268555,2.812008857727051
1772790951704029700,11.47802978515625,3.446431875228882,5.236015796661377,2.316960334777832
1772790951724062700,11.498062744140626,3.7035927772521973,4.983236789703369,1.6488714218139648
1772790951744094700,11.5180947265625,3.7857086658477783,4.416889667510986,0.9513575434684753
1772790951764127700,11.538127685546876,3.779364585876465,3.6646037101745605,0.30179688334465027
1772790951784160500,11.558160400390625,3.7745141983032227,2.759758710861206,-0.27049753069877625
1772790951804193800,11.57819384765625,3.7651445865631104,1.793576955795288,-0.682907223701477
1772790951824226600,11.5982265625,3.8106305599212646,0.7905388474464417,-0.9118173718452454
1772790951844259800,11.618259765625,3.810932159423828,-0.24503132700920105,-0.8923885226249695
1772790951864291600,11.63829150390625,3.6593430042266846,-1.0725226402282715,-0.7281838655471802
1772790951884324900,11.658324951171876,3.321967124938965,-1.695560097694397,-0.3863160014152527
1772790951904357600,11.678357666015625,2.9072470664978027,-2.1309573650360107,-0.060694240033626556
1772790951924391000,11.698390869140624,2.563990592956543,-2.290091037750244,0.14040584862232208
1772790951944423700,11.718423583984375,2.3087310791015625,-2.158651351928711,0.2432273030281067
1772790951964456000,11.7384560546875,2.0056092739105225,-1.8738712072372437,0.28115472197532654
1772790951984488700,11.75848876953125,1.6999833583831787,-1.5702956914901733,0.26888686418533325
1772790952004521700,11.778521728515624,1.392209529876709,-1.2992327213287354,0.32697466015815735
1772790952024554800,11.7985546875,1.1151379346847534,-1.113876461982727,0.5128211975097656
1772790952044587500,11.81858740234375,0.8653270602226257,-0.9852396249771118,0.7246397137641907
1772790952064620800,11.838620849609375,0.4928152859210968,-1.0450472831726074,0.7153112292289734
1772790952084652500,11.858652587890624,0.037031788378953934,-1.3349984884262085,0.30230528116226196
1772790952104685800,11.878685791015625,-0.4084620773792267,-1.6256023645401,-0.1984555721282959
1772790952124718600,11.898718505859375,-0.9781633615493774,-1.7422785758972168,-0.5559098124504089
1772790952144751900,11.918751953125,-1.7875128984451294,-1.769676685333252,-0.8656684756278992
1772790952164784600,11.93878466796875,-2.6767706871032715,-1.6899893283843994,-1.2523834705352783
1772790952184817000,11.95881689453125,-3.521970748901367,-1.3049769401550293,-1.6047990322113037
1772790952204849700,11.978849609375,-4.427245616912842,-0.5166745781898499,-1.8104467391967773
1772790952224883000,11.998883056640626,-5.295230388641357,0.49135056138038635,-1.8782109022140503
1772790952244915700,12.018915771484375,-5.993841171264648,1.7525311708450317,-1.5604888200759888
1772790952264948700,12.03894873046875,-6.481924057006836,3.121030330657959,-0.6881637573242188
1772790952284981800,12.058981689453125,-6.655703067779541,4.246785640716553,0.5463946461677551
1772790952305013800,12.079013671875,-6.565712928771973,4.785034656524658,1.7896405458450317
1772790952325046800,12.099046875,-6.277740478515625,4.667765140533447,2.7748289108276367
1772790952345079600,12.11907958984375,-5.585350036621094,3.8713760375976562,3.3947389125823975
1772790952365112600,12.139112548828125,-4.501974582672119,2.877864122390747,3.679210662841797
1772790952385145300,12.159145263671874,-3.073335886001587,1.8899023532867432,3.519320249557495
1772790952405178600,12.1791787109375,-1.368067979812622,0.763543963432312,2.8242053985595703
1772790952425210400,12.19921044921875,0.22819988429546356,-0.34852975606918335,1.81870436668396
1772790952445243400,12.219243408203125,1.5084279775619507,-1.4377977848052979,0.7849656343460083
1772790952465276400,12.2392763671875,2.51469087600708,-2.4641644954681396,-0.1067754477262497
1772790952485309400,12.259309326171875,3.210930109024048,-3.411736488342285,-0.79581218957901
1772790952505342500,12.279342529296875,3.522073745727539,-4.421614170074463,-1.2978137731552124
1772790952525375500,12.29937548828125,3.4740335941314697,-5.4141740798950195,-1.602469801902771
1772790952545407500,12.319407470703124,3.157116413116455,-6.108046054840088,-1.5937514305114746
1772790952565440500,12.3394404296875,2.6796929836273193,-6.234421730041504,-1.3792064189910889
1772790952585473500,12.3594736328125,2.103940010070801,-5.732803821563721,-1.03021240234375
1772790952605506300,12.37950634765625,1.5293338298797607,-4.731739521026611,-0.7185189723968506
1772790952625539600,12.39953955078125,1.0095316171646118,-3.177818536758423,-0.4482864439487457
1772790952645571600,12.419571533203126,0.41730695962905884,-0.9986297488212585,-0.07969775795936584
1772790952665604600,12.4396044921875,-0.2885415256023407,1.2524614334106445,0.44020959734916687
1772790952685637400,12.459637451171876,-1.0393651723861694,3.0122947692871094,0.9907324314117432
1772790952705670700,12.479670654296875,-1.7052347660064697,3.974670171737671,1.5534018278121948
1772790952725703400,12.499703369140626,-2.218698024749756,4.405916690826416,2.2034928798675537
1772790952745736400,12.519736328125,-2.5383222103118896,4.731429576873779,2.860158920288086
1772790952765768400,12.5397685546875,-2.5893502235412598,5.356595993041992,3.422532081604004
1772790952785801500,12.559801513671875,-2.297259569168091,5.5294575691223145,3.9319541454315186
1772790952805834500,12.57983447265625,-0.16084560751914978,3.3745193481445312,3.8759102821350098
1772790952825867500,12.599867431640625,0.00649784691631794,2.207440137863159,1.775363564491272
1772790952845900500,12.619900634765624,-0.7887641191482544,1.317284107208252,-0.04254746064543724
1772790952865933300,12.639933349609375,-1.282889485359192,1.3455193042755127,-1.159075379371643
1772790952885965600,12.659965576171874,-1.5100411176681519,1.3225308656692505,-1.7399557828903198
1772790952905998600,12.67999853515625,-1.393706202507019,1.243809461593628,-2.3018341064453125
1772790952926031600,12.700031494140624,-1.046932578086853,1.3651390075683594,-2.418675184249878
1772790952946064400,12.720064453125,-0.5834080576896667,1.5555102825164795,-2.3586795330047607
1772790952966097700,12.74009765625,-0.15018311142921448,1.3950692415237427,-2.36867356300354
1772790952986130400,12.76013037109375,0.2968902587890625,0.8639779090881348,-2.1456480026245117
1772790953006162400,12.780162353515625,0.5848299264907837,0.2242264449596405,-2.0057506561279297
1772790953026195500,12.800195556640626,0.7014212608337402,-0.5203755497932434,-2.098560333251953
1772790953046228500,12.820228515625,0.8240225315093994,-1.3081175088882446,-2.30704927444458
1772790953066261500,12.840261474609376,1.0094690322875977,-2.045400857925415,-2.6036176681518555
1772790953086294500,12.86029443359375,1.2459285259246826,-2.619696855545044,-2.7407445907592773
1772790953106327600,12.88032763671875,1.555016040802002,-2.8750991821289062,-2.6254589557647705
1772790953126359600,12.900359619140625,1.9748950004577637,-2.741834878921509,-2.432745933532715
1772790953146392600,12.920392578125,2.4052536487579346,-2.3280608654022217,-2.217634439468384
1772790953166425300,12.94042529296875,2.782151460647583,-1.7224417924880981,-2.0477964878082275
1772790953186458600,12.960458740234374,3.047360897064209,-0.9625867605209351,-1.9081565141677856
1772790953206491400,12.980491455078125,3.1287381649017334,0.13429735600948334,-1.6316015720367432
1772790953226524700,13.000524658203124,3.0111374855041504,1.247175931930542,-1.3123490810394287
1772790953246556400,13.020556396484375,2.755047559738159,2.119926929473877,-1.0674463510513306
1772790953266589400,13.04058935546875,2.3633124828338623,2.5143144130706787,-0.9078060984611511
1772790953286622500,13.06062255859375,1.9216749668121338,2.4817721843719482,-0.7510673403739929
1772790953306655500,13.080655517578125,1.5786854028701782,2.1523566246032715,-0.5893298387527466
1772790953326688500,13.1006884765625,1.4314701557159424,1.6651837825775146,-0.4393259584903717
1772790953346720500,13.120720458984374,1.4660038948059082,1.0901782512664795,-0.25263625383377075
1772790953366753300,13.140753173828125,1.544323205947876,0.3728119134902954,-0.041126396507024765
1772790953386786300,13.160786376953125,1.5788369178771973,-0.1673503816127777,0.21507209539413452
1772790953406819300,13.1808193359375,1.461711049079895,-0.4816342890262604,0.49900421500205994
1772790953426852400,13.200852294921875,1.1381676197052002,-0.6176615953445435,0.7846407294273376
1772790953446885000,13.220885009765626,0.6638019680976868,-0.6089179515838623,1.0944790840148926
1772790953466917400,13.24091748046875,0.11129483580589294,-0.40678587555885315,1.438300609588623
1772790953486950100,13.2609501953125,-0.35957813262939453,-0.07988764345645905,1.7614033222198486
1772790953506983200,13.280983154296875,-0.592136025428772,0.07148456573486328,1.8985960483551025
1772790953527016200,13.30101611328125,-0.6043838858604431,0.030228475108742714,1.7316032648086548
1772790953547049200,13.32104931640625,-0.5369947552680969,-0.19676871597766876,1.2755776643753052
1772790953567082200,13.341082275390624,-0.44133320450782776,-0.5022703409194946,0.4907185733318329
1772790953587114200,13.3611142578125,-0.41638442873954773,-0.8288790583610535,-0.43805617094039917
1772790953607147300,13.381147216796874,-0.5617871880531311,-1.2061445713043213,-0.9596096277236938
1772790953627180300,13.40118017578125,-0.8430182933807373,-1.5265899896621704,-0.9412292838096619
1772790953647213300,13.42121337890625,-1.2865946292877197,-1.8564711809158325,-0.4180116355419159
1772790953667246300,13.441246337890625,-1.96774423122406,-2.1519675254821777,0.26544684171676636
1772790953687279000,13.461279052734374,-2.740478277206421,-2.4175655841827393,0.756208062171936
1772790953707311000,13.48131103515625,-3.422593832015991,-2.7946321964263916,0.7714613080024719
1772790953727344400,13.501344482421874,-3.9075570106506348,-3.1810691356658936,0.22376731038093567
1772790953747377200,13.521377197265625,-4.108543395996094,-3.392493724822998,-0.48037993907928467
1772790953767410200,13.54141015625,-3.991583824157715,-3.065951347351074,-1.0509238243103027
1772790953787443200,13.561443115234376,-3.727673053741455,-1.9915962219238281,-1.366945505142212
1772790953807476200,13.581476318359375,-3.3846943378448486,-0.3686094582080841,-1.2659472227096558
1772790953827508200,13.60150830078125,-3.0038232803344727,1.4656914472579956,-0.7666207551956177
1772790953847541200,13.621541259765625,-2.2241029739379883,3.053903102874756,-0.020965470001101494
1772790953867574300,13.64157421875,-1.0277940034866333,3.8728079795837402,0.5300047397613525
1772790953887607300,13.661607177734375,-0.04490862041711807,3.6847612857818604,0.5329949259757996
1772790953907640300,13.681640380859376,0.4880405068397522,2.7779645919799805,-0.047513190656900406
1772790953927673300,13.70167333984375,0.7300624847412109,1.4463281631469727,-0.9093794822692871
1772790953947705300,13.721705322265626,0.8802248239517212,0.07062143832445145,-1.508017897605896
1772790953967738000,13.741738037109375,1.0448957681655884,-1.2056995630264282,-1.684736728668213
1772790953987771400,13.761771484375,1.1472375392913818,-2.3336620330810547,-1.5460048913955688
1772790954007804200,13.78180419921875,1.0552898645401,-3.265779972076416,-1.1675801277160645
1772790954027837200,13.801837158203124,0.7546695470809937,-3.933694839477539,-0.692560613155365
1772790954047870200,13.8218701171875,0.2590656578540802,-4.264665126800537,-0.2436547428369522
1772790954067902200,13.841902099609374,-0.30223149061203003,-4.228823184967041,0.020185695961117744
1772790954087935200,13.861935302734375,-0.6085168719291687,-3.805523157119751,0.13526727259159088
1772790954107968300,13.88196826171875,-0.6183314323425293,-2.9760630130767822,0.2585900127887726
1772790954128001300,13.902001220703125,-0.5094837546348572,-1.8845417499542236,0.3979939818382263
1772790954148034300,13.922034423828125,-0.3961001932621002,-0.7004464864730835,0.43159347772598267
1772790954168067300,13.9420673828125,-0.3150535523891449,0.40832197666168213,0.4502561092376709
1772790954188099000,13.96209912109375,-0.29887378215789795,1.2458776235580444,0.6097145080566406
1772790954208132400,13.98213232421875,-0.23291553556919098,1.6763770580291748,1.0558102130889893
1772790954228165000,14.0021650390625,-0.10651206225156784,1.564195156097412,1.692190170288086
1772790954248198100,14.0221982421875,0.02508830837905407,0.9650112986564636,1.9601541757583618
1772790954268231200,14.042231201171875,0.2972007989883423,0.4503738284111023,1.4015015363693237
1772790954288264200,14.06226416015625,0.4452674686908722,0.16972431540489197,0.344967246055603
1772790954308296200,14.082296142578125,0.2982458174228668,-0.1039639487862587,-0.7493296265602112
1772790954328329200,14.1023291015625,0.17901848256587982,-0.23057354986667633,-1.6863194704055786
1772790954348362200,14.1223623046875,0.22124077379703522,-0.27745503187179565,-2.2304227352142334
1772790954368395800,14.142395751953124,0.33733782172203064,-0.21386142075061798,-2.3749241828918457
1772790954388428800,14.1624287109375,0.4949871003627777,-0.05137397348880768,-2.271690845489502
1772790954408460500,14.18246044921875,0.6734484434127808,0.1168922632932663,-2.001534938812256
1772790954428493800,14.202493896484375,0.7894623875617981,0.12354110926389694,-1.6239674091339111
1772790954448526600,14.222526611328124,0.8567458391189575,0.016935307532548904,-1.1243219375610352
1772790954468559600,14.2425595703125,0.9438192248344421,-0.12676380574703217,-0.655942976474762
1772790954488592600,14.262592529296874,1.0715126991271973,-0.26981523633003235,-0.2611309289932251
1772790954508625700,14.282625732421875,1.2336302995681763,-0.3701370358467102,0.12341887503862381
1772790954528657700,14.30265771484375,1.4062135219573975,-0.41757938265800476,0.57980877161026
1772790954548690700,14.322690673828125,1.6006064414978027,-0.2791813015937805,1.0659480094909668
1772790954568723700,14.3427236328125,1.7814438343048096,0.009062204509973526,1.5219097137451172
1772790954588756700,14.3627568359375,1.931738257408142,0.4497610330581665,1.8700783252716064
1772790954608789800,14.382789794921875,2.0196266174316406,0.9870740175247192,2.057511806488037
1772790954628822800,14.40282275390625,1.9572172164916992,1.4858473539352417,2.1442694664001465
1772790954648854800,14.422854736328125,1.7100740671157837,1.8855865001678467,2.1711440086364746
1772790954668887600,14.442887451171876,1.3365579843521118,2.197211265563965,2.0258355140686035
1772790954688920800,14.4629208984375,0.9188185334205627,2.3477511405944824,1.761594533920288
1772790954708953600,14.48295361328125,0.5591908693313599,2.313997983932495,1.453247308731079
1772790954728986600,14.502986572265625,0.344518780708313,2.10673189163208,1.1892385482788086
1772790954749019600,14.52301953125,0.3071764409542084,1.78281831741333,1.0263569355010986
1772790954769052000,14.543052001953125,0.4451926350593567,1.4049484729766846,0.8809840679168701
1772790954789084700,14.563084716796874,0.7362974286079407,0.9964272975921631,0.6691628694534302
1772790954809117700,14.58311767578125,1.075405478477478,0.5279352068901062,0.4183652997016907
1772790954829150700,14.603150634765624,1.3381553888320923,0.03592551127076149,0.1633966565132141
1772790954849183700,14.623183837890625,1.4975913763046265,-0.4895225465297699,-0.07182758301496506
1772790954869216800,14.643216796875,1.5346710681915283,-0.971932590007782,-0.26187369227409363
1772790954889248500,14.66324853515625,1.4491626024246216,-1.3314024209976196,-0.34703704714775085
1772790954909281800,14.68328173828125,1.2737175226211548,-1.5527986288070679,-0.334618479013443
1772790954929314600,14.703314453125,1.0430337190628052,-1.6293009519577026,-0.2634281814098358
1772790954949347800,14.723347900390625,0.7779327630996704,-1.5767521858215332,-0.11366717517375946
1772790954969380600,14.743380615234376,0.4804198741912842,-1.4576934576034546,0.06889251619577408
1772790954989413600,14.76341357421875,0.11818842589855194,-1.3067119121551514,0.24361638724803925
1772790955009445600,14.783445556640626,-0.2751373052597046,-1.1522712707519531,0.33906862139701843
1772790955029479000,14.80347900390625,-0.6744831204414368,-1.001965045928955,0.29519596695899963
1772790955049511700,14.82351171875,-1.019526720046997,-0.7861265540122986,-0.03213583305478096
1772790955069544700,14.843544677734375,-1.3300944566726685,-0.6216840744018555,-0.5272997617721558
1772790955089577700,14.86357763671875,-1.6411514282226562,-0.5936247110366821,-0.8915280699729919
1772790955109610800,14.88361083984375,-1.921748161315918,-0.6075913906097412,-1.0696450471878052
1772790955129642800,14.903642822265626,-2.138845205307007,-0.5849694609642029,-1.1976534128189087
1772790955149675800,14.92367578125,-2.278172731399536,-0.530258297920227,-1.3328192234039307
1772790955169708800,14.943708740234374,-2.3559389114379883,-0.4545927941799164,-1.492261290550232
1772790955189741600,14.963741455078125,-2.387721538543701,-0.44527894258499146,-1.6127113103866577
1772790955209774800,14.98377490234375,-2.4399609565734863,-0.4641176164150238,-1.6608178615570068
1772790955229807600,15.0038076171875,-2.525843858718872,-0.47434282302856445,-1.5930219888687134
1772790955249839900,15.02383984375,-2.6181325912475586,-0.3783281147480011,-1.3951374292373657
1772790955269872600,15.04387255859375,-2.650322437286377,-0.10763964056968689,-1.1483854055404663
1772790955289905700,15.06390576171875,-2.5815656185150146,0.2507632374763489,-0.900268018245697
1772790955309938700,15.083938720703125,-2.3804543018341064,0.6075171232223511,-0.666326105594635
1772790955329971700,15.1039716796875,-2.039424180984497,0.8903692960739136,-0.4874753952026367
1772790955350004700,15.124004638671876,-1.5486992597579956,0.9329295754432678,-0.39687785506248474
1772790955370036500,15.144036376953125,-0.9822902083396912,0.640923023223877,-0.4236471354961395
1772790955390069500,15.164069580078126,-0.42346978187561035,0.06621603667736053,-0.5403540730476379
1772790955410102500,15.1841025390625,0.04703168943524361,-0.6746881604194641,-0.6595608592033386
1772790955430135600,15.204135498046876,0.42912766337394714,-1.4050185680389404,-0.7202990651130676
1772790955450168600,15.22416845703125,0.7287793755531311,-2.0229644775390625,-0.6715642809867859
1772790955470201600,15.24420166015625,0.8736265301704407,-2.5586626529693604,-0.5182463526725769
1772790955490233300,15.2642333984375,0.7673302292823792,-3.0591259002685547,-0.49439722299575806
1772790955510266600,15.2842666015625,0.492313027381897,-3.531242609024048,-0.6421922445297241
1772790955530299400,15.30429931640625,0.05952591076493263,-3.7986714839935303,-0.7133859992027283
1772790955550332700,15.324332763671874,-0.6169660091400146,-4.078911304473877,-0.8308074474334717
1772790955570365400,15.344365478515625,-1.2404855489730835,-4.2564005851745605,-1.213623046875
1772790955590398500,15.3643984375,-1.4598711729049683,-4.0377068519592285,-1.3566243648529053
1772790955610430500,15.384430419921875,-1.3018004894256592,-3.322751760482788,-0.9412122368812561
1772790955630463500,15.40446337890625,-1.0189573764801025,-2.3218019008636475,0.014875086024403572
1772790955650496500,15.42449658203125,-0.9235168695449829,-1.369948387145996,1.0293631553649902
1772790955670529500,15.444529541015624,-1.0607999563217163,-0.8234113454818726,1.5196881294250488
1772790955690562600,15.4645625,-1.0950134992599487,-0.5614913105964661,1.4176664352416992
1772790955710595600,15.484595703125,-1.0072500705718994,-0.3825247287750244,0.9291628003120422
1772790955730627600,15.504627685546875,-0.8233609795570374,-0.053882937878370285,0.3180040717124939
1772790955750660400,15.524660400390625,-0.6236542463302612,0.41942495107650757,-0.15227262675762177
1772790955770693600,15.544693603515626,-0.3568372130393982,1.0941338539123535,-0.6171577572822571
1772790955790726400,15.564726318359375,-0.12449079751968384,1.8024502992630005,-0.9595558643341064
1772790955810759400,15.584759521484376,-0.008082161657512188,2.3593945503234863,-1.0673127174377441
1772790955830792400,15.60479248046875,0.06196323782205582,2.748952627182007,-0.8951427936553955
1772790955850824700,15.62482470703125,0.2624843418598175,2.861774444580078,-0.5841678380966187
1772790955870857500,15.644857421875,0.6151763796806335,2.714596748352051,-0.4099728763103485
1772790955890890500,15.664890380859376,1.0254751443862915,2.2577075958251953,-0.38746437430381775
1772790955910923500,15.684923583984375,1.40223228931427,1.522609829902649,-0.5034064054489136
1772790955930956500,15.70495654296875,1.7262709140777588,0.6394739747047424,-0.6724681258201599
1772790955950989600,15.724989501953125,2.002138376235962,-0.2566024959087372,-0.7596794962882996
1772790955971021300,15.745021240234376,2.181077241897583,-1.0010993480682373,-0.6509854793548584
1772790955991054600,15.7650546875,2.2977585792541504,-1.4582992792129517,-0.41006049513816833
1772790956011087400,15.78508740234375,2.3690032958984375,-1.632117748260498,-0.13448217511177063
1772790956031120600,15.80512060546875,2.4129462242126465,-1.5024367570877075,0.15061986446380615
1772790956051153400,15.8251533203125,2.361351728439331,-1.1189724206924438,0.474416583776474
1772790956071186400,15.8451865234375,2.1523101329803467,-0.5580768585205078,0.8363566994667053
1772790956091218400,15.865218505859374,1.8118853569030762,0.2056218683719635,1.2276469469070435
1772790956111251700,15.885251708984375,1.3920660018920898,1.1418031454086304,1.5899838209152222
1772790956131284500,15.905284423828125,0.9029828310012817,2.184335947036743,1.9192986488342285
1772790956151317500,15.9253173828125,0.3776082694530487,3.2690045833587646,2.241048812866211
1772790956171350500,15.9453505859375,-0.08390342444181442,4.210739612579346,2.500284194946289
1772790956191383600,15.965383544921876,-0.3909427225589752,5.017242908477783,2.7084569931030273
1772790956211415600,15.98541552734375,-0.5459850430488586,5.568006992340088,2.89117693901062
1772790956231448300,16.0054482421875,-0.5284859538078308,5.852447032928467,2.941394090652466
1772790956251481600,16.025481689453127,-0.3161478340625763,5.837160110473633,2.8500990867614746
1772790956271514400,16.045514404296874,-0.0025457157753407955,5.479046821594238,2.560379981994629
1772790956291547600,16.065547607421873,0.3290892243385315,4.753085136413574,2.056582450866699
1772790956311580400,16.085580322265624,0.6099709272384644,3.7230727672576904,1.3831193447113037
1772790956331612700,16.10561279296875,0.8418606519699097,2.4568393230438232,0.555148720741272
1772790956351645400,16.1256455078125,0.9679685235023499,1.0901106595993042,-0.29204702377319336
1772790956371678500,16.145678466796873,0.9945558905601501,-0.23324337601661682,-1.0072420835494995
1772790956391711500,16.16571142578125,0.9530603885650635,-1.3098115921020508,-1.4656496047973633
1772790956411744300,16.185744140625,0.8985569477081299,-2.1135993003845215,-1.6420366764068604
1772790956431777500,16.205777587890626,0.8655902147293091,-2.5077497959136963,-1.556797981262207
1772790956451809300,16.225809326171873,0.8565426468849182,-2.5005412101745605,-1.275796890258789
1772790956471842300,16.24584228515625,0.8594324588775635,-2.200392246246338,-0.8703383207321167
1772790956491875300,16.265875244140624,0.8573868870735168,-1.701148509979248,-0.4318816363811493
1772790956511908400,16.285908447265626,0.8963800668716431,-1.059877634048462,-0.1914093792438507
1772790956531941400,16.30594140625,0.8351654410362244,-0.5098179578781128,-0.17289134860038757
1772790956551974400,16.325974365234377,0.5802857279777527,-0.15713901817798615,-0.11445440351963043
1772790956572006400,16.34600634765625,0.26836007833480835,0.060615409165620804,-0.09171340614557266
1772790956592039400,16.366039306640626,-0.013997041620314121,0.21102675795555115,-0.05215481296181679
1772790956612072400,16.386072509765626,-0.15860030055046082,0.3766207695007324,0.09174856543540955
1772790956632105500,16.40610546875,-0.17483413219451904,0.6351106762886047,0.42096346616744995
1772790956652140300,16.426140380859376,-0.039741821587085724,0.9259142875671387,1.1159758567810059
1772790956672173600,16.446173583984375,0.00014567491598427296,1.2307926416397095,2.2464022636413574
1772790956692206300,16.466206298828126,-0.2707825005054474,1.3389755487442017,3.031578779220581
1772790956712238300,16.48623828125,-0.8476886749267578,1.1150338649749756,2.8092973232269287
1772790956732271400,16.506271240234376,-1.4013452529907227,0.7995043992996216,1.5872628688812256
1772790956752304400,16.526304443359376,-1.846714973449707,0.5350141525268555,0.10600100457668304
1772790956772337400,16.54633740234375,-2.155153512954712,0.38219156861305237,-1.0928292274475098
1772790956792370400,16.566370361328126,-2.2372190952301025,0.40972015261650085,-1.8075108528137207
1772790956812403500,16.586403564453125,-2.1505470275878906,0.4974406659603119,-2.0250000953674316
1772790956832435500,16.606435546875,-1.9775882959365845,0.47950828075408936,-1.851565957069397
1772790956852468500,16.626468505859375,-1.7034693956375122,0.2703670561313629,-1.3835755586624146
1772790956872501200,16.646501220703126,-1.367331624031067,0.04632249101996422,-0.8257016539573669
1772790956892534500,16.666534423828125,-1.0227289199829102,-0.11675325036048889,-0.3289930820465088
1772790956912567300,16.6865673828125,-0.6916248202323914,-0.12060577422380447,0.09771963208913803
1772790956932600600,16.7066005859375,-0.34407320618629456,0.03279443085193634,0.40848150849342346
1772790956952632300,16.72663232421875,0.042141061276197433,0.2094762623310089,0.6162227392196655
1772790956972665300,16.746665283203125,0.3936077356338501,0.36413508653640747,0.762636661529541
1772790956992698400,16.766698486328124,0.7075409293174744,0.4185338616371155,0.8843085169792175
1772790957012731400,16.7867314453125,0.8896033763885498,0.37500184774398804,0.9356334805488586
1772790957032764400,16.806764404296874,0.9257670044898987,0.29166755080223083,0.9785287380218506
1772790957052797400,16.82679736328125,0.8088470101356506,0.18505986034870148,0.9552305936813354
1772790957072830500,16.84683056640625,0.6241003274917603,0.12730495631694794,0.8895549178123474
1772790957092862500,16.866862548828124,0.3993593752384186,0.13064855337142944,0.6600154638290405
1772790957112895500,16.8868955078125,0.22824355959892273,0.21794191002845764,0.31855854392051697
1772790957132928300,16.90692822265625,0.108096644282341,0.33656230568885803,0.05154841020703316
1772790957152961500,16.92696142578125,0.12014744430780411,0.4556359648704529,0.07640901952981949
1772790957172994300,16.946994384765624,0.3115885257720947,0.780500054359436,0.48552995920181274
1772790957193027600,16.967027587890627,0.5620936751365662,1.207516074180603,1.2310634851455688
1772790957213059300,16.987059326171874,0.7085379958152771,1.7688097953796387,1.9745118618011475
1772790957233092400,17.00709228515625,0.7653826475143433,2.3448972702026367,2.370495557785034
1772790957253125400,17.02712548828125,0.8026301264762878,2.8270339965820312,2.284116506576538
1772790957273158400,17.047158447265623,0.7448137402534485,3.0789568424224854,1.837215542793274
1772790957293191400,17.06719140625,0.592947781085968,3.085730791091919,1.217221975326538
1772790957313224200,17.08722412109375,0.4510936737060547,2.9288599491119385,0.6296282410621643
1772790957333256400,17.10725634765625,0.3449653685092926,2.689943790435791,0.21481722593307495
1772790957353289500,17.12728955078125,0.2880650758743286,2.4215166568756104,0.028676917776465416
1772790957373321700,17.14732177734375,0.29099801182746887,2.1455345153808594,-0.028990373015403748
1772790957393355000,17.16735498046875,0.370449423789978,1.8957743644714355,-0.006127400789409876
1772790957413387800,17.1873876953125,0.499112606048584,1.7139177322387695,0.12099593132734299
1772790957433420800,17.2074208984375,0.6480591893196106,1.6003589630126953,0.2974756360054016
1772790957453453800,17.227453857421875,0.7727470993995667,1.5682891607284546,0.4774533808231354
1772790957473485800,17.24748583984375,0.8501153588294983,1.566304326057434,0.6198778748512268
1772790957493518800,17.267518798828124,0.8840032815933228,1.5702016353607178,0.722894012928009
1772790957513552000,17.2875517578125,0.8800562024116516,1.6273893117904663,0.7919862866401672
1772790957533585000,17.3075849609375,0.8664463758468628,1.7148858308792114,0.8460404872894287
1772790957553618000,17.327617919921874,0.8352059125900269,1.8450297117233276,0.9187802076339722
1772790957573651000,17.34765087890625,0.7837927937507629,1.9990876913070679,0.9910218715667725
1772790957593682700,17.3676826171875,0.7334135174751282,2.1400389671325684,1.0210444927215576
1772790957613716000,17.387716064453127,0.6889315247535706,2.219571828842163,0.9882106781005859
1772790957633748700,17.407748779296874,0.6613734364509583,2.203061819076538,0.9097267389297485
1772790957653782000,17.427781982421877,0.6743329167366028,2.126147508621216,0.8129535913467407
1772790957673814800,17.447814697265624,0.7034447193145752,1.9261152744293213,0.709210991859436
1772790957693847800,17.467847900390623,0.7394629120826721,1.6278337240219116,0.6162765026092529
1772790957713879800,17.4878798828125,0.789021372795105,1.232454776763916,0.5159006118774414
1772790957733912800,17.507912841796873,0.8228515386581421,0.7816838622093201,0.44687628746032715
1772790957753945900,17.52794580078125,0.8344924449920654,0.3409416079521179,0.4445337951183319
1772790957773979000,17.547978759765623,0.8137962222099304,0.007514108903706074,0.5444936752319336
1772790957794012000,17.568011962890626,0.7506100535392761,-0.24253034591674805,0.6917164325714111
1772790957814045000,17.588044921875,0.6693711280822754,-0.37432247400283813,0.8665417432785034
1772790957834077000,17.608076904296876,0.5953989028930664,-0.3614945411682129,1.028716802597046
1772790957854109700,17.628109619140623,0.5090845227241516,-0.2282472848892212,1.2141695022583008
1772790957874143000,17.64814306640625,0.4069826900959015,0.052914079278707504,1.469536542892456
1772790957894175700,17.66817578125,0.3300303816795349,0.4895630478858948,1.780070424079895
1772790957914208800,17.688208740234376,0.32943621277809143,1.022562026977539,2.098893642425537
1772790957934241800,17.70824169921875,0.3840792179107666,1.564440369606018,2.3867063522338867
1772790957954274000,17.728274169921875,0.463058203458786,2.0316596031188965,2.627760648727417
1772790957974306800,17.748306884765626,0.5352205634117126,2.352726697921753,2.789943218231201
1772790957994339800,17.76833984375,0.5907080173492432,2.5480990409851074,2.9019739627838135
1772790958014372900,17.788372802734376,0.6233152747154236,2.6732563972473145,2.9813551902770996
1772790958034406000,17.808406005859375,0.6458053588867188,2.7456674575805664,3.037721633911133
1772790958054439000,17.82843896484375,0.6664991974830627,2.797149419784546,3.029907464981079
1772790958074470700,17.848470703125,0.678062915802002,2.794966220855713,2.9563615322113037
1772790958094504000,17.86850390625,0.6759946942329407,2.7702877521514893,2.838459014892578
1772790958114536700,17.88853662109375,0.6594200134277344,2.7005553245544434,2.648332357406616
1772790958134570000,17.908570068359374,0.641968846321106,2.5815281867980957,2.354346752166748
1772790958154602800,17.928602783203125,0.6143161654472351,2.3926312923431396,1.9544556140899658
1772790958174635800,17.9486357421875,0.5532956719398499,2.0730581283569336,1.4880958795547485
1772790958194667800,17.968667724609375,0.4495317339897156,1.636366844177246,1.0149275064468384
1772790958214701000,17.988701171875,0.327593058347702,1.1288673877716064,0.6342094540596008
1772790958234733800,18.00873388671875,0.20521280169487,0.6854145526885986,0.40154609084129333
1772790958254766800,18.028766845703124,0.08580891042947769,0.4005652666091919,0.37529852986335754
1772790958274799900,18.0487998046875,-0.06196456775069237,0.30392926931381226,0.4800664782524109
1772790958294833000,18.0688330078125,-0.21269921958446503,0.3847503364086151,0.6656469702720642
1772790958314866000,18.088865966796874,-0.3525415360927582,0.6468674540519714,0.9734154939651489
1772790958334897700,18.108897705078125,-0.40583351254463196,1.0733222961425781,1.366860270500183
1772790958354931000,18.128930908203124,-0.41263070702552795,1.4903720617294312,1.672616720199585
1772790958374964500,18.148964599609375,-0.3482362627983093,1.8567875623703003,1.7554042339324951
1772790958394997200,18.168997314453126,-0.3047761619091034,2.051297903060913,1.6232638359069824
1772790958415030500,18.189030517578125,-0.3280537724494934,2.0138485431671143,1.2050625085830688
1772790958435063300,18.209063232421876,-0.35844311118125916,1.7445411682128906,0.4054071605205536
1772790958455095600,18.229095458984375,-0.35148054361343384,1.1540215015411377,-0.5121559500694275
1772790958475128300,18.24912841796875,-0.27816131711006165,0.4523991644382477,-1.4099501371383667
1772790958495161600,18.26916162109375,-0.11506986618041992,-0.29567718505859375,-2.2210841178894043
1772790958515194400,18.2891943359375,0.13969185948371887,-1.0037600994110107,-2.8825466632843018
1772790958535227600,18.3092275390625,0.436233252286911,-1.6363087892532349,-3.3793060779571533
1772790958555260400,18.329260498046875,0.7210530042648315,-2.1861159801483154,-3.628941297531128
1772790958575292700,18.349292724609374,0.8922489881515503,-2.640124559402466,-3.6497209072113037
1772790958595325400,18.369325439453124,0.9482685923576355,-2.892591953277588,-3.391667604446411
1772790958615358500,18.3893583984375,0.8338745832443237,-2.7841262817382812,-2.8817906379699707
1772790958635391500,18.4093916015625,0.6017947793006897,-2.298124074935913,-2.2740612030029297
1772790958655424500,18.429424560546874,0.29892757534980774,-1.640722393989563,-1.6826930046081543
1772790958675457500,18.44945751953125,-0.009239571169018745,-0.9978646039962769,-1.207503318786621
1772790958695489300,18.4694892578125,-0.2704293727874756,-0.47011691331863403,-0.8131113052368164
1772790958715522600,18.4895224609375,-0.4889310598373413,-0.07934515923261642,-0.4808449149131775
1772790958735555300,18.509555419921874,-0.6886900067329407,0.16428402066230774,-0.2369140088558197
1772790958755588600,18.529588623046877,-0.9172770977020264,0.2419969141483307,-0.05548136681318283
1772790958775621400,18.549621337890624,-1.1764708757400513,0.18154476583003998,0.11001971364021301
1772790958795654700,18.569654541015623,-1.450706124305725,0.0827377587556839,0.2601455748081207
1772790958815686400,18.589686279296874,-1.7025444507598877,-0.025778867304325104,0.3971763849258423
1772790958835719700,18.6097197265625,-1.9186006784439087,-0.10336766391992569,0.44435322284698486
1772790958855752400,18.62975244140625,-2.0792737007141113,-0.15096953511238098,0.445465624332428
1772790958875785500,18.649785400390623,-2.183218240737915,-0.18019799888134003,0.4582964777946472
1772790958895818500,18.669818603515626,-2.2468206882476807,-0.19495297968387604,0.485063374042511
1772790958915851500,18.6898515625,-2.26448655128479,-0.160551056265831,0.49859941005706787
1772790958935883500,18.709883544921876,-2.2411715984344482,-0.12626498937606812,0.5332684516906738
1772790958955916300,18.729916259765623,-2.1504335403442383,-0.14773114025592804,0.6481117010116577
1772790958975949600,18.749949462890626,-2.0146501064300537,-0.2764832675457001,0.7165517210960388
1772790958995982300,18.769982421875,-1.8443703651428223,-0.5102568864822388,0.6746023893356323
1772790959016015600,18.790015625,-1.6447645425796509,-0.762195348739624,0.5398904085159302
1772790959036048400,18.81004833984375,-1.3324474096298218,-0.8729032278060913,0.24588726460933685
1772790959056081400,18.830081298828127,-1.0017595291137695,-0.8431538939476013,-0.05230821296572685
1772790959076113400,18.850113525390626,-0.8057774901390076,-0.7703875303268433,-0.1307838410139084
1772790959096146700,18.870146728515625,-0.668120801448822,-0.6265336871147156,-0.10431495308876038
1772790959116179500,18.890179443359376,-0.4795282483100891,-0.4475141167640686,-0.09662774205207825
1772790959136212500,18.91021240234375,-0.26623594760894775,-0.29848042130470276,-0.16185708343982697
1772790959156245500,18.93024560546875,-0.04190324246883392,-0.26228222250938416,-0.1813218593597412
1772790959176278500,18.950278564453125,0.21306753158569336,-0.29487210512161255,-0.17698782682418823
1772790959196310500,18.970310546875,0.46666383743286133,-0.3182680010795593,-0.16140833497047424
1772790959216343300,18.99034326171875,0.6598538160324097,-0.3143414258956909,-0.13162806630134583
1772790959236376600,19.01037646484375,0.7962390780448914,-0.22142799198627472,-0.08267490565776825
1772790959256409300,19.030409423828125,0.9066998362541199,-0.029637254774570465,-0.007663512136787176
1772790959276442600,19.050442626953124,1.0013312101364136,0.23432008922100067,0.14779798686504364
1772790959296475400,19.070475341796875,1.09774649143219,0.5814961791038513,0.4336065649986267
1772790959316507600,19.090507568359374,1.2663460969924927,0.938376784324646,0.6267232894897461
1772790959336540400,19.11054052734375,1.380104422569275,1.2006763219833374,0.7872706055641174
1772790959356573700,19.13057373046875,1.4548412561416626,1.3978066444396973,0.9165399074554443
1772790959376606700,19.150606689453124,1.4882948398590088,1.5538569688796997,1.007622480392456
1772790959396639700,19.1706396484375,1.4324700832366943,1.7279313802719116,1.0366638898849487
1772790959416672800,19.1906728515625,1.1992286443710327,1.8078809976577759,0.9707714915275574
1772790959436704500,19.21070458984375,0.8789970874786377,1.9289275407791138,0.9687575697898865
1772790959456737800,19.23073779296875,0.6220750212669373,2.3272061347961426,1.0717841386795044
1772790959476770600,19.2507705078125,0.4889529049396515,2.9260149002075195,1.1889392137527466
1772790959496803800,19.270803955078126,0.4804438352584839,3.555860757827759,1.2172539234161377
1772790959516836600,19.290836669921877,0.5969723463058472,4.03217887878418,1.1295078992843628
1772790959536870000,19.310869873046876,0.8530267477035522,4.266862869262695,0.9279257655143738
1772790959556901600,19.330901611328127,1.1974395513534546,4.24988317489624,0.7001064419746399
1772790959576935000,19.350934814453126,1.5941569805145264,3.9272232055664062,0.40766283869743347
1772790959596967700,19.3709677734375,1.9632312059402466,3.237652540206909,0.003961185924708843
1772790959617000700,19.391000732421876,2.253382682800293,2.217355251312256,-0.4795575439929962
1772790959637033700,19.41103369140625,2.4441158771514893,0.9783348441123962,-0.9700137972831726
1772790959657066800,19.431066650390626,2.5278806686401367,-0.3773171901702881,-1.3922646045684814
1772790959677098800,19.4510986328125,2.52150297164917,-1.6376872062683105,-1.6574665307998657
1772790959697131500,19.471131591796876,2.45745849609375,-2.584561824798584,-1.72111976146698
1772790959717164800,19.491164794921875,2.3510193824768066,-3.156806468963623,-1.619629144668579
1772790959737197600,19.511197509765626,2.214383602142334,-3.3061912059783936,-1.3452109098434448
1772790959757230800,19.53123095703125,2.0263681411743164,-3.079474687576294,-0.9591158628463745
1772790959777263600,19.551263671875,1.81293785572052,-2.6319684982299805,-0.5051723718643188
1772790959797296600,19.571296630859376,1.5746632814407349,-2.050478935241699,-0.0148623026907444
1772790959817328600,19.59132861328125,1.311903715133667,-1.3757636547088623,0.38755571842193604
1772790959837362000,19.61136181640625,1.0205440521240234,-0.7791975140571594,0.640846312046051
1772790959857394700,19.631394775390625,0.6558681130409241,-0.31101301312446594,0.7968878149986267
1772790959877427700,19.651427734375,0.2252349853515625,-0.029161879792809486,0.8617978692054749
1772790959897460700,19.671460693359375,-0.23507057130336761,0.06415395438671112,0.9450221657752991
1772790959917493800,19.69149365234375,-0.72297602891922,0.1177295595407486,1.0689092874526978
1772790959937525800,19.71152587890625,-1.1294620037078857,0.18079827725887299,0.9475263357162476
1772790959957558500,19.73155859375,-1.5080522298812866,0.13982528448104858,0.5845193862915039
1772790959977591800,19.751591796875,-1.9040861129760742,-0.024885375052690506,0.054012369364500046
1772790959997624600,19.77162451171875,-2.312171459197998,-0.26883572340011597,-0.5386855602264404
1772790960017657900,19.791657958984374,-2.692765474319458,-0.4945594072341919,-1.1013987064361572
1772790960037690600,19.811690673828124,-3.0661890506744385,-0.5841928720474243,-1.5907745361328125
1772790960057723000,19.831722900390623,-3.4930381774902344,-0.5691630840301514,-2.0785574913024902
1772790960077755600,19.851755615234374,-4.083818435668945,-0.5288918018341064,-2.4205563068389893
1772790960097789000,19.871788818359374,-4.77908182144165,-0.43638795614242554,-2.4750618934631348
1772790960117821700,19.89182177734375,-5.3764801025390625,-0.2931426465511322,-2.2677090167999268
1772790960137854700,19.911854736328124,-5.7474799156188965,-0.1134922057390213,-1.9212586879730225
1772790960157887700,19.9318876953125,-5.844511985778809,0.051056791096925735,-1.4263496398925781
1772790960177919700,19.951919677734374,-5.577613830566406,0.06788930296897888,-0.8501217365264893
1772790960197952800,19.971952880859376,-4.994724273681641,-0.16854773461818695,-0.18166805803775787
1772790960217985500,19.991985595703124,-4.165513515472412,-0.48194319009780884,0.5774593353271484
1772790960238016800,20.012016845703126,-3.252735137939453,-0.7507001161575317,1.317193627357483
1772790960258049800,20.0320498046875,-2.3457674980163574,-0.9199844598770142,1.9008396863937378
1772790960278082600,20.05208251953125,-1.4002083539962769,-0.8789174556732178,2.274646282196045
1772790960298114800,20.07211474609375,-0.4250634014606476,-0.5833702087402344,2.5095725059509277
1772790960318147600,20.092147705078126,0.3479190766811371,-0.12378399074077606,2.564675807952881
1772790960338180900,20.112180908203126,0.827566385269165,0.15177381038665771,2.200392246246338
1772790960358213600,20.132213623046876,1.0745888948440552,0.06922487914562225,1.4144165515899658
1772790960378246700,20.15224658203125,1.1837998628616333,-0.2961547076702118,0.3852273225784302
1772790960398279700,20.17227978515625,1.3161301612854004,-0.8107282519340515,-0.6435379385948181
1772790960418311700,20.192311767578126,1.5366178750991821,-1.2900652885437012,-1.4279593229293823
1772790960438344700,20.2123447265625,1.7617048025131226,-1.4801900386810303,-1.9328690767288208
1772790960458377500,20.23237744140625,1.9234627485275269,-1.4212994575500488,-2.183734893798828
1772790960478410800,20.25241064453125,1.931091070175171,-1.2712069749832153,-2.2346713542938232
1772790960498443500,20.272443603515626,1.8998794555664062,-1.1428474187850952,-2.1050455570220947
1772790960518476500,20.2924765625,1.8979665040969849,-1.0009278059005737,-1.8801836967468262
1772790960538508500,20.312508544921876,1.8935346603393555,-0.6010578870773315,-1.4852877855300903
1772790960558541600,20.33254150390625,1.8935154676437378,0.103230781853199,-0.965194821357727
1772790960578574600,20.35257470703125,1.8262821435928345,0.8770883679389954,-0.40674591064453125
1772790960598607600,20.372607666015625,1.8867247104644775,1.4246244430541992,0.3611818850040436
1772790960618640600,20.392640625,2.2023091316223145,1.5693057775497437,1.2428189516067505
1772790960638673700,20.412673583984375,1.9880579710006714,1.9241615533828735,1.46967613697052
1772790960658707700,20.432707763671875,1.1819020509719849,1.8834391832351685,0.8241577744483948
1772790960678739500,20.452739501953126,0.4410133361816406,1.1372169256210327,-0.17837026715278625
1772790960698772700,20.472772705078125,0.14634522795677185,0.23008114099502563,-0.8728768825531006
1772790960718805500,20.492805419921876,0.17944805324077606,-0.33964625000953674,-1.0651434659957886
1772790960738838800,20.5128388671875,0.336225688457489,-0.6099794507026672,-1.0021027326583862
1772790960758871600,20.53287158203125,0.4573150873184204,-0.7046188712120056,-0.7965278029441833
1772790960778904600,20.552904541015625,0.3697037398815155,-0.7683989405632019,-0.49806463718414307
1772790960798936600,20.5729365234375,0.046848732978105545,-0.7890701293945312,-0.13655012845993042
1772790960818969600,20.592969482421875,-0.42285406589508057,-0.7362745404243469,0.26139405369758606
1772790960839002600,20.613002685546874,-0.8646644949913025,-0.5513899326324463,0.5985888838768005
1772790960859035400,20.633035400390625,-1.1083056926727295,-0.28028279542922974,0.8095991015434265
1772790960879068700,20.653068603515624,-0.9742008447647095,0.11112625151872635,0.8387415409088135
1772790960899101400,20.673101318359375,-0.529515266418457,0.5889042615890503,0.5976711511611938
1772790960919133700,20.6931337890625,-0.10661645978689194,0.8882414698600769,0.16801856458187103
1772790960939166500,20.71316650390625,0.05116118863224983,0.9412761926651001,-0.21082940697669983
1772790960959199700,20.73319970703125,0.04180816560983658,0.7563795447349548,-0.5582749843597412
1772790960979232500,20.753232421875,0.04995530843734741,0.44456708431243896,-0.9044910073280334
1772790960999265800,20.773265869140626,0.16555993258953094,0.025895779952406883,-1.1289358139038086
1772790961019298600,20.793298583984374,0.3920532763004303,-0.32354557514190674,-1.1318665742874146
1772790961039330800,20.813330810546876,0.6888177990913391,-0.5879313945770264,-0.8140503168106079
1772790961059363600,20.833363525390624,0.9952331185340881,-0.7506745457649231,-0.20973564684391022
1772790961079396600,20.853396728515627,1.171937346458435,-0.8676554560661316,0.4933479130268097
1772790961099429600,20.8734296875,1.0364772081375122,-0.8532283306121826,1.0261956453323364
1772790961119462400,20.89346240234375,0.7263476252555847,-0.8744289875030518,1.1745001077651978
1772790961139495700,20.91349560546875,0.45097675919532776,-0.8440609574317932,1.074215054512024
1772790961159527400,20.93352734375,0.3486996591091156,-0.577196478843689,0.9048936367034912
1772790961179560700,20.953560791015626,0.4459521770477295,-0.06456141918897629,0.7553353309631348
1772790961199593500,20.973593505859377,0.49877411127090454,0.5718587040901184,0.6947774291038513
1772790961219626800,20.993626708984376,0.44042107462882996,1.1802338361740112,0.6393821239471436
1772790961239659500,21.013659423828123,0.33152440190315247,1.6429789066314697,0.5424014925956726
1772790961259692500,21.033692626953126,0.17557741701602936,1.9863487482070923,0.47709253430366516
1772790961279725600,21.0537255859375,-0.016584303230047226,2.240182399749756,0.4943218529224396
1772790961299757800,21.0737578125,-0.1537080705165863,2.409501314163208,0.5940819978713989
1772790961319790600,21.09379052734375,-0.22513990104198456,2.439850330352783,0.6888929009437561
1772790961339823400,21.1138232421875,-0.25601819157600403,2.273357629776001,0.7215778827667236
1772790961359856600,21.133856689453125,-0.26743704080581665,1.9370118379592896,0.6786394715309143
1772790961379890000,21.153889892578125,-0.19536256790161133,1.4827849864959717,0.5464012622833252
1772790961399923200,21.173923095703124,-0.03201252594590187,0.9757723808288574,0.3962128460407257
1772790961419955000,21.193954833984375,0.1965671181678772,0.46590059995651245,0.26857686042785645
1772790961439988000,21.213988037109374,0.4302389919757843,-0.03970586881041527,0.15706045925617218
1772790961460021000,21.23402099609375,0.5937347412109375,-0.4345378577709198,0.03897163271903992
1772790961480054000,21.254053955078124,0.6684513092041016,-0.7592483162879944,-0.11954903602600098
1772790961500087000,21.274087158203123,0.6687487959861755,-1.0081579685211182,-0.29936379194259644
1772790961520119800,21.294119873046874,0.6300069689750671,-1.14743971824646,-0.438702791929245
1772790961540152000,21.314152099609377,0.6028861403465271,-1.145263671875,-0.5310638546943665
1772790961560184800,21.334184814453124,0.5789022445678711,-1.0152734518051147,-0.5341978669166565
1772790961580218000,21.354218017578123,0.5583253502845764,-0.7476992607116699,-0.4437398910522461
1772790961600251000,21.3742509765625,0.5182655453681946,-0.43370750546455383,-0.2757338285446167
1772790961620284200,21.3942841796875,0.43131065368652344,-0.2377675473690033,-0.10767346620559692
1772790961640317000,21.41431689453125,0.3220752477645874,-0.1629827916622162,-0.007035539019852877
1772790961660349000,21.434348876953123,0.2650705575942993,-0.14945420622825623,0.009019060991704464
1772790961680382000,21.4543818359375,0.28142955899238586,-0.13199079036712646,-0.22815273702144623
1772790961700415000,21.4744150390625,0.2390194982290268,-0.2307479977607727,-0.5859606862068176
1772790961720448000,21.494447998046876,0.10916190594434738,-0.444379597902298,-0.698306679725647
1772790961740481000,21.51448095703125,-0.016700949519872665,-0.61747145652771,-0.6464304327964783
1772790961760514000,21.53451416015625,-0.15657097101211548,-0.7610845565795898,-0.5059018135070801
1772790961780546000,21.554546142578126,-0.3191383183002472,-0.8389269113540649,-0.30431756377220154
1772790961800579000,21.5745791015625,-0.5005847811698914,-0.8808980584144592,-0.01624448411166668
1772790961820611800,21.59461181640625,-0.691737711429596,-0.9161026477813721,0.3334983289241791
1772790961840645000,21.61464501953125,-0.9118591547012329,-0.9246266484260559,0.5900555849075317
1772790961860678000,21.634677978515626,-1.142075538635254,-0.9041162729263306,0.6963058114051819
1772790961880711200,21.654711181640625,-1.3067963123321533,-0.7785088419914246,0.70562344789505
1772790961900743000,21.674742919921876,-1.3470244407653809,-0.46902766823768616,0.6157574653625488
1772790961920776000,21.69477587890625,-1.3078656196594238,0.01830443926155567,0.4411481022834778
1772790961940809000,21.71480908203125,-1.2139431238174438,0.5226887464523315,0.20037464797496796
1772790961960842000,21.734842041015625,-1.081323266029358,1.0016486644744873,-0.07828894257545471
1772790961980875000,21.754875,-0.8924460411071777,1.2797775268554688,-0.3168930113315582
1772790962000907800,21.77490771484375,-0.6802805066108704,1.2268402576446533,-0.4644488990306854
1772790962020940000,21.79493994140625,-0.45933404564857483,0.9236407279968262,-0.5591596961021423
1772790962040973000,21.81497314453125,-0.24253620207309723,0.428202748298645,-0.5951802730560303
1772790962061006000,21.835006103515624,-0.035049330443143845,-0.08555831015110016,-0.5626875758171082
1772790962081038800,21.855038818359375,0.17428551614284515,-0.5607743859291077,-0.4708327651023865
1772790962101072100,21.875072021484375,0.3489348292350769,-0.9101265072822571,-0.315007746219635
1772790962121105000,21.89510498046875,0.432951420545578,-1.1898956298828125,-0.16050978004932404
1772790962141137000,21.915136962890625,0.4500372111797333,-1.366342544555664,-0.037941791117191315
1772790962161170000,21.935169921875,0.42517685890197754,-1.4491816759109497,0.07103289663791656
1772790962181203000,21.955202880859375,0.36644935607910156,-1.403804898262024,0.14084526896476746
1772790962201236000,21.975236083984374,0.2694581151008606,-1.2480847835540771,0.17839238047599792
1772790962221269000,21.99526904296875,0.12578696012496948,-0.9810526371002197,0.1681527942419052
1772790962241302000,22.015302001953124,-0.040056340396404266,-0.6491846442222595,0.1471433788537979
1772790962261334000,22.035333984375,-0.20087504386901855,-0.31446605920791626,0.1672033667564392
1772790962281367000,22.055366943359374,-0.34653210639953613,-0.03821396455168724,0.3084867298603058
1772790962301400000,22.075400146484377,-0.4599452316761017,0.11786404997110367,0.5451879501342773
1772790962321433000,22.09543310546875,-0.5546855926513672,0.2040948122739792,0.8152681589126587
1772790962341465900,22.1154658203125,-0.6077248454093933,0.23042228817939758,0.9973074793815613
1772790962361499100,22.1354990234375,-0.6210854053497314,0.18578611314296722,1.0561619997024536
1772790962381530400,22.1555302734375,-0.6214573979377747,0.16225121915340424,1.0295448303222656
1772790962401563400,22.1755634765625,-0.6007790565490723,0.1951684206724167,0.913716733455658
1772790962421596400,22.195596435546875,-0.5837348103523254,0.28283730149269104,0.6961625814437866
1772790962441629400,22.21562939453125,-0.5767232179641724,0.39814338088035583,0.3988323509693146
1772790962461662200,22.235662109375,-0.5355910062789917,0.5750414729118347,0.05251886695623398
1772790962481695500,22.255695556640624,-0.4181770086288452,0.8637592792510986,-0.3790905773639679
1772790962501727200,22.275727294921875,-0.3134801685810089,1.0667393207550049,-0.7521557807922363
1772790962521760500,22.295760498046874,-0.2719167470932007,1.1193950176239014,-1.002994418144226
1772790962541793300,22.315793212890625,-0.2528865933418274,1.031699299812317,-1.0695252418518066
1772790962561826600,22.33582666015625,-0.20498190820217133,0.8371420502662659,-0.9766938090324402
1772790962581859300,22.355859375,-0.13616609573364258,0.6003641486167908,-0.8104310631752014
1772790962601891300,22.375891357421875,0.01449824869632721,0.43943142890930176,-0.6086329817771912
1772790962621924400,22.39592431640625,0.28279975056648254,0.37000682950019836,-0.4170859158039093
1772790962641957400,22.415957275390625,0.6165279150009155,0.3466234505176544,-0.2015235275030136
1772790962661990400,22.435990478515624,0.8619562983512878,0.300512433052063,0.039505597203969955
1772790962682023200,22.456023193359375,0.9838712811470032,0.24128399789333344,0.2633352279663086
1772790962702056400,22.476056396484374,1.000375747680664,0.23951512575149536,0.4122128486633301
1772790962722089200,22.496089111328125,0.9451912641525269,0.38218092918395996,0.5035244226455688
1772790962742121500,22.51612158203125,0.9148874282836914,0.7177940607070923,0.6350669860839844
1772790962762154200,22.536154296875,0.9865850806236267,1.2342082262039185,0.8251873850822449
1772790962782187500,22.5561875,1.1157795190811157,1.8585833311080933,0.9402202367782593
1772790962802220300,22.57622021484375,1.2357901334762573,2.4497132301330566,0.9569046497344971
1772790962822253600,22.596253662109376,1.2862253189086914,2.8059604167938232,0.921945333480835
1772790962842286300,22.616286376953123,1.2235361337661743,2.9204049110412598,0.9166824221611023
1772790962862318300,22.636318359375,0.9686585068702698,2.7614259719848633,0.8600670695304871
1772790962882351400,22.656351318359373,0.6043071746826172,2.379969835281372,0.6769278645515442
1772790962902384400,22.67638427734375,0.270474910736084,1.8419595956802368,0.39554494619369507
1772790962922417400,22.69641748046875,0.0652913898229599,1.2726058959960938,0.0992584079504013
1772790962942450200,22.7164501953125,-0.0026727484073489904,0.8144218325614929,-0.1500030755996704
1772790962962482400,22.736482421875,0.07036737352609634,0.5547603964805603,-0.3139944076538086
1772790962982515500,22.756515380859376,0.28122448921203613,0.45856863260269165,-0.3699849843978882
1772790963002548500,22.776548583984376,0.6076654195785522,0.4165215790271759,-0.3331920802593231
1772790963022581200,22.796581298828126,0.9208515882492065,0.3393852710723877,-0.29001984000205994
1772790963042614500,22.816614501953126,1.1372113227844238,0.1651303619146347,-0.2986801862716675
1772790963062647300,22.836647216796877,1.2473634481430054,-0.08948087692260742,-0.3660842478275299
1772790963082679300,22.85667919921875,1.281999945640564,-0.36329618096351624,-0.48999208211898804
1772790963102712300,22.87671240234375,1.2623248100280762,-0.5804159641265869,-0.5988176465034485
1772790963122745300,22.896745361328126,1.2016489505767822,-0.737454891204834,-0.641383171081543
1772790963142778400,22.9167783203125,1.1052418947219849,-0.777064859867096,-0.5755051374435425
1772790963162811400,22.936811279296876,0.9905912280082703,-0.6982702016830444,-0.42245084047317505
1772790963182844400,22.956844482421875,0.8980022072792053,-0.5142518877983093,-0.24610723555088043
1772790963202876400,22.97687646484375,0.8790854811668396,-0.27775251865386963,-0.2450941801071167
1772790963222909400,22.996909423828125,0.7988159656524658,-0.14678438007831573,-0.36437103152275085
1772790963242942200,23.016942138671876,0.5800668597221375,-0.19472980499267578,-0.33512526750564575
1772790963262975500,23.0369755859375,0.36902570724487305,-0.30751121044158936,-0.23608629405498505
1772790963283008300,23.05700830078125,0.1692255139350891,-0.4328960180282593,-0.04724660888314247
1772790963303041500,23.07704150390625,-0.04513392224907875,-0.5138036608695984,0.1621875762939453
1772790963323073300,23.0970732421875,-0.25994929671287537,-0.5298412442207336,0.41059577465057373
1772790963343106300,23.117106201171875,-0.5234371423721313,-0.5077968835830688,0.6766242980957031
1772790963363139300,23.137139404296875,-0.8774106502532959,-0.5151088833808899,0.9047408103942871
1772790963383172900,23.1571728515625,-1.300161600112915,-0.530415952205658,1.1122537851333618
1772790963403205600,23.17720556640625,-1.6825838088989258,-0.4602203369140625,1.292380928993225
1772790963423238700,23.19723876953125,-1.930546760559082,-0.2412879914045334,1.439440369606018
1772790963443270700,23.217270751953127,-2.0473132133483887,0.13413569331169128,1.4692590236663818
1772790963463303700,23.2373037109375,-2.103891134262085,0.576747715473175,1.3243836164474487
1772790963483336700,23.257336669921877,-2.1127336025238037,0.9756847620010376,1.0782524347305298
1772790963503369700,23.27736962890625,-2.0481624603271484,1.2752091884613037,0.8155640363693237
1772790963523402800,23.29740283203125,-1.885640263557434,1.3791821002960205,0.5660407543182373
1772790963543435800,23.317435791015626,-1.688239336013794,1.2467212677001953,0.4064175486564636
1772790963563467800,23.3374677734375,-1.4639904499053955,0.9347559809684753,0.3682568669319153
1772790963583500500,23.35750048828125,-1.171661138534546,0.6018999814987183,0.3554030954837799
1772790963603533800,23.377533935546875,-0.8261346817016602,0.33967792987823486,0.35587581992149353
1772790963623566600,23.397566650390626,-0.4711936116218567,0.15884850919246674,0.3687093257904053
1772790963643600000,23.417599853515625,-0.16873255372047424,0.028973061591386795,0.38417401909828186
1772790963663632600,23.437632568359376,0.04324867203831673,-0.11445014923810959,0.37334349751472473
1772790963683665000,23.457664794921875,0.16581426560878754,-0.2545470595359802,0.332682341337204
1772790963703697700,23.47769775390625,0.21289576590061188,-0.36220669746398926,0.3189489543437958
1772790963723730700,23.497730712890625,0.16261714696884155,-0.3840685784816742,0.33849868178367615
1772790963743763700,23.517763671875,0.030010629445314407,-0.298117458820343,0.3786911070346832
1772790963763796700,23.537796630859376,-0.1430298537015915,-0.08301472663879395,0.48390355706214905
1772790963783829800,23.557829833984375,-0.2672732472419739,0.26007339358329773,0.6276354193687439
1772790963803861500,23.577861572265626,-0.306641161441803,0.6623260378837585,0.7926792502403259
1772790963823894800,23.597894775390625,-0.29868975281715393,1.0123106241226196,0.923721969127655
1772790963843927600,23.617927490234376,-0.28983527421951294,1.2231541872024536,0.9559629559516907
1772790963863960800,23.6379609375,-0.27548056840896606,1.3474897146224976,0.9042142629623413
1772790963883993600,23.65799365234375,-0.239955872297287,1.4322317838668823,0.8014367818832397
1772790963904026600,23.678026611328125,-0.19904465973377228,1.4845919609069824,0.6795535087585449
1772790963924058600,23.69805859375,-0.159577414393425,1.552255630493164,0.5584803223609924
1772790963944092000,23.718091796875,-0.10745668411254883,1.68375563621521,0.4415382444858551
1772790963964124700,23.738124755859374,-0.03449592366814613,1.8274296522140503,0.32955366373062134
1772790963984157700,23.75815771484375,0.04187900573015213,1.9733765125274658,0.2339126318693161
1772790964004190700,23.778190673828124,0.12634941935539246,2.1629068851470947,0.08501076698303223
1772790964024222700,23.79822265625,0.17959745228290558,2.298684597015381,-0.09720750898122787
1772790964044255700,23.818255859375,0.13188746571540833,2.324737310409546,-0.11391565203666687
1772790964064288500,23.83828857421875,0.05215481296181679,2.327784299850464,-0.008496282622218132
1772790964084321800,23.85832177734375,0.029291842132806778,2.3563435077667236,0.10608808696269989
1772790964104354600,23.8783544921875,0.06909997761249542,2.4344375133514404,0.26871880888938904
1772790964124387800,23.898387939453126,0.18247421085834503,2.558314323425293,0.4795442223548889
1772790964144419600,23.918419677734374,0.33105355501174927,2.692971706390381,0.6908245086669922
1772790964164452900,23.938452880859376,0.4368225932121277,2.7922348976135254,0.7856040000915527
1772790964184485600,23.958485595703124,0.4604400396347046,2.8276522159576416,0.7174103260040283
1772790964204519000,23.978518798828127,0.39458513259887695,2.835989236831665,0.5113844275474548
1772790964224551700,23.9985517578125,0.28625813126564026,2.876840591430664,0.19797086715698242
1772790964244584700,24.018584716796877,0.17917801439762115,2.9730653762817383,-0.18266648054122925
1772790964264616700,24.03861669921875,0.10508221387863159,3.065049648284912,-0.5073974132537842
1772790964284649700,24.058649658203127,0.07949882000684738,3.1520776748657227,-0.7422967553138733
1772790964304682800,24.078682861328126,0.13255831599235535,3.187795877456665,-0.9100967049598694
1772790964324715500,24.098715576171877,0.22622914612293243,3.092240333557129,-1.0549633502960205
1772790964344748800,24.118748779296876,0.34759044647216797,2.8507649898529053,-1.2478821277618408
1772790964364781600,24.138781494140623,0.5172473788261414,2.474640369415283,-1.4414806365966797
1772790964384813300,24.158813232421874,0.7353137135505676,1.9930943250656128,-1.5876871347427368
1772790964404846000,24.17884619140625,0.9853978157043457,1.5039504766464233,-1.674422025680542
1772790964424879400,24.19887939453125,1.261239767074585,1.0173081159591675,-1.6923065185546875
1772790964444912000,24.218912109375,1.5050359964370728,0.510614275932312,-1.636540412902832
1772790964464945400,24.2389453125,1.6835428476333618,0.01864505745470524,-1.5329387187957764
1772790964484977200,24.25897705078125,1.8039264678955078,-0.4271047115325928,-1.381813645362854
1772790964505010200,24.27901025390625,1.8520146608352661,-0.8188389539718628,-1.1976991891860962
1772790964525043200,24.299043212890624,1.8478641510009766,-1.0913138389587402,-0.9849275350570679
1772790964545076200,24.319076171875,1.806200623512268,-1.2925559282302856,-0.6955196857452393
1772790964565109200,24.339109130859374,1.7262450456619263,-1.3452435731887817,-0.294086754322052
1772790964585142000,24.35914208984375,1.6531246900558472,-1.233587622642517,0.21855071187019348
1772790964605174300,24.37917431640625,1.6062262058258057,-0.9517567753791809,0.780947208404541
1772790964625207300,24.399207275390626,1.5656100511550903,-0.5806838870048523,1.3348798751831055
1772790964645240300,24.419240234375,1.5142384767532349,-0.10574506968259811,1.8595263957977295
1772790964665273000,24.439273193359377,1.4558374881744385,0.4168536961078644,2.3241100311279297
1772790964685306400,24.459306396484376,1.4022160768508911,0.9364047050476074,2.6993088722229004
1772790964705339100,24.479339111328127,1.3421716690063477,1.3876363039016724,3.0221669673919678
1772790964725371100,24.49937109375,1.2690870761871338,1.7710316181182861,3.2908003330230713
1772790964745404200,24.519404052734377,1.203263521194458,2.0566675662994385,3.50278902053833
1772790964765437200,24.539437255859376,1.15663743019104,2.2723684310913086,3.672820806503296
1772790964785470200,24.55947021484375,1.1754943132400513,2.4530255794525146,3.8023681640625
1772790964805503200,24.579503173828126,1.2571779489517212,2.5954349040985107,3.881821632385254
1772790964825535200,24.59953515625,1.407004714012146,2.7475504875183105,3.923396348953247
1772790964845568300,24.619568359375,1.6181070804595947,2.8886964321136475,3.888674259185791
1772790964865601300,24.639601318359375,1.8575830459594727,3.016849994659424,3.7481167316436768
1772790964885634300,24.65963427734375,2.097702980041504,3.0984745025634766,3.525484561920166
1772790964905667300,24.679667236328125,2.3162808418273926,3.1088368892669678,3.2575201988220215
1772790964925700000,24.6997001953125,2.5568103790283203,2.9543392658233643,3.071438789367676
1772790964945732000,24.719732177734375,2.814178228378296,2.654935121536255,3.013641595840454
1772790964965765000,24.73976513671875,3.038217544555664,2.182253122329712,2.906418561935425
1772790964985798100,24.759798095703125,3.1759347915649414,1.5534967184066772,2.6872496604919434
1772790965005831200,24.7798310546875,3.2721409797668457,0.8349273800849915,2.3842239379882812
1772790965025864200,24.7998642578125,3.2787060737609863,0.043409526348114014,2.099849224090576
1772790965045896200,24.819896240234375,2.9922032356262207,-0.7117071747779846,1.8016012907028198
1772790965065929200,24.83992919921875,2.378038167953491,-1.3094757795333862,1.337653398513794
1772790965085962200,24.859962158203125,1.5865923166275024,-1.7710548639297485,0.6200331449508667
1772790965105995300,24.879995361328124,0.8583275079727173,-1.99204683303833,-0.013997574336826801
1772790965126028300,24.9000283203125,0.2340654879808426,-1.866450309753418,-0.25332894921302795
1772790965146061000,24.92006103515625,-0.2796207368373871,-1.451171636581421,-0.18374480307102203
1772790965166093000,24.940093017578125,-0.7631639838218689,-0.9008139371871948,-0.050327084958553314
1772790965186126300,24.960126220703124,-1.2975400686264038,-0.41106289625167847,0.013034575618803501
1772790965206159000,24.9801591796875,-1.8677020072937012,-0.08641691505908966,-0.11122824996709824
1772790965226192100,25.000192138671874,-2.4139139652252197,0.11408475786447525,-0.49315059185028076
1772790965246225200,25.02022509765625,-2.9610915184020996,0.20638859272003174,-1.0623056888580322
1772790965266258200,25.040258056640624,-3.525254011154175,0.26279115676879883,-1.6525598764419556
1772790965286290200,25.060290283203123,-4.108114719390869,0.24885296821594238,-2.1273655891418457
1772790965306323200,25.0803232421875,-4.650002956390381,0.26609480381011963,-2.2938437461853027
1772790965326356200,25.100356201171873,-5.112751483917236,0.38525474071502686,-2.1229395866394043
